onset	duration	stim	trial_number	trial_type	trial_structure	trial_length	sequential_position	probe_type	probe	probe_position	response_correct	response_key	response_time
0.06160000000000565	0.0	+	1	noun	list	1	1	nomatch	sablier	-1	0	TIMEOUT	-1.0
0.544700000000006	0.2	qznhcfx	1	noun	list	1	2	nomatch	sablier	-1	0	TIMEOUT	-1.0
0.7446000000000055	0.0	+	1	noun	list	1	3	nomatch	sablier	-1	0	TIMEOUT	-1.0
1.1445000000000007	0.2	vdsk	1	noun	list	1	4	nomatch	sablier	-1	0	TIMEOUT	-1.0
1.3444000000000003	0.0	+	1	noun	list	1	5	nomatch	sablier	-1	0	TIMEOUT	-1.0
1.7441999999999993	0.2	gkpq	1	noun	list	1	6	nomatch	sablier	-1	0	TIMEOUT	-1.0
1.944100000000006	0.0	+	1	noun	list	1	7	nomatch	sablier	-1	0	TIMEOUT	-1.0
2.343900000000005	0.2	slrf	1	noun	list	1	8	nomatch	sablier	-1	0	TIMEOUT	-1.0
2.5438000000000045	0.0	+	1	noun	list	1	9	nomatch	sablier	-1	0	TIMEOUT	-1.0
2.9436999999999998	0.2	casier	1	noun	list	1	10	nomatch	sablier	-1	0	TIMEOUT	-1.0
3.1435999999999993	0.0	+	1	noun	list	1	11	nomatch	sablier	-1	0	TIMEOUT	-1.0
3.5434000000000054	0.0	+	1	noun	list	1	12	nomatch	sablier	-1	0	TIMEOUT	-1.0
5.542500000000004	0.0	SABLIER	1	noun	list	1	13	nomatch	sablier	-1	0	TIMEOUT	-1.0
7.941500000000005	0.0	+	2	verb	list	2	1	nomatch	noir	-1	1	p	1.0421000000000002
8.541200000000003	0.2	fcp	2	verb	list	2	2	nomatch	noir	-1	1	p	1.0421000000000002
8.741100000000003	0.0	+	2	verb	list	2	3	nomatch	noir	-1	1	p	1.0421000000000002
9.140900000000002	0.2	jvbz	2	verb	list	2	4	nomatch	noir	-1	1	p	1.0421000000000002
9.340800000000002	0.0	+	2	verb	list	2	5	nomatch	noir	-1	1	p	1.0421000000000002
9.7406	0.2	jwq	2	verb	list	2	6	nomatch	noir	-1	1	p	1.0421000000000002
9.940600000000003	0.0	+	2	verb	list	2	7	nomatch	noir	-1	1	p	1.0421000000000002
10.340800000000002	0.2	parader	2	verb	list	2	8	nomatch	noir	-1	1	p	1.0421000000000002
10.540300000000002	0.0	+	2	verb	list	2	9	nomatch	noir	-1	1	p	1.0421000000000002
10.940100000000001	0.2	bleu	2	verb	list	2	10	nomatch	noir	-1	1	p	1.0421000000000002
11.14	0.0	+	2	verb	list	2	11	nomatch	noir	-1	1	p	1.0421000000000002
11.5398	0.0	+	2	verb	list	2	12	nomatch	noir	-1	1	p	1.0421000000000002
13.539000000000001	0.0	NOIR	2	verb	list	2	13	nomatch	noir	-1	1	p	1.0421000000000002
14.638500000000008	0.0	+	2	verb	list	2	14	nomatch	noir	-1	1	p	1.0421000000000002
14.581100000000006	0.0	[response]	2	verb	list	2	15	nomatch	noir	-1	1	p	1.0421000000000002
15.937899999999999	0.0	+	3	verb	phrase	1	1	nomatch	mieux	-1	1	p	0.70812
16.487700000000004	0.2	xljdmck	3	verb	phrase	1	2	nomatch	mieux	-1	1	p	0.70812
16.687600000000003	0.0	+	3	verb	phrase	1	3	nomatch	mieux	-1	1	p	0.70812
17.087400000000002	0.2	jdlv	3	verb	phrase	1	4	nomatch	mieux	-1	1	p	0.70812
17.287300000000002	0.0	+	3	verb	phrase	1	5	nomatch	mieux	-1	1	p	0.70812
17.6871	0.2	qgfj	3	verb	phrase	1	6	nomatch	mieux	-1	1	p	0.70812
17.887	0.0	+	3	verb	phrase	1	7	nomatch	mieux	-1	1	p	0.70812
18.286900000000003	0.2	vjdtclw	3	verb	phrase	1	8	nomatch	mieux	-1	1	p	0.70812
18.486800000000002	0.0	+	3	verb	phrase	1	9	nomatch	mieux	-1	1	p	0.70812
18.8866	0.2	moins	3	verb	phrase	1	10	nomatch	mieux	-1	1	p	0.70812
19.0865	0.0	+	3	verb	phrase	1	11	nomatch	mieux	-1	1	p	0.70812
19.486400000000003	0.0	+	3	verb	phrase	1	12	nomatch	mieux	-1	1	p	0.70812
21.485500000000002	0.0	MIEUX	3	verb	phrase	1	13	nomatch	mieux	-1	1	p	0.70812
22.251800000000003	0.0	+	3	verb	phrase	1	14	nomatch	mieux	-1	1	p	0.70812
22.193600000000004	0.0	[response]	3	verb	phrase	1	15	nomatch	mieux	-1	1	p	0.70812
23.8844	0.0	+	4	noun	phrase	3	1	nomatch	mon	-1	1	p	0.65912
24.4341	0.2	jvthgkr	4	noun	phrase	3	2	nomatch	mon	-1	1	p	0.65912
24.634	0.0	+	4	noun	phrase	3	3	nomatch	mon	-1	1	p	0.65912
25.033900000000003	0.2	mfdt	4	noun	phrase	3	4	nomatch	mon	-1	1	p	0.65912
25.2504	0.0	+	4	noun	phrase	3	5	nomatch	mon	-1	1	p	0.65912
25.6503	0.2	son	4	noun	phrase	3	6	nomatch	mon	-1	1	p	0.65912
25.8502	0.0	+	4	noun	phrase	3	7	nomatch	mon	-1	1	p	0.65912
26.25	0.2	sablier	4	noun	phrase	3	8	nomatch	mon	-1	1	p	0.65912
26.4499	0.0	+	4	noun	phrase	3	9	nomatch	mon	-1	1	p	0.65912
26.8497	0.2	noir	4	noun	phrase	3	10	nomatch	mon	-1	1	p	0.65912
27.0497	0.0	+	4	noun	phrase	3	11	nomatch	mon	-1	1	p	0.65912
27.4495	0.0	+	4	noun	phrase	3	12	nomatch	mon	-1	1	p	0.65912
29.4486	0.0	MON	4	noun	phrase	3	13	nomatch	mon	-1	1	p	0.65912
30.164900000000003	0.0	+	4	noun	phrase	3	14	nomatch	mon	-1	1	p	0.65912
30.10770000000001	0.0	[response]	4	noun	phrase	3	15	nomatch	mon	-1	1	p	0.65912
31.848	0.0	+	5	verb	phrase	4	1	nomatch	sur	-1	1	p	0.63664
32.3973	0.2	plwmsr	5	verb	phrase	4	2	nomatch	sur	-1	1	p	0.63664
32.5972	0.0	+	5	verb	phrase	4	3	nomatch	sur	-1	1	p	0.63664
32.997	0.2	yves	5	verb	phrase	4	4	nomatch	sur	-1	1	p	0.63664
33.1969	0.0	+	5	verb	phrase	4	5	nomatch	sur	-1	1	p	0.63664
33.5968	0.2	peut	5	verb	phrase	4	6	nomatch	sur	-1	1	p	0.63664
33.7967	0.0	+	5	verb	phrase	4	7	nomatch	sur	-1	1	p	0.63664
34.1965	0.2	rouler	5	verb	phrase	4	8	nomatch	sur	-1	1	p	0.63664
34.3964	0.0	+	5	verb	phrase	4	9	nomatch	sur	-1	1	p	0.63664
34.7962	0.2	loin	5	verb	phrase	4	10	nomatch	sur	-1	1	p	0.63664
34.9961	0.0	+	5	verb	phrase	4	11	nomatch	sur	-1	1	p	0.63664
35.396	0.0	+	5	verb	phrase	4	12	nomatch	sur	-1	1	p	0.63664
37.3951	0.0	SUR	5	verb	phrase	4	13	nomatch	sur	-1	1	p	0.63664
38.094800000000006	0.0	+	5	verb	phrase	4	14	nomatch	sur	-1	1	p	0.63664
38.0317	0.0	[response]	5	verb	phrase	4	15	nomatch	sur	-1	1	p	0.63664
39.794	0.0	+	6	noun	phrase	4	1	nomatch	trop	-1	1	p	0.64877
40.3438	0.2	sdcfpt	6	noun	phrase	4	2	nomatch	trop	-1	1	p	0.64877
40.5437	0.0	+	6	noun	phrase	4	3	nomatch	trop	-1	1	p	0.64877
40.9435	0.2	dans	6	noun	phrase	4	4	nomatch	trop	-1	1	p	0.64877
41.1434	0.0	+	6	noun	phrase	4	5	nomatch	trop	-1	1	p	0.64877
41.5432	0.2	son	6	noun	phrase	4	6	nomatch	trop	-1	1	p	0.64877
41.7431	0.0	+	6	noun	phrase	4	7	nomatch	trop	-1	1	p	0.64877
42.143	0.2	nouveau	6	noun	phrase	4	8	nomatch	trop	-1	1	p	0.64877
42.343	0.0	+	6	noun	phrase	4	9	nomatch	trop	-1	1	p	0.64877
42.7427	0.2	clavier	6	noun	phrase	4	10	nomatch	trop	-1	1	p	0.64877
42.9426	0.0	+	6	noun	phrase	4	11	nomatch	trop	-1	1	p	0.64877
43.3424	0.0	+	6	noun	phrase	4	12	nomatch	trop	-1	1	p	0.64877
45.3416	0.0	TROP	6	noun	phrase	4	13	nomatch	trop	-1	1	p	0.64877
46.057900000000004	0.0	+	6	noun	phrase	4	14	nomatch	trop	-1	1	p	0.64877
45.99030000000002	0.0	[response]	6	noun	phrase	4	15	nomatch	trop	-1	1	p	0.64877
47.7405	0.0	+	7	noun	phrase	2	1	match	grand	4	1	y	0.48485000000000006
48.2902	0.2	jzmk	7	noun	phrase	2	2	match	grand	4	1	y	0.48485000000000006
48.4902	0.0	+	7	noun	phrase	2	3	match	grand	4	1	y	0.48485000000000006
48.89	0.2	cfhm	7	noun	phrase	2	4	match	grand	4	1	y	0.48485000000000006
49.0899	0.0	+	7	noun	phrase	2	5	match	grand	4	1	y	0.48485000000000006
49.4897	0.2	jvp	7	noun	phrase	2	6	match	grand	4	1	y	0.48485000000000006
49.6896	0.0	+	7	noun	phrase	2	7	match	grand	4	1	y	0.48485000000000006
50.0894	0.2	grand	7	noun	phrase	2	8	match	grand	4	1	y	0.48485000000000006
50.2894	0.0	+	7	noun	phrase	2	9	match	grand	4	1	y	0.48485000000000006
50.6892	0.2	boîtier	7	noun	phrase	2	10	match	grand	4	1	y	0.48485000000000006
50.8891	0.0	+	7	noun	phrase	2	11	match	grand	4	1	y	0.48485000000000006
51.2889	0.0	+	7	noun	phrase	2	12	match	grand	4	1	y	0.48485000000000006
53.288	0.0	GRAND	7	noun	phrase	2	13	match	grand	4	1	y	0.48485000000000006
53.8378	0.0	+	7	noun	phrase	2	14	match	grand	4	1	y	0.48485000000000006
53.77290000000001	0.0	[response]	7	noun	phrase	2	15	match	grand	4	1	y	0.48485000000000006
55.687	0.0	+	8	noun	phrase	3	1	nomatch	luc	-1	1	p	0.55077
56.2367	0.2	ncvr	8	noun	phrase	3	2	nomatch	luc	-1	1	p	0.55077
56.4366	0.0	+	8	noun	phrase	3	3	nomatch	luc	-1	1	p	0.55077
56.8365	0.2	wtx	8	noun	phrase	3	4	nomatch	luc	-1	1	p	0.55077
57.0364	0.0	+	8	noun	phrase	3	5	nomatch	luc	-1	1	p	0.55077
57.4362	0.2	mon	8	noun	phrase	3	6	nomatch	luc	-1	1	p	0.55077
57.6361	0.0	+	8	noun	phrase	3	7	nomatch	luc	-1	1	p	0.55077
58.0359	0.2	nouveau	8	noun	phrase	3	8	nomatch	luc	-1	1	p	0.55077
58.2358	0.0	+	8	noun	phrase	3	9	nomatch	luc	-1	1	p	0.55077
58.6357	0.2	clavier	8	noun	phrase	3	10	nomatch	luc	-1	1	p	0.55077
58.8356	0.0	+	8	noun	phrase	3	11	nomatch	luc	-1	1	p	0.55077
59.2354	0.0	+	8	noun	phrase	3	12	nomatch	luc	-1	1	p	0.55077
61.2345	0.0	LUC	8	noun	phrase	3	13	nomatch	luc	-1	1	p	0.55077
61.850899999999996	0.0	+	8	noun	phrase	3	14	nomatch	luc	-1	1	p	0.55077
61.78530000000002	0.0	[response]	8	noun	phrase	3	15	nomatch	luc	-1	1	p	0.55077
63.65010000000001	0.0	+	9	noun	phrase	1	1	nomatch	casier	-1	1	p	0.6344
64.1999	0.2	srxlgtb	9	noun	phrase	1	2	nomatch	casier	-1	1	p	0.6344
64.3998	0.0	+	9	noun	phrase	1	3	nomatch	casier	-1	1	p	0.6344
64.7996	0.2	bldw	9	noun	phrase	1	4	nomatch	casier	-1	1	p	0.6344
64.9995	0.0	+	9	noun	phrase	1	5	nomatch	casier	-1	1	p	0.6344
65.3993	0.2	jvp	9	noun	phrase	1	6	nomatch	casier	-1	1	p	0.6344
65.5992	0.0	+	9	noun	phrase	1	7	nomatch	casier	-1	1	p	0.6344
65.9991	0.2	grtm	9	noun	phrase	1	8	nomatch	casier	-1	1	p	0.6344
66.199	0.0	+	9	noun	phrase	1	9	nomatch	casier	-1	1	p	0.6344
66.5988	0.2	tablier	9	noun	phrase	1	10	nomatch	casier	-1	1	p	0.6344
66.7987	0.0	+	9	noun	phrase	1	11	nomatch	casier	-1	1	p	0.6344
67.19850000000001	0.0	+	9	noun	phrase	1	12	nomatch	casier	-1	1	p	0.6344
69.1977	0.0	CASIER	9	noun	phrase	1	13	nomatch	casier	-1	1	p	0.6344
69.8973	0.0	+	9	noun	phrase	1	14	nomatch	casier	-1	1	p	0.6344
69.8321	0.0	[response]	9	noun	phrase	1	15	nomatch	casier	-1	1	p	0.6344
71.59660000000001	0.0	+	10	verb	phrase	1	1	match	ainsi	5	1	y	0.4813200000000001
72.1463	0.2	dbqc	10	verb	phrase	1	2	match	ainsi	5	1	y	0.4813200000000001
72.3463	0.0	+	10	verb	phrase	1	3	match	ainsi	5	1	y	0.4813200000000001
72.7461	0.2	mqnx	10	verb	phrase	1	4	match	ainsi	5	1	y	0.4813200000000001
72.946	0.0	+	10	verb	phrase	1	5	match	ainsi	5	1	y	0.4813200000000001
73.3458	0.2	kw	10	verb	phrase	1	6	match	ainsi	5	1	y	0.4813200000000001
73.5457	0.0	+	10	verb	phrase	1	7	match	ainsi	5	1	y	0.4813200000000001
73.94550000000001	0.2	qxlpftj	10	verb	phrase	1	8	match	ainsi	5	1	y	0.4813200000000001
74.1455	0.0	+	10	verb	phrase	1	9	match	ainsi	5	1	y	0.4813200000000001
74.5453	0.2	ainsi	10	verb	phrase	1	10	match	ainsi	5	1	y	0.4813200000000001
74.7452	0.0	+	10	verb	phrase	1	11	match	ainsi	5	1	y	0.4813200000000001
75.145	0.0	+	10	verb	phrase	1	12	match	ainsi	5	1	y	0.4813200000000001
77.14410000000001	0.0	AINSI	10	verb	phrase	1	13	match	ainsi	5	1	y	0.4813200000000001
77.6772	0.0	+	10	verb	phrase	1	14	match	ainsi	5	1	y	0.4813200000000001
77.62550000000002	0.0	[response]	10	verb	phrase	1	15	match	ainsi	5	1	y	0.4813200000000001
87.5395	0.0	+	11	noun	list	1	1	nomatch	beaucoup	-1	1	p	0.84156
88.08930000000001	0.2	vmx	11	noun	list	1	2	nomatch	beaucoup	-1	1	p	0.84156
88.2892	0.0	+	11	noun	list	1	3	nomatch	beaucoup	-1	1	p	0.84156
88.689	0.2	tnwf	11	noun	list	1	4	nomatch	beaucoup	-1	1	p	0.84156
88.8889	0.0	+	11	noun	list	1	5	nomatch	beaucoup	-1	1	p	0.84156
89.28880000000001	0.2	jvp	11	noun	list	1	6	nomatch	beaucoup	-1	1	p	0.84156
89.4887	0.0	+	11	noun	list	1	7	nomatch	beaucoup	-1	1	p	0.84156
89.8885	0.2	pnwxgms	11	noun	list	1	8	nomatch	beaucoup	-1	1	p	0.84156
90.08840000000001	0.0	+	11	noun	list	1	9	nomatch	beaucoup	-1	1	p	0.84156
90.4882	0.2	mieux	11	noun	list	1	10	nomatch	beaucoup	-1	1	p	0.84156
90.68809999999999	0.0	+	11	noun	list	1	11	nomatch	beaucoup	-1	1	p	0.84156
91.088	0.0	+	11	noun	list	1	12	nomatch	beaucoup	-1	1	p	0.84156
93.08709999999999	0.0	BEAUCOUP	11	noun	list	1	13	nomatch	beaucoup	-1	1	p	0.84156
93.98670000000001	0.0	+	11	noun	list	1	14	nomatch	beaucoup	-1	1	p	0.84156
93.92859999999999	0.0	[response]	11	noun	list	1	15	nomatch	beaucoup	-1	1	p	0.84156
95.48599999999999	0.0	+	12	verb	list	1	1	match	vert	5	1	y	0.71239
96.0358	0.2	vhs	12	verb	list	1	2	match	vert	5	1	y	0.71239
96.23590000000002	0.0	+	12	verb	list	1	3	match	vert	5	1	y	0.71239
96.63550000000001	0.2	dgtf	12	verb	list	1	4	match	vert	5	1	y	0.71239
96.83539999999999	0.0	+	12	verb	list	1	5	match	vert	5	1	y	0.71239
97.23519999999999	0.2	jwq	12	verb	list	1	6	match	vert	5	1	y	0.71239
97.43520000000001	0.0	+	12	verb	list	1	7	match	vert	5	1	y	0.71239
97.83500000000001	0.2	pvrdkzg	12	verb	list	1	8	match	vert	5	1	y	0.71239
98.0349	0.0	+	12	verb	list	1	9	match	vert	5	1	y	0.71239
98.43469999999999	0.2	vert	12	verb	list	1	10	match	vert	5	1	y	0.71239
98.6346	0.0	+	12	verb	list	1	11	match	vert	5	1	y	0.71239
99.0344	0.0	+	12	verb	list	1	12	match	vert	5	1	y	0.71239
101.05019999999999	0.0	VERT	12	verb	list	1	13	match	vert	5	1	y	0.71239
101.81649999999999	0.0	+	12	verb	list	1	14	match	vert	5	1	y	0.71239
101.76259999999999	0.0	[response]	12	verb	list	1	15	match	vert	5	1	y	0.71239
103.44919999999999	0.0	+	13	noun	list	3	1	nomatch	beau	-1	1	p	0.69605
103.99889999999999	0.2	jbhm	13	noun	list	3	2	nomatch	beau	-1	1	p	0.69605
104.1988	0.0	+	13	noun	list	3	3	nomatch	beau	-1	1	p	0.69605
104.59870000000001	0.2	vdsk	13	noun	list	3	4	nomatch	beau	-1	1	p	0.69605
104.7986	0.0	+	13	noun	list	3	5	nomatch	beau	-1	1	p	0.69605
105.19839999999999	0.2	mon	13	noun	list	3	6	nomatch	beau	-1	1	p	0.69605
105.3983	0.0	+	13	noun	list	3	7	nomatch	beau	-1	1	p	0.69605
105.7981	0.2	mieux	13	noun	list	3	8	nomatch	beau	-1	1	p	0.69605
105.99799999999999	0.0	+	13	noun	list	3	9	nomatch	beau	-1	1	p	0.69605
106.39779999999999	0.2	clavier	13	noun	list	3	10	nomatch	beau	-1	1	p	0.69605
106.5978	0.0	+	13	noun	list	3	11	nomatch	beau	-1	1	p	0.69605
106.9976	0.0	+	13	noun	list	3	12	nomatch	beau	-1	1	p	0.69605
108.9967	0.0	BEAU	13	noun	list	3	13	nomatch	beau	-1	1	p	0.69605
109.7464	0.0	+	13	noun	list	3	14	nomatch	beau	-1	1	p	0.69605
109.6927	0.0	[response]	13	noun	list	3	15	nomatch	beau	-1	1	p	0.69605
111.3956	0.0	+	14	noun	list	3	1	match	moins	4	1	y	0.64974
111.9454	0.2	nkzb	14	noun	list	3	2	match	moins	4	1	y	0.64974
112.14529999999999	0.0	+	14	noun	list	3	3	match	moins	4	1	y	0.64974
112.54509999999999	0.2	jvbz	14	noun	list	3	4	match	moins	4	1	y	0.64974
112.745	0.0	+	14	noun	list	3	5	match	moins	4	1	y	0.64974
113.1449	0.2	son	14	noun	list	3	6	match	moins	4	1	y	0.64974
113.34479999999999	0.0	+	14	noun	list	3	7	match	moins	4	1	y	0.64974
113.74459999999999	0.2	moins	14	noun	list	3	8	match	moins	4	1	y	0.64974
113.9445	0.0	+	14	noun	list	3	9	match	moins	4	1	y	0.64974
114.3443	0.2	cendrier	14	noun	list	3	10	match	moins	4	1	y	0.64974
114.54419999999999	0.0	+	14	noun	list	3	11	match	moins	4	1	y	0.64974
114.94409999999999	0.0	+	14	noun	list	3	12	match	moins	4	1	y	0.64974
116.94319999999999	0.0	MOINS	14	noun	list	3	13	match	moins	4	1	y	0.64974
117.65950000000001	0.0	+	14	noun	list	3	14	match	moins	4	1	y	0.64974
117.59290000000001	0.0	[response]	14	noun	list	3	15	match	moins	4	1	y	0.64974
119.3426	0.0	+	15	verb	list	2	1	nomatch	parader	-1	1	p	0.76186
119.89189999999999	0.2	vhpmcrb	15	verb	list	2	2	nomatch	parader	-1	1	p	0.76186
120.0918	0.0	+	15	verb	list	2	3	nomatch	parader	-1	1	p	0.76186
120.4916	0.2	mqnx	15	verb	list	2	4	nomatch	parader	-1	1	p	0.76186
120.69149999999999	0.0	+	15	verb	list	2	5	nomatch	parader	-1	1	p	0.76186
121.09129999999999	0.2	jwq	15	verb	list	2	6	nomatch	parader	-1	1	p	0.76186
121.2913	0.0	+	15	verb	list	2	7	nomatch	parader	-1	1	p	0.76186
121.6911	0.2	jongler	15	verb	list	2	8	nomatch	parader	-1	1	p	0.76186
121.89099999999999	0.0	+	15	verb	list	2	9	nomatch	parader	-1	1	p	0.76186
122.29079999999999	0.2	bleu	15	verb	list	2	10	nomatch	parader	-1	1	p	0.76186
122.4907	0.0	+	15	verb	list	2	11	nomatch	parader	-1	1	p	0.76186
122.8905	0.0	+	15	verb	list	2	12	nomatch	parader	-1	1	p	0.76186
124.8897	0.0	PARADER	15	verb	list	2	13	nomatch	parader	-1	1	p	0.76186
125.70599999999999	0.0	+	15	verb	list	2	14	nomatch	parader	-1	1	p	0.76186
125.6515	0.0	[response]	15	verb	list	2	15	nomatch	parader	-1	1	p	0.76186
127.2886	0.0	+	16	noun	list	1	1	match	rocher	5	1	y	0.58798
127.83840000000001	0.2	rntcw	16	noun	list	1	2	match	rocher	5	1	y	0.58798
128.0383	0.0	+	16	noun	list	1	3	match	rocher	5	1	y	0.58798
128.4381	0.2	vpfm	16	noun	list	1	4	match	rocher	5	1	y	0.58798
128.638	0.0	+	16	noun	list	1	5	match	rocher	5	1	y	0.58798
129.0378	0.2	kw	16	noun	list	1	6	match	rocher	5	1	y	0.58798
129.2377	0.0	+	16	noun	list	1	7	match	rocher	5	1	y	0.58798
129.6376	0.2	xchg	16	noun	list	1	8	match	rocher	5	1	y	0.58798
129.8375	0.0	+	16	noun	list	1	9	match	rocher	5	1	y	0.58798
130.2373	0.2	rocher	16	noun	list	1	10	match	rocher	5	1	y	0.58798
130.4372	0.0	+	16	noun	list	1	11	match	rocher	5	1	y	0.58798
130.837	0.0	+	16	noun	list	1	12	match	rocher	5	1	y	0.58798
132.83610000000002	0.0	ROCHER	16	noun	list	1	13	match	rocher	5	1	y	0.58798
133.48590000000002	0.0	+	16	noun	list	1	14	match	rocher	5	1	y	0.58798
133.4241	0.0	[response]	16	noun	list	1	15	match	rocher	5	1	y	0.58798
135.23510000000002	0.0	+	17	noun	phrase	1	1	nomatch	voilier	-1	1	p	0.69668
135.7848	0.2	pfl	17	noun	phrase	1	2	nomatch	voilier	-1	1	p	0.69668
135.9847	0.0	+	17	noun	phrase	1	3	nomatch	voilier	-1	1	p	0.69668
136.3846	0.2	cfhm	17	noun	phrase	1	4	nomatch	voilier	-1	1	p	0.69668
136.5845	0.0	+	17	noun	phrase	1	5	nomatch	voilier	-1	1	p	0.69668
136.9843	0.2	gkpq	17	noun	phrase	1	6	nomatch	voilier	-1	1	p	0.69668
137.1842	0.0	+	17	noun	phrase	1	7	nomatch	voilier	-1	1	p	0.69668
137.584	0.2	scvhk	17	noun	phrase	1	8	nomatch	voilier	-1	1	p	0.69668
137.78390000000002	0.0	+	17	noun	phrase	1	9	nomatch	voilier	-1	1	p	0.69668
138.2004	0.2	sablier	17	noun	phrase	1	10	nomatch	voilier	-1	1	p	0.69668
138.40030000000002	0.0	+	17	noun	phrase	1	11	nomatch	voilier	-1	1	p	0.69668
138.8002	0.0	+	17	noun	phrase	1	12	nomatch	voilier	-1	1	p	0.69668
140.79930000000002	0.0	VOILIER	17	noun	phrase	1	13	nomatch	voilier	-1	1	p	0.69668
141.5489	0.0	+	17	noun	phrase	1	14	nomatch	voilier	-1	1	p	0.69668
141.496	0.0	[response]	17	noun	phrase	1	15	nomatch	voilier	-1	1	p	0.69668
143.1982	0.0	+	18	noun	list	1	1	nomatch	peut	-1	1	p	0.7837
143.748	0.2	drvtjk	18	noun	list	1	2	nomatch	peut	-1	1	p	0.7837
143.9479	0.0	+	18	noun	list	1	3	nomatch	peut	-1	1	p	0.7837
144.3477	0.2	vpfm	18	noun	list	1	4	nomatch	peut	-1	1	p	0.7837
144.54760000000002	0.0	+	18	noun	list	1	5	nomatch	peut	-1	1	p	0.7837
144.94740000000002	0.2	qgfj	18	noun	list	1	6	nomatch	peut	-1	1	p	0.7837
145.1474	0.0	+	18	noun	list	1	7	nomatch	peut	-1	1	p	0.7837
145.5472	0.2	hfjwbdx	18	noun	list	1	8	nomatch	peut	-1	1	p	0.7837
145.7471	0.0	+	18	noun	list	1	9	nomatch	peut	-1	1	p	0.7837
146.14690000000002	0.2	tard	18	noun	list	1	10	nomatch	peut	-1	1	p	0.7837
146.3468	0.0	+	18	noun	list	1	11	nomatch	peut	-1	1	p	0.7837
146.7466	0.0	+	18	noun	list	1	12	nomatch	peut	-1	1	p	0.7837
148.7458	0.0	PEUT	18	noun	list	1	13	nomatch	peut	-1	1	p	0.7837
149.5954	0.0	+	18	noun	list	1	14	nomatch	peut	-1	1	p	0.7837
149.5295	0.0	[response]	18	noun	list	1	15	nomatch	peut	-1	1	p	0.7837
151.1447	0.0	+	19	noun	phrase	1	1	match	petit	5	1	y	0.67165
151.6945	0.2	chrq	19	noun	phrase	1	2	match	petit	5	1	y	0.67165
151.8944	0.0	+	19	noun	phrase	1	3	match	petit	5	1	y	0.67165
152.2942	0.2	wtx	19	noun	phrase	1	4	match	petit	5	1	y	0.67165
152.4941	0.0	+	19	noun	phrase	1	5	match	petit	5	1	y	0.67165
152.8939	0.2	jwq	19	noun	phrase	1	6	match	petit	5	1	y	0.67165
153.09380000000002	0.0	+	19	noun	phrase	1	7	match	petit	5	1	y	0.67165
153.4937	0.2	wfclmhx	19	noun	phrase	1	8	match	petit	5	1	y	0.67165
153.6936	0.0	+	19	noun	phrase	1	9	match	petit	5	1	y	0.67165
154.0934	0.2	petit	19	noun	phrase	1	10	match	petit	5	1	y	0.67165
154.2935	0.0	+	19	noun	phrase	1	11	match	petit	5	1	y	0.67165
154.69310000000002	0.0	+	19	noun	phrase	1	12	match	petit	5	1	y	0.67165
156.6922	0.0	PETIT	19	noun	phrase	1	13	match	petit	5	1	y	0.67165
157.4252	0.0	+	19	noun	phrase	1	14	match	petit	5	1	y	0.67165
157.3639	0.0	[response]	19	noun	phrase	1	15	match	petit	5	1	y	0.67165
159.09120000000001	0.0	+	20	verb	list	3	1	nomatch	moins	-1	1	p	0.79893
159.64090000000002	0.2	vjwp	20	verb	list	3	2	nomatch	moins	-1	1	p	0.79893
159.8409	0.0	+	20	verb	list	3	3	nomatch	moins	-1	1	p	0.79893
160.2407	0.2	jdlv	20	verb	list	3	4	nomatch	moins	-1	1	p	0.79893
160.4406	0.0	+	20	verb	list	3	5	nomatch	moins	-1	1	p	0.79893
160.84040000000002	0.2	son	20	verb	list	3	6	nomatch	moins	-1	1	p	0.79893
161.0403	0.0	+	20	verb	list	3	7	nomatch	moins	-1	1	p	0.79893
161.4401	0.2	parader	20	verb	list	3	8	nomatch	moins	-1	1	p	0.79893
161.64000000000001	0.0	+	20	verb	list	3	9	nomatch	moins	-1	1	p	0.79893
162.0399	0.2	rouge	20	verb	list	3	10	nomatch	moins	-1	1	p	0.79893
162.2398	0.0	+	20	verb	list	3	11	nomatch	moins	-1	1	p	0.79893
162.6396	0.0	+	20	verb	list	3	12	nomatch	moins	-1	1	p	0.79893
164.6387	0.0	MOINS	20	verb	list	3	13	nomatch	moins	-1	1	p	0.79893
165.505	0.0	+	20	verb	list	3	14	nomatch	moins	-1	1	p	0.79893
165.43770000000004	0.0	[response]	20	verb	list	3	15	nomatch	moins	-1	1	p	0.79893
167.0377	0.0	+	21	noun	phrase	1	1	match	nouveau	5	1	y	0.63112
167.5874	0.2	fxk	21	noun	phrase	1	2	match	nouveau	5	1	y	0.63112
167.78730000000002	0.0	+	21	noun	phrase	1	3	match	nouveau	5	1	y	0.63112
168.1872	0.2	bldw	21	noun	phrase	1	4	match	nouveau	5	1	y	0.63112
168.3871	0.0	+	21	noun	phrase	1	5	match	nouveau	5	1	y	0.63112
168.7869	0.2	jvp	21	noun	phrase	1	6	match	nouveau	5	1	y	0.63112
168.98680000000002	0.0	+	21	noun	phrase	1	7	match	nouveau	5	1	y	0.63112
169.38660000000002	0.2	hfjwbdx	21	noun	phrase	1	8	match	nouveau	5	1	y	0.63112
169.5865	0.0	+	21	noun	phrase	1	9	match	nouveau	5	1	y	0.63112
169.9864	0.2	nouveau	21	noun	phrase	1	10	match	nouveau	5	1	y	0.63112
170.18630000000002	0.0	+	21	noun	phrase	1	11	match	nouveau	5	1	y	0.63112
170.58610000000002	0.0	+	21	noun	phrase	1	12	match	nouveau	5	1	y	0.63112
172.58520000000001	0.0	NOUVEAU	21	noun	phrase	1	13	match	nouveau	5	1	y	0.63112
173.2682	0.0	+	21	noun	phrase	1	14	match	nouveau	5	1	y	0.63112
173.2163	0.0	[response]	21	noun	phrase	1	15	match	nouveau	5	1	y	0.63112
174.9841	0.0	+	22	verb	phrase	1	1	nomatch	trop	-1	1	p	1.4116
175.5506	0.2	xwgzbrl	22	verb	phrase	1	2	nomatch	trop	-1	1	p	1.4116
175.7339	0.0	+	22	verb	phrase	1	3	nomatch	trop	-1	1	p	1.4116
176.15030000000002	0.2	tnwf	22	verb	phrase	1	4	nomatch	trop	-1	1	p	1.4116
176.3502	0.0	+	22	verb	phrase	1	5	nomatch	trop	-1	1	p	1.4116
176.75	0.2	kw	22	verb	phrase	1	6	nomatch	trop	-1	1	p	1.4116
176.9499	0.0	+	22	verb	phrase	1	7	nomatch	trop	-1	1	p	1.4116
177.35	0.2	lrmsdpq	22	verb	phrase	1	8	nomatch	trop	-1	1	p	1.4116
177.5497	0.0	+	22	verb	phrase	1	9	nomatch	trop	-1	1	p	1.4116
177.9495	0.2	mieux	22	verb	phrase	1	10	nomatch	trop	-1	1	p	1.4116
178.1494	0.0	+	22	verb	phrase	1	11	nomatch	trop	-1	1	p	1.4116
178.5492	0.0	+	22	verb	phrase	1	12	nomatch	trop	-1	1	p	1.4116
180.5483	0.0	TROP	22	verb	phrase	1	13	nomatch	trop	-1	1	p	1.4116
182.0144	0.0	+	22	verb	phrase	1	14	nomatch	trop	-1	1	p	1.4116
181.9599	0.0	[response]	22	verb	phrase	1	15	nomatch	trop	-1	1	p	1.4116
182.9473	0.0	+	23	noun	list	4	1	nomatch	leur	-1	1	p	0.65495
183.497	0.2	vhgtks	23	noun	list	4	2	nomatch	leur	-1	1	p	0.65495
183.6969	0.0	+	23	noun	list	4	3	nomatch	leur	-1	1	p	0.65495
184.0968	0.2	sans	23	noun	list	4	4	nomatch	leur	-1	1	p	0.65495
184.29670000000002	0.0	+	23	noun	list	4	5	nomatch	leur	-1	1	p	0.65495
184.69650000000001	0.2	doit	23	noun	list	4	6	nomatch	leur	-1	1	p	0.65495
184.8964	0.0	+	23	noun	list	4	7	nomatch	leur	-1	1	p	0.65495
185.2962	0.2	clavier	23	noun	list	4	8	nomatch	leur	-1	1	p	0.65495
185.4961	0.0	+	23	noun	list	4	9	nomatch	leur	-1	1	p	0.65495
185.89600000000002	0.2	tard	23	noun	list	4	10	nomatch	leur	-1	1	p	0.65495
186.0959	0.0	+	23	noun	list	4	11	nomatch	leur	-1	1	p	0.65495
186.4957	0.0	+	23	noun	list	4	12	nomatch	leur	-1	1	p	0.65495
188.4948	0.0	LEUR	23	noun	list	4	13	nomatch	leur	-1	1	p	0.65495
189.2112	0.0	+	23	noun	list	4	14	nomatch	leur	-1	1	p	0.65495
189.1498	0.0	[response]	23	noun	list	4	15	nomatch	leur	-1	1	p	0.65495
190.8938	0.0	+	24	verb	phrase	3	1	nomatch	dans	-1	1	p	1.214
191.4435	0.2	vtqs	24	verb	phrase	3	2	nomatch	dans	-1	1	p	1.214
191.6435	0.0	+	24	verb	phrase	3	3	nomatch	dans	-1	1	p	1.214
192.04330000000002	0.2	jvbz	24	verb	phrase	3	4	nomatch	dans	-1	1	p	1.214
192.2432	0.0	+	24	verb	phrase	3	5	nomatch	dans	-1	1	p	1.214
192.643	0.2	va	24	verb	phrase	3	6	nomatch	dans	-1	1	p	1.214
192.84290000000001	0.0	+	24	verb	phrase	3	7	nomatch	dans	-1	1	p	1.214
193.2427	0.2	trop	24	verb	phrase	3	8	nomatch	dans	-1	1	p	1.214
193.4426	0.0	+	24	verb	phrase	3	9	nomatch	dans	-1	1	p	1.214
193.8425	0.2	danser	24	verb	phrase	3	10	nomatch	dans	-1	1	p	1.214
194.04240000000001	0.0	+	24	verb	phrase	3	11	nomatch	dans	-1	1	p	1.214
194.4422	0.0	+	24	verb	phrase	3	12	nomatch	dans	-1	1	p	1.214
196.4413	0.0	DANS	24	verb	phrase	3	13	nomatch	dans	-1	1	p	1.214
197.7074	0.0	+	24	verb	phrase	3	14	nomatch	dans	-1	1	p	1.214
197.65540000000001	0.0	[response]	24	verb	phrase	3	15	nomatch	dans	-1	1	p	1.214
206.8367	0.0	+	25	noun	phrase	4	1	nomatch	nager	-1	1	p	0.83406
207.3865	0.2	xhtqbml	25	noun	phrase	4	2	nomatch	nager	-1	1	p	0.83406
207.58640000000003	0.0	+	25	noun	phrase	4	3	nomatch	nager	-1	1	p	0.83406
207.9862	0.2	vers	25	noun	phrase	4	4	nomatch	nager	-1	1	p	0.83406
208.1861	0.0	+	25	noun	phrase	4	5	nomatch	nager	-1	1	p	0.83406
208.58589999999998	0.2	son	25	noun	phrase	4	6	nomatch	nager	-1	1	p	0.83406
208.7858	0.0	+	25	noun	phrase	4	7	nomatch	nager	-1	1	p	0.83406
209.1857	0.2	boîtier	25	noun	phrase	4	8	nomatch	nager	-1	1	p	0.83406
209.3856	0.0	+	25	noun	phrase	4	9	nomatch	nager	-1	1	p	0.83406
209.78539999999998	0.2	noir	25	noun	phrase	4	10	nomatch	nager	-1	1	p	0.83406
209.9857	0.0	+	25	noun	phrase	4	11	nomatch	nager	-1	1	p	0.83406
210.38510000000002	0.0	+	25	noun	phrase	4	12	nomatch	nager	-1	1	p	0.83406
212.3843	0.0	NAGER	25	noun	phrase	4	13	nomatch	nager	-1	1	p	0.83406
213.28379999999999	0.0	+	25	noun	phrase	4	14	nomatch	nager	-1	1	p	0.83406
213.21830000000006	0.0	[response]	25	noun	phrase	4	15	nomatch	nager	-1	1	p	0.83406
214.7998	0.0	+	26	noun	list	3	1	match	rocher	5	1	y	0.70083
215.3496	0.2	skl	26	noun	list	3	2	match	rocher	5	1	y	0.70083
215.54950000000002	0.0	+	26	noun	list	3	3	match	rocher	5	1	y	0.70083
215.9493	0.2	bcs	26	noun	list	3	4	match	rocher	5	1	y	0.70083
216.1492	0.0	+	26	noun	list	3	5	match	rocher	5	1	y	0.70083
216.5491	0.2	leur	26	noun	list	3	6	match	rocher	5	1	y	0.70083
216.74900000000002	0.0	+	26	noun	list	3	7	match	rocher	5	1	y	0.70083
217.1488	0.2	moins	26	noun	list	3	8	match	rocher	5	1	y	0.70083
217.3487	0.0	+	26	noun	list	3	9	match	rocher	5	1	y	0.70083
217.74849999999998	0.2	rocher	26	noun	list	3	10	match	rocher	5	1	y	0.70083
217.9484	0.0	+	26	noun	list	3	11	match	rocher	5	1	y	0.70083
218.3487	0.0	+	26	noun	list	3	12	match	rocher	5	1	y	0.70083
220.3474	0.0	ROCHER	26	noun	list	3	13	match	rocher	5	1	y	0.70083
221.1137	0.0	+	26	noun	list	3	14	match	rocher	5	1	y	0.70083
221.04829999999998	0.0	[response]	26	noun	list	3	15	match	rocher	5	1	y	0.70083
222.74630000000002	0.0	+	27	verb	list	1	1	nomatch	beau	-1	1	p	1.7838
223.29610000000002	0.2	jnf	27	verb	list	1	2	nomatch	beau	-1	1	p	1.7838
223.49599999999998	0.0	+	27	verb	list	1	3	nomatch	beau	-1	1	p	1.7838
223.8958	0.2	wtx	27	verb	list	1	4	nomatch	beau	-1	1	p	1.7838
224.09570000000002	0.0	+	27	verb	list	1	5	nomatch	beau	-1	1	p	1.7838
224.4955	0.2	kw	27	verb	list	1	6	nomatch	beau	-1	1	p	1.7838
224.69549999999998	0.0	+	27	verb	list	1	7	nomatch	beau	-1	1	p	1.7838
225.0953	0.2	vjdtclw	27	verb	list	1	8	nomatch	beau	-1	1	p	1.7838
225.29520000000002	0.0	+	27	verb	list	1	9	nomatch	beau	-1	1	p	1.7838
225.695	0.2	petit	27	verb	list	1	10	nomatch	beau	-1	1	p	1.7838
225.8949	0.0	+	27	verb	list	1	11	nomatch	beau	-1	1	p	1.7838
226.2948	0.0	+	27	verb	list	1	12	nomatch	beau	-1	1	p	1.7838
228.2939	0.0	BEAU	27	verb	list	1	13	nomatch	beau	-1	1	p	1.7838
230.14300000000003	0.0	+	27	verb	list	1	14	nomatch	beau	-1	1	p	1.7838
230.07760000000002	0.0	[response]	27	verb	list	1	15	nomatch	beau	-1	1	p	1.7838
246.6857	0.0	+	28	noun	phrase	2	1	nomatch	rocher	-1	1	p	1.7531
247.2355	0.2	qlb	28	noun	phrase	2	2	nomatch	rocher	-1	1	p	1.7531
247.43540000000002	0.0	+	28	noun	phrase	2	3	nomatch	rocher	-1	1	p	1.7531
247.8352	0.2	dnmw	28	noun	phrase	2	4	nomatch	rocher	-1	1	p	1.7531
248.0351	0.0	+	28	noun	phrase	2	5	nomatch	rocher	-1	1	p	1.7531
248.43490000000003	0.2	jwq	28	noun	phrase	2	6	nomatch	rocher	-1	1	p	1.7531
248.63490000000002	0.0	+	28	noun	phrase	2	7	nomatch	rocher	-1	1	p	1.7531
249.0347	0.2	voilier	28	noun	phrase	2	8	nomatch	rocher	-1	1	p	1.7531
249.2346	0.0	+	28	noun	phrase	2	9	nomatch	rocher	-1	1	p	1.7531
249.63440000000003	0.2	bleu	28	noun	phrase	2	10	nomatch	rocher	-1	1	p	1.7531
249.83429999999998	0.0	+	28	noun	phrase	2	11	nomatch	rocher	-1	1	p	1.7531
250.2342	0.0	+	28	noun	phrase	2	12	nomatch	rocher	-1	1	p	1.7531
252.24990000000003	0.0	ROCHER	28	noun	phrase	2	13	nomatch	rocher	-1	1	p	1.7531
254.06580000000002	0.0	+	28	noun	phrase	2	14	nomatch	rocher	-1	1	p	1.7531
254.00310000000002	0.0	[response]	28	noun	phrase	2	15	nomatch	rocher	-1	1	p	1.7531
254.64890000000003	0.0	+	29	noun	phrase	1	1	nomatch	clavier	-1	1	p	0.7193700000000001
255.1986	0.2	bcmhps	29	noun	phrase	1	2	nomatch	clavier	-1	1	p	0.7193700000000001
255.3985	0.0	+	29	noun	phrase	1	3	nomatch	clavier	-1	1	p	0.7193700000000001
255.79840000000002	0.2	cfhm	29	noun	phrase	1	4	nomatch	clavier	-1	1	p	0.7193700000000001
255.99830000000003	0.0	+	29	noun	phrase	1	5	nomatch	clavier	-1	1	p	0.7193700000000001
256.3981	0.2	jvp	29	noun	phrase	1	6	nomatch	clavier	-1	1	p	0.7193700000000001
256.598	0.0	+	29	noun	phrase	1	7	nomatch	clavier	-1	1	p	0.7193700000000001
256.9978	0.2	kljsn	29	noun	phrase	1	8	nomatch	clavier	-1	1	p	0.7193700000000001
257.1977	0.0	+	29	noun	phrase	1	9	nomatch	clavier	-1	1	p	0.7193700000000001
257.5976	0.2	casier	29	noun	phrase	1	10	nomatch	clavier	-1	1	p	0.7193700000000001
257.7975	0.0	+	29	noun	phrase	1	11	nomatch	clavier	-1	1	p	0.7193700000000001
258.1973	0.0	+	29	noun	phrase	1	12	nomatch	clavier	-1	1	p	0.7193700000000001
260.1964	0.0	CLAVIER	29	noun	phrase	1	13	nomatch	clavier	-1	1	p	0.7193700000000001
260.9794	0.0	+	29	noun	phrase	1	14	nomatch	clavier	-1	1	p	0.7193700000000001
260.9158	0.0	[response]	29	noun	phrase	1	15	nomatch	clavier	-1	1	p	0.7193700000000001
262.5953	0.0	+	30	noun	list	4	1	match	son	3	1	y	0.68691
263.1451	0.2	jqsh	30	noun	list	4	2	match	son	3	1	y	0.68691
263.345	0.0	+	30	noun	list	4	3	match	son	3	1	y	0.68691
263.7448	0.2	yves	30	noun	list	4	4	match	son	3	1	y	0.68691
263.9447	0.0	+	30	noun	list	4	5	match	son	3	1	y	0.68691
264.3447	0.2	son	30	noun	list	4	6	match	son	3	1	y	0.68691
264.5445	0.0	+	30	noun	list	4	7	match	son	3	1	y	0.68691
264.9443	0.2	plus	30	noun	list	4	8	match	son	3	1	y	0.68691
265.1442	0.0	+	30	noun	list	4	9	match	son	3	1	y	0.68691
265.544	0.2	tablier	30	noun	list	4	10	match	son	3	1	y	0.68691
265.744	0.0	+	30	noun	list	4	11	match	son	3	1	y	0.68691
266.1438	0.0	+	30	noun	list	4	12	match	son	3	1	y	0.68691
268.1429	0.0	SON	30	noun	list	4	13	match	son	3	1	y	0.68691
268.8926	0.0	+	30	noun	list	4	14	match	son	3	1	y	0.68691
268.8298	0.0	[response]	30	noun	list	4	15	match	son	3	1	y	0.68691
270.5418	0.0	+	31	noun	list	3	1	match	peut	3	1	y	0.8191
271.0916	0.2	zfjg	31	noun	list	3	2	match	peut	3	1	y	0.8191
271.2915	0.0	+	31	noun	list	3	3	match	peut	3	1	y	0.8191
271.6913	0.2	wtx	31	noun	list	3	4	match	peut	3	1	y	0.8191
271.8912	0.0	+	31	noun	list	3	5	match	peut	3	1	y	0.8191
272.291	0.2	peut	31	noun	list	3	6	match	peut	3	1	y	0.8191
272.491	0.0	+	31	noun	list	3	7	match	peut	3	1	y	0.8191
272.8908	0.2	cendrier	31	noun	list	3	8	match	peut	3	1	y	0.8191
273.0907	0.0	+	31	noun	list	3	9	match	peut	3	1	y	0.8191
273.4905	0.2	ainsi	31	noun	list	3	10	match	peut	3	1	y	0.8191
273.6904	0.0	+	31	noun	list	3	11	match	peut	3	1	y	0.8191
274.0903	0.0	+	31	noun	list	3	12	match	peut	3	1	y	0.8191
276.0894	0.0	PEUT	31	noun	list	3	13	match	peut	3	1	y	0.8191
276.9723	0.0	+	31	noun	list	3	14	match	peut	3	1	y	0.8191
276.9085	0.0	[response]	31	noun	list	3	15	match	peut	3	1	y	0.8191
278.4883	0.0	+	32	noun	phrase	3	1	match	beau	4	0	p	1.2067
279.0381	0.2	lkrxf	32	noun	phrase	3	2	match	beau	4	0	p	1.2067
279.238	0.0	+	32	noun	phrase	3	3	match	beau	4	0	p	1.2067
279.6378	0.2	bldw	32	noun	phrase	3	4	match	beau	4	0	p	1.2067
279.8377	0.0	+	32	noun	phrase	3	5	match	beau	4	0	p	1.2067
280.2375	0.2	son	32	noun	phrase	3	6	match	beau	4	0	p	1.2067
280.4374	0.0	+	32	noun	phrase	3	7	match	beau	4	0	p	1.2067
280.8373	0.2	beau	32	noun	phrase	3	8	match	beau	4	0	p	1.2067
281.0372	0.0	+	32	noun	phrase	3	9	match	beau	4	0	p	1.2067
281.437	0.2	voilier	32	noun	phrase	3	10	match	beau	4	0	p	1.2067
281.6369	0.0	+	32	noun	phrase	3	11	match	beau	4	0	p	1.2067
282.0367	0.0	+	32	noun	phrase	3	12	match	beau	4	0	p	1.2067
284.0359	0.0	BEAU	32	noun	phrase	3	13	match	beau	4	0	p	1.2067
285.302	0.0	+	32	noun	phrase	3	14	match	beau	4	0	p	1.2067
285.2426	0.0	[response]	32	noun	phrase	3	15	match	beau	4	0	p	1.2067
286.4348	0.0	+	33	noun	list	1	1	nomatch	blanc	-1	1	p	1.1216
286.9845	0.2	dqhxz	33	noun	list	1	2	nomatch	blanc	-1	1	p	1.1216
287.1845	0.0	+	33	noun	list	1	3	nomatch	blanc	-1	1	p	1.1216
287.5847	0.2	wtx	33	noun	list	1	4	nomatch	blanc	-1	1	p	1.1216
287.7842	0.0	+	33	noun	list	1	5	nomatch	blanc	-1	1	p	1.1216
288.184	0.2	vdfh	33	noun	list	1	6	nomatch	blanc	-1	1	p	1.1216
288.3839	0.0	+	33	noun	list	1	7	nomatch	blanc	-1	1	p	1.1216
288.8004	0.2	csjvltx	33	noun	list	1	8	nomatch	blanc	-1	1	p	1.1216
289.0003	0.0	+	33	noun	list	1	9	nomatch	blanc	-1	1	p	1.1216
289.4001	0.2	vite	33	noun	list	1	10	nomatch	blanc	-1	1	p	1.1216
289.6001	0.0	+	33	noun	list	1	11	nomatch	blanc	-1	1	p	1.1216
289.9999	0.0	+	33	noun	list	1	12	nomatch	blanc	-1	1	p	1.1216
291.999	0.0	BLANC	33	noun	list	1	13	nomatch	blanc	-1	1	p	1.1216
293.1818	0.0	+	33	noun	list	1	14	nomatch	blanc	-1	1	p	1.1216
293.1206	0.0	[response]	33	noun	list	1	15	nomatch	blanc	-1	1	p	1.1216
294.3979	0.0	+	34	noun	phrase	1	1	match	clavier	5	1	y	1.4333
294.9477	0.2	szqn	34	noun	phrase	1	2	match	clavier	5	1	y	1.4333
295.1476	0.0	+	34	noun	phrase	1	3	match	clavier	5	1	y	1.4333
295.5474	0.2	mfdt	34	noun	phrase	1	4	match	clavier	5	1	y	1.4333
295.7473	0.0	+	34	noun	phrase	1	5	match	clavier	5	1	y	1.4333
296.1472	0.2	gkpq	34	noun	phrase	1	6	match	clavier	5	1	y	1.4333
296.3476	0.0	+	34	noun	phrase	1	7	match	clavier	5	1	y	1.4333
296.7469	0.2	rxlhqcw	34	noun	phrase	1	8	match	clavier	5	1	y	1.4333
296.9468	0.0	+	34	noun	phrase	1	9	match	clavier	5	1	y	1.4333
297.3466	0.2	clavier	34	noun	phrase	1	10	match	clavier	5	1	y	1.4333
297.5465	0.0	+	34	noun	phrase	1	11	match	clavier	5	1	y	1.4333
297.9464	0.0	+	34	noun	phrase	1	12	match	clavier	5	1	y	1.4333
299.9455	0.0	CLAVIER	34	noun	phrase	1	13	match	clavier	5	1	y	1.4333
301.4448	0.0	+	34	noun	phrase	1	14	match	clavier	5	1	y	1.4333
301.3788	0.0	[response]	34	noun	phrase	1	15	match	clavier	5	1	y	1.4333
302.3444	0.0	+	35	verb	list	2	1	nomatch	leur	-1	1	p	0.60518
302.8942	0.2	jknlcfq	35	verb	list	2	2	nomatch	leur	-1	1	p	0.60518
303.0941	0.0	+	35	verb	list	2	3	nomatch	leur	-1	1	p	0.60518
303.4939	0.2	mqnx	35	verb	list	2	4	nomatch	leur	-1	1	p	0.60518
303.6938	0.0	+	35	verb	list	2	5	nomatch	leur	-1	1	p	0.60518
304.0936	0.2	jvp	35	verb	list	2	6	nomatch	leur	-1	1	p	0.60518
304.2935	0.0	+	35	verb	list	2	7	nomatch	leur	-1	1	p	0.60518
304.6934	0.2	rouler	35	verb	list	2	8	nomatch	leur	-1	1	p	0.60518
304.8933	0.0	+	35	verb	list	2	9	nomatch	leur	-1	1	p	0.60518
305.2931	0.2	noir	35	verb	list	2	10	nomatch	leur	-1	1	p	0.60518
305.493	0.0	+	35	verb	list	2	11	nomatch	leur	-1	1	p	0.60518
305.8928	0.0	+	35	verb	list	2	12	nomatch	leur	-1	1	p	0.60518
307.892	0.0	LEUR	35	verb	list	2	13	nomatch	leur	-1	1	p	0.60518
308.55830000000003	0.0	+	35	verb	list	2	14	nomatch	leur	-1	1	p	0.60518
308.49710000000005	0.0	[response]	35	verb	list	2	15	nomatch	leur	-1	1	p	0.60518
318.2873	0.0	+	36	noun	phrase	1	1	nomatch	bleu	-1	1	p	0.56284
318.8371	0.2	wkrxqnf	36	noun	phrase	1	2	nomatch	bleu	-1	1	p	0.56284
319.037	0.0	+	36	noun	phrase	1	3	nomatch	bleu	-1	1	p	0.56284
319.4368	0.2	dnmw	36	noun	phrase	1	4	nomatch	bleu	-1	1	p	0.56284
319.6367	0.0	+	36	noun	phrase	1	5	nomatch	bleu	-1	1	p	0.56284
320.0366	0.2	jwq	36	noun	phrase	1	6	nomatch	bleu	-1	1	p	0.56284
320.2365	0.0	+	36	noun	phrase	1	7	nomatch	bleu	-1	1	p	0.56284
320.6363	0.2	rlhdn	36	noun	phrase	1	8	nomatch	bleu	-1	1	p	0.56284
320.8362	0.0	+	36	noun	phrase	1	9	nomatch	bleu	-1	1	p	0.56284
321.236	0.2	rocher	36	noun	phrase	1	10	nomatch	bleu	-1	1	p	0.56284
321.436	0.0	+	36	noun	phrase	1	11	nomatch	bleu	-1	1	p	0.56284
321.8358	0.0	+	36	noun	phrase	1	12	nomatch	bleu	-1	1	p	0.56284
323.8349	0.0	BLEU	36	noun	phrase	1	13	nomatch	bleu	-1	1	p	0.56284
324.4513	0.0	+	36	noun	phrase	1	14	nomatch	bleu	-1	1	p	0.56284
324.3977	0.0	[response]	36	noun	phrase	1	15	nomatch	bleu	-1	1	p	0.56284
326.23380000000003	0.0	+	37	verb	phrase	2	1	nomatch	beaucoup	-1	1	p	0.8472800000000001
326.8003	0.2	nvm	37	verb	phrase	2	2	nomatch	beaucoup	-1	1	p	0.8472800000000001
327.0002	0.0	+	37	verb	phrase	2	3	nomatch	beaucoup	-1	1	p	0.8472800000000001
327.4	0.2	jvbz	37	verb	phrase	2	4	nomatch	beaucoup	-1	1	p	0.8472800000000001
327.5999	0.0	+	37	verb	phrase	2	5	nomatch	beaucoup	-1	1	p	0.8472800000000001
327.9997	0.2	kw	37	verb	phrase	2	6	nomatch	beaucoup	-1	1	p	0.8472800000000001
328.1996	0.0	+	37	verb	phrase	2	7	nomatch	beaucoup	-1	1	p	0.8472800000000001
328.5995	0.2	mieux	37	verb	phrase	2	8	nomatch	beaucoup	-1	1	p	0.8472800000000001
328.7994	0.0	+	37	verb	phrase	2	9	nomatch	beaucoup	-1	1	p	0.8472800000000001
329.1992	0.2	parader	37	verb	phrase	2	10	nomatch	beaucoup	-1	1	p	0.8472800000000001
329.3991	0.0	+	37	verb	phrase	2	11	nomatch	beaucoup	-1	1	p	0.8472800000000001
329.7989	0.0	+	37	verb	phrase	2	12	nomatch	beaucoup	-1	1	p	0.8472800000000001
331.798	0.0	BEAUCOUP	37	verb	phrase	2	13	nomatch	beaucoup	-1	1	p	0.8472800000000001
332.6976	0.0	+	37	verb	phrase	2	14	nomatch	beaucoup	-1	1	p	0.8472800000000001
332.6453	0.0	[response]	37	verb	phrase	2	15	nomatch	beaucoup	-1	1	p	0.8472800000000001
334.197	0.0	+	38	noun	phrase	2	1	match	bleu	5	1	y	1.5702
334.7467	0.2	mshlwtx	38	noun	phrase	2	2	match	bleu	5	1	y	1.5702
334.9466	0.0	+	38	noun	phrase	2	3	match	bleu	5	1	y	1.5702
335.3469	0.2	cfhm	38	noun	phrase	2	4	match	bleu	5	1	y	1.5702
335.5464	0.0	+	38	noun	phrase	2	5	match	bleu	5	1	y	1.5702
335.9462	0.2	gkpq	38	noun	phrase	2	6	match	bleu	5	1	y	1.5702
336.1461	0.0	+	38	noun	phrase	2	7	match	bleu	5	1	y	1.5702
336.5459	0.2	clavier	38	noun	phrase	2	8	match	bleu	5	1	y	1.5702
336.74580000000003	0.0	+	38	noun	phrase	2	9	match	bleu	5	1	y	1.5702
337.1457	0.2	bleu	38	noun	phrase	2	10	match	bleu	5	1	y	1.5702
337.3461	0.0	+	38	noun	phrase	2	11	match	bleu	5	1	y	1.5702
337.7454	0.0	+	38	noun	phrase	2	12	match	bleu	5	1	y	1.5702
339.7445	0.0	BLEU	38	noun	phrase	2	13	match	bleu	5	1	y	1.5702
341.3771	0.0	+	38	noun	phrase	2	14	match	bleu	5	1	y	1.5702
341.3147	0.0	[response]	38	noun	phrase	2	15	match	bleu	5	1	y	1.5702
342.1435	0.0	+	39	verb	list	4	1	match	son	3	1	y	0.60388
342.69350000000003	0.2	kdvlwg	39	verb	list	4	2	match	son	3	1	y	0.60388
342.8931	0.0	+	39	verb	list	4	3	match	son	3	1	y	0.60388
343.2932	0.2	jean	39	verb	list	4	4	match	son	3	1	y	0.60388
343.4929	0.0	+	39	verb	list	4	5	match	son	3	1	y	0.60388
343.8927	0.2	son	39	verb	list	4	6	match	son	3	1	y	0.60388
344.0926	0.0	+	39	verb	list	4	7	match	son	3	1	y	0.60388
344.4924	0.2	voyager	39	verb	list	4	8	match	son	3	1	y	0.60388
344.6923	0.0	+	39	verb	list	4	9	match	son	3	1	y	0.60388
345.0922	0.2	noir	39	verb	list	4	10	match	son	3	1	y	0.60388
345.2921	0.0	+	39	verb	list	4	11	match	son	3	1	y	0.60388
345.6921	0.0	+	39	verb	list	4	12	match	son	3	1	y	0.60388
347.69100000000003	0.0	SON	39	verb	list	4	13	match	son	3	1	y	0.60388
348.3574	0.0	+	39	verb	list	4	14	match	son	3	1	y	0.60388
348.2949	0.0	[response]	39	verb	list	4	15	match	son	3	1	y	0.60388
350.0899	0.0	+	40	noun	phrase	4	1	match	leur	3	0	TIMEOUT	-1.0
350.6397	0.2	bxhftp	40	noun	phrase	4	2	match	leur	3	0	TIMEOUT	-1.0
350.8396	0.0	+	40	noun	phrase	4	3	match	leur	3	0	TIMEOUT	-1.0
351.2394	0.2	pour	40	noun	phrase	4	4	match	leur	3	0	TIMEOUT	-1.0
351.4393	0.0	+	40	noun	phrase	4	5	match	leur	3	0	TIMEOUT	-1.0
351.8393	0.2	leur	40	noun	phrase	4	6	match	leur	3	0	TIMEOUT	-1.0
352.0391	0.0	+	40	noun	phrase	4	7	match	leur	3	0	TIMEOUT	-1.0
352.4389	0.2	nouveau	40	noun	phrase	4	8	match	leur	3	0	TIMEOUT	-1.0
352.6388	0.0	+	40	noun	phrase	4	9	match	leur	3	0	TIMEOUT	-1.0
353.03860000000003	0.2	tablier	40	noun	phrase	4	10	match	leur	3	0	TIMEOUT	-1.0
353.2385	0.0	+	40	noun	phrase	4	11	match	leur	3	0	TIMEOUT	-1.0
353.6384	0.0	+	40	noun	phrase	4	12	match	leur	3	0	TIMEOUT	-1.0
355.6375	0.0	LEUR	40	noun	phrase	4	13	match	leur	3	0	TIMEOUT	-1.0
358.0364	0.0	+	41	noun	list	1	1	nomatch	boîtier	-1	0	TIMEOUT	-1.0
358.63620000000003	0.2	kbcxn	41	noun	list	1	2	nomatch	boîtier	-1	0	TIMEOUT	-1.0
358.8361	0.0	+	41	noun	list	1	3	nomatch	boîtier	-1	0	TIMEOUT	-1.0
359.2359	0.2	jvbz	41	noun	list	1	4	nomatch	boîtier	-1	0	TIMEOUT	-1.0
359.43580000000003	0.0	+	41	noun	list	1	5	nomatch	boîtier	-1	0	TIMEOUT	-1.0
359.8356	0.2	jvp	41	noun	list	1	6	nomatch	boîtier	-1	0	TIMEOUT	-1.0
360.0355	0.0	+	41	noun	list	1	7	nomatch	boîtier	-1	0	TIMEOUT	-1.0
360.4354	0.2	cwmn	41	noun	list	1	8	nomatch	boîtier	-1	0	TIMEOUT	-1.0
360.63530000000003	0.0	+	41	noun	list	1	9	nomatch	boîtier	-1	0	TIMEOUT	-1.0
361.0351	0.2	rocher	41	noun	list	1	10	nomatch	boîtier	-1	0	TIMEOUT	-1.0
361.235	0.0	+	41	noun	list	1	11	nomatch	boîtier	-1	0	TIMEOUT	-1.0
361.6348	0.0	+	41	noun	list	1	12	nomatch	boîtier	-1	0	TIMEOUT	-1.0
363.6339	0.0	BOÎTIER	41	noun	list	1	13	nomatch	boîtier	-1	0	TIMEOUT	-1.0
366.0496	0.0	+	42	noun	phrase	3	1	match	cendrier	5	1	y	0.50537
366.6493	0.2	jzx	42	noun	phrase	3	2	match	cendrier	5	1	y	0.50537
366.8492	0.0	+	42	noun	phrase	3	3	match	cendrier	5	1	y	0.50537
367.249	0.2	cfhm	42	noun	phrase	3	4	match	cendrier	5	1	y	0.50537
367.4489	0.0	+	42	noun	phrase	3	5	match	cendrier	5	1	y	0.50537
367.8487	0.2	leur	42	noun	phrase	3	6	match	cendrier	5	1	y	0.50537
368.0486	0.0	+	42	noun	phrase	3	7	match	cendrier	5	1	y	0.50537
368.4485	0.2	petit	42	noun	phrase	3	8	match	cendrier	5	1	y	0.50537
368.6484	0.0	+	42	noun	phrase	3	9	match	cendrier	5	1	y	0.50537
369.0482	0.2	cendrier	42	noun	phrase	3	10	match	cendrier	5	1	y	0.50537
369.2481	0.0	+	42	noun	phrase	3	11	match	cendrier	5	1	y	0.50537
369.6479	0.0	+	42	noun	phrase	3	12	match	cendrier	5	1	y	0.50537
371.6471	0.0	CENDRIER	42	noun	phrase	3	13	match	cendrier	5	1	y	0.50537
372.2135	0.0	+	42	noun	phrase	3	14	match	cendrier	5	1	y	0.50537
372.1524	0.0	[response]	42	noun	phrase	3	15	match	cendrier	5	1	y	0.50537
374.046	0.0	+	43	verb	phrase	2	1	match	mieux	4	1	y	0.43634000000000006
374.5958	0.2	xmgvtqp	43	verb	phrase	2	2	match	mieux	4	1	y	0.43634000000000006
374.7957	0.0	+	43	verb	phrase	2	3	match	mieux	4	1	y	0.43634000000000006
375.1955	0.2	mqnx	43	verb	phrase	2	4	match	mieux	4	1	y	0.43634000000000006
375.3954	0.0	+	43	verb	phrase	2	5	match	mieux	4	1	y	0.43634000000000006
375.7952	0.2	vdfh	43	verb	phrase	2	6	match	mieux	4	1	y	0.43634000000000006
375.9951	0.0	+	43	verb	phrase	2	7	match	mieux	4	1	y	0.43634000000000006
376.395	0.2	mieux	43	verb	phrase	2	8	match	mieux	4	1	y	0.43634000000000006
376.5949	0.0	+	43	verb	phrase	2	9	match	mieux	4	1	y	0.43634000000000006
376.9947	0.2	danser	43	verb	phrase	2	10	match	mieux	4	1	y	0.43634000000000006
377.1946	0.0	+	43	verb	phrase	2	11	match	mieux	4	1	y	0.43634000000000006
377.5944	0.0	+	43	verb	phrase	2	12	match	mieux	4	1	y	0.43634000000000006
379.5935	0.0	MIEUX	43	verb	phrase	2	13	match	mieux	4	1	y	0.43634000000000006
380.0933	0.0	+	43	verb	phrase	2	14	match	mieux	4	1	y	0.43634000000000006
380.0299	0.0	[response]	43	verb	phrase	2	15	match	mieux	4	1	y	0.43634000000000006
389.9889	0.0	+	44	noun	phrase	1	1	match	bleu	5	1	y	0.48743
390.5387	0.2	bcplk	44	noun	phrase	1	2	match	bleu	5	1	y	0.48743
390.7386	0.0	+	44	noun	phrase	1	3	match	bleu	5	1	y	0.48743
391.1384	0.2	cxgm	44	noun	phrase	1	4	match	bleu	5	1	y	0.48743
391.3383	0.0	+	44	noun	phrase	1	5	match	bleu	5	1	y	0.48743
391.7382	0.2	jvp	44	noun	phrase	1	6	match	bleu	5	1	y	0.48743
391.9381	0.0	+	44	noun	phrase	1	7	match	bleu	5	1	y	0.48743
392.3379	0.2	wfclmhx	44	noun	phrase	1	8	match	bleu	5	1	y	0.48743
392.5378	0.0	+	44	noun	phrase	1	9	match	bleu	5	1	y	0.48743
392.9376	0.2	bleu	44	noun	phrase	1	10	match	bleu	5	1	y	0.48743
393.1375	0.0	+	44	noun	phrase	1	11	match	bleu	5	1	y	0.48743
393.5374	0.0	+	44	noun	phrase	1	12	match	bleu	5	1	y	0.48743
395.5366	0.0	BLEU	44	noun	phrase	1	13	match	bleu	5	1	y	0.48743
396.0862	0.0	+	44	noun	phrase	1	14	match	bleu	5	1	y	0.48743
396.024	0.0	[response]	44	noun	phrase	1	15	match	bleu	5	1	y	0.48743
397.9354	0.0	+	45	verb	list	1	1	nomatch	jongler	-1	1	p	1.1825
398.4852	0.2	zbw	45	verb	list	1	2	nomatch	jongler	-1	1	p	1.1825
398.6851	0.0	+	45	verb	list	1	3	nomatch	jongler	-1	1	p	1.1825
399.0854	0.2	mfdt	45	verb	list	1	4	nomatch	jongler	-1	1	p	1.1825
399.2848	0.0	+	45	verb	list	1	5	nomatch	jongler	-1	1	p	1.1825
399.6846	0.2	kw	45	verb	list	1	6	nomatch	jongler	-1	1	p	1.1825
399.8846	0.0	+	45	verb	list	1	7	nomatch	jongler	-1	1	p	1.1825
400.2844	0.2	rxlhqcw	45	verb	list	1	8	nomatch	jongler	-1	1	p	1.1825
400.4843	0.0	+	45	verb	list	1	9	nomatch	jongler	-1	1	p	1.1825
400.8841	0.2	danser	45	verb	list	1	10	nomatch	jongler	-1	1	p	1.1825
401.084	0.0	+	45	verb	list	1	11	nomatch	jongler	-1	1	p	1.1825
401.4839	0.0	+	45	verb	list	1	12	nomatch	jongler	-1	1	p	1.1825
403.4996	0.0	JONGLER	45	verb	list	1	13	nomatch	jongler	-1	1	p	1.1825
404.7491	0.0	+	45	verb	list	1	14	nomatch	jongler	-1	1	p	1.1825
404.68210000000005	0.0	[response]	45	verb	list	1	15	nomatch	jongler	-1	1	p	1.1825
405.8986	0.0	+	46	noun	list	1	1	nomatch	plus	-1	1	p	0.8309
406.4483	0.2	xbwqnvg	46	noun	list	1	2	nomatch	plus	-1	1	p	0.8309
406.64820000000003	0.0	+	46	noun	list	1	3	nomatch	plus	-1	1	p	0.8309
407.048	0.2	jvbz	46	noun	list	1	4	nomatch	plus	-1	1	p	0.8309
407.248	0.0	+	46	noun	list	1	5	nomatch	plus	-1	1	p	0.8309
407.6478	0.2	jwq	46	noun	list	1	6	nomatch	plus	-1	1	p	0.8309
407.8477	0.0	+	46	noun	list	1	7	nomatch	plus	-1	1	p	0.8309
408.2475	0.2	dhrcxv	46	noun	list	1	8	nomatch	plus	-1	1	p	0.8309
408.4474	0.0	+	46	noun	list	1	9	nomatch	plus	-1	1	p	0.8309
408.8472	0.2	mieux	46	noun	list	1	10	nomatch	plus	-1	1	p	0.8309
409.0472	0.0	+	46	noun	list	1	11	nomatch	plus	-1	1	p	0.8309
409.447	0.0	+	46	noun	list	1	12	nomatch	plus	-1	1	p	0.8309
411.4461	0.0	PLUS	46	noun	list	1	13	nomatch	plus	-1	1	p	0.8309
412.329	0.0	+	46	noun	list	1	14	nomatch	plus	-1	1	p	0.8309
412.277	0.0	[response]	46	noun	list	1	15	nomatch	plus	-1	1	p	0.8309
413.845	0.0	+	47	noun	list	4	1	match	moins	4	1	y	0.60295
414.3948	0.2	vwljnkc	47	noun	list	4	2	match	moins	4	1	y	0.60295
414.5947	0.0	+	47	noun	list	4	3	match	moins	4	1	y	0.60295
414.9945	0.2	marc	47	noun	list	4	4	match	moins	4	1	y	0.60295
415.19440000000003	0.0	+	47	noun	list	4	5	match	moins	4	1	y	0.60295
415.5943	0.2	leur	47	noun	list	4	6	match	moins	4	1	y	0.60295
415.7942	0.0	+	47	noun	list	4	7	match	moins	4	1	y	0.60295
416.194	0.2	moins	47	noun	list	4	8	match	moins	4	1	y	0.60295
416.39390000000003	0.0	+	47	noun	list	4	9	match	moins	4	1	y	0.60295
416.7937	0.2	cendrier	47	noun	list	4	10	match	moins	4	1	y	0.60295
416.9937	0.0	+	47	noun	list	4	11	match	moins	4	1	y	0.60295
417.3935	0.0	+	47	noun	list	4	12	match	moins	4	1	y	0.60295
419.3926	0.0	MOINS	47	noun	list	4	13	match	moins	4	1	y	0.60295
420.0589	0.0	+	47	noun	list	4	14	match	moins	4	1	y	0.60295
419.9955	0.0	[response]	47	noun	list	4	15	match	moins	4	1	y	0.60295
421.7915	0.0	+	48	verb	list	4	1	nomatch	doit	-1	1	p	0.98197
422.3413	0.2	htnmrp	48	verb	list	4	2	nomatch	doit	-1	1	p	0.98197
422.5412	0.0	+	48	verb	list	4	3	nomatch	doit	-1	1	p	0.98197
422.9411	0.2	pour	48	verb	list	4	4	nomatch	doit	-1	1	p	0.98197
423.1409	0.0	+	48	verb	list	4	5	nomatch	doit	-1	1	p	0.98197
423.5407	0.2	peut	48	verb	list	4	6	nomatch	doit	-1	1	p	0.98197
423.7407	0.0	+	48	verb	list	4	7	nomatch	doit	-1	1	p	0.98197
424.1405	0.2	vieux	48	verb	list	4	8	nomatch	doit	-1	1	p	0.98197
424.3404	0.0	+	48	verb	list	4	9	nomatch	doit	-1	1	p	0.98197
424.7402	0.2	chasser	48	verb	list	4	10	nomatch	doit	-1	1	p	0.98197
424.94010000000003	0.0	+	48	verb	list	4	11	nomatch	doit	-1	1	p	0.98197
425.3399	0.0	+	48	verb	list	4	12	nomatch	doit	-1	1	p	0.98197
427.33910000000003	0.0	DOIT	48	verb	list	4	13	nomatch	doit	-1	1	p	0.98197
428.3886	0.0	+	48	verb	list	4	14	nomatch	doit	-1	1	p	0.98197
428.321	0.0	[response]	48	verb	list	4	15	nomatch	doit	-1	1	p	0.98197
429.738	0.0	+	49	verb	list	1	1	match	noir	5	1	y	1.726
430.2878	0.2	qjgbhlr	49	verb	list	1	2	match	noir	5	1	y	1.726
430.4877	0.0	+	49	verb	list	1	3	match	noir	5	1	y	1.726
430.8875	0.2	bcs	49	verb	list	1	4	match	noir	5	1	y	1.726
431.0874	0.0	+	49	verb	list	1	5	match	noir	5	1	y	1.726
431.48720000000003	0.2	jwq	49	verb	list	1	6	match	noir	5	1	y	1.726
431.6871	0.0	+	49	verb	list	1	7	match	noir	5	1	y	1.726
432.087	0.2	qxlpftj	49	verb	list	1	8	match	noir	5	1	y	1.726
432.2869	0.0	+	49	verb	list	1	9	match	noir	5	1	y	1.726
432.68670000000003	0.2	noir	49	verb	list	1	10	match	noir	5	1	y	1.726
432.8866	0.0	+	49	verb	list	1	11	match	noir	5	1	y	1.726
433.2864	0.0	+	49	verb	list	1	12	match	noir	5	1	y	1.726
435.2855	0.0	NOIR	49	verb	list	1	13	match	noir	5	1	y	1.726
437.0681	0.0	+	49	verb	list	1	14	match	noir	5	1	y	1.726
437.01160000000004	0.0	[response]	49	verb	list	1	15	match	noir	5	1	y	1.726
437.6845	0.0	+	50	verb	phrase	4	1	nomatch	jongler	-1	1	p	0.69325
438.2342	0.2	jrd	50	verb	phrase	4	2	nomatch	jongler	-1	1	p	0.69325
438.4341	0.0	+	50	verb	phrase	4	3	nomatch	jongler	-1	1	p	0.69325
438.834	0.2	marc	50	verb	phrase	4	4	nomatch	jongler	-1	1	p	0.69325
439.0339	0.0	+	50	verb	phrase	4	5	nomatch	jongler	-1	1	p	0.69325
439.4504	0.2	peut	50	verb	phrase	4	6	nomatch	jongler	-1	1	p	0.69325
439.6503	0.0	+	50	verb	phrase	4	7	nomatch	jongler	-1	1	p	0.69325
440.0501	0.2	trop	50	verb	phrase	4	8	nomatch	jongler	-1	1	p	0.69325
440.25	0.0	+	50	verb	phrase	4	9	nomatch	jongler	-1	1	p	0.69325
440.6498	0.2	chasser	50	verb	phrase	4	10	nomatch	jongler	-1	1	p	0.69325
440.8497	0.0	+	50	verb	phrase	4	11	nomatch	jongler	-1	1	p	0.69325
441.2496	0.0	+	50	verb	phrase	4	12	nomatch	jongler	-1	1	p	0.69325
443.2487	0.0	JONGLER	50	verb	phrase	4	13	nomatch	jongler	-1	1	p	0.69325
443.99830000000003	0.0	+	50	verb	phrase	4	14	nomatch	jongler	-1	1	p	0.69325
443.94190000000003	0.0	[response]	50	verb	phrase	4	15	nomatch	jongler	-1	1	p	0.69325
453.6441	0.0	+	51	verb	phrase	1	1	match	moins	5	1	y	0.61053
454.1938	0.2	jtnmsdl	51	verb	phrase	1	2	match	moins	5	1	y	0.61053
454.3938	0.0	+	51	verb	phrase	1	3	match	moins	5	1	y	0.61053
454.7936	0.2	vdsk	51	verb	phrase	1	4	match	moins	5	1	y	0.61053
454.9935	0.0	+	51	verb	phrase	1	5	match	moins	5	1	y	0.61053
455.3933	0.2	vdfh	51	verb	phrase	1	6	match	moins	5	1	y	0.61053
455.5932	0.0	+	51	verb	phrase	1	7	match	moins	5	1	y	0.61053
455.993	0.2	rlszd	51	verb	phrase	1	8	match	moins	5	1	y	0.61053
456.1929	0.0	+	51	verb	phrase	1	9	match	moins	5	1	y	0.61053
456.5928	0.2	moins	51	verb	phrase	1	10	match	moins	5	1	y	0.61053
456.7927	0.0	+	51	verb	phrase	1	11	match	moins	5	1	y	0.61053
457.1925	0.0	+	51	verb	phrase	1	12	match	moins	5	1	y	0.61053
459.1916	0.0	MOINS	51	verb	phrase	1	13	match	moins	5	1	y	0.61053
459.858	0.0	+	51	verb	phrase	1	14	match	moins	5	1	y	0.61053
459.8022000000001	0.0	[response]	51	verb	phrase	1	15	match	moins	5	1	y	0.61053
461.59060000000005	0.0	+	52	verb	phrase	4	1	nomatch	noir	-1	1	p	0.68351
462.14029999999997	0.2	jrgzqs	52	verb	phrase	4	2	nomatch	noir	-1	1	p	0.68351
462.34020000000004	0.0	+	52	verb	phrase	4	3	nomatch	noir	-1	1	p	0.68351
462.74010000000004	0.2	adam	52	verb	phrase	4	4	nomatch	noir	-1	1	p	0.68351
462.94	0.0	+	52	verb	phrase	4	5	nomatch	noir	-1	1	p	0.68351
463.3398	0.2	doit	52	verb	phrase	4	6	nomatch	noir	-1	1	p	0.68351
463.5397	0.0	+	52	verb	phrase	4	7	nomatch	noir	-1	1	p	0.68351
463.9395	0.2	jongler	52	verb	phrase	4	8	nomatch	noir	-1	1	p	0.68351
464.13939999999997	0.0	+	52	verb	phrase	4	9	nomatch	noir	-1	1	p	0.68351
464.53929999999997	0.2	tard	52	verb	phrase	4	10	nomatch	noir	-1	1	p	0.68351
464.73920000000004	0.0	+	52	verb	phrase	4	11	nomatch	noir	-1	1	p	0.68351
465.13899999999995	0.0	+	52	verb	phrase	4	12	nomatch	noir	-1	1	p	0.68351
467.13809999999995	0.0	NOIR	52	verb	phrase	4	13	nomatch	noir	-1	1	p	0.68351
467.8878	0.0	+	52	verb	phrase	4	14	nomatch	noir	-1	1	p	0.68351
467.82160000000005	0.0	[response]	52	verb	phrase	4	15	nomatch	noir	-1	1	p	0.68351
469.537	0.0	+	53	verb	phrase	3	1	nomatch	vieux	-1	1	p	0.86769
470.0868	0.2	rqbnlhf	53	verb	phrase	3	2	nomatch	vieux	-1	1	p	0.86769
470.28670000000005	0.0	+	53	verb	phrase	3	3	nomatch	vieux	-1	1	p	0.86769
470.68649999999997	0.2	dgtf	53	verb	phrase	3	4	nomatch	vieux	-1	1	p	0.86769
470.88640000000004	0.0	+	53	verb	phrase	3	5	nomatch	vieux	-1	1	p	0.86769
471.28630000000004	0.2	va	53	verb	phrase	3	6	nomatch	vieux	-1	1	p	0.86769
471.4862	0.0	+	53	verb	phrase	3	7	nomatch	vieux	-1	1	p	0.86769
471.886	0.2	trop	53	verb	phrase	3	8	nomatch	vieux	-1	1	p	0.86769
472.0859	0.0	+	53	verb	phrase	3	9	nomatch	vieux	-1	1	p	0.86769
472.48600000000005	0.2	nager	53	verb	phrase	3	10	nomatch	vieux	-1	1	p	0.86769
472.68559999999997	0.0	+	53	verb	phrase	3	11	nomatch	vieux	-1	1	p	0.86769
473.08549999999997	0.0	+	53	verb	phrase	3	12	nomatch	vieux	-1	1	p	0.86769
475.08459999999997	0.0	VIEUX	53	verb	phrase	3	13	nomatch	vieux	-1	1	p	0.86769
476.0175	0.0	+	53	verb	phrase	3	14	nomatch	vieux	-1	1	p	0.86769
475.9523000000001	0.0	[response]	53	verb	phrase	3	15	nomatch	vieux	-1	1	p	0.86769
485.4967	0.0	+	54	noun	phrase	4	1	match	avec	2	1	y	0.60007
486.0464	0.2	njh	54	noun	phrase	4	2	match	avec	2	1	y	0.60007
486.24629999999996	0.0	+	54	noun	phrase	4	3	match	avec	2	1	y	0.60007
486.6461	0.2	avec	54	noun	phrase	4	4	match	avec	2	1	y	0.60007
486.84599999999995	0.0	+	54	noun	phrase	4	5	match	avec	2	1	y	0.60007
487.24589999999995	0.2	leur	54	noun	phrase	4	6	match	avec	2	1	y	0.60007
487.4458	0.0	+	54	noun	phrase	4	7	match	avec	2	1	y	0.60007
487.84560000000005	0.2	petit	54	noun	phrase	4	8	match	avec	2	1	y	0.60007
488.0455	0.0	+	54	noun	phrase	4	9	match	avec	2	1	y	0.60007
488.44530000000003	0.2	boîtier	54	noun	phrase	4	10	match	avec	2	1	y	0.60007
488.6452	0.0	+	54	noun	phrase	4	11	match	avec	2	1	y	0.60007
489.0451	0.0	+	54	noun	phrase	4	12	match	avec	2	1	y	0.60007
491.0442	0.0	AVEC	54	noun	phrase	4	13	match	avec	2	1	y	0.60007
491.71060000000006	0.0	+	54	noun	phrase	4	14	match	avec	2	1	y	0.60007
491.6443	0.0	[response]	54	noun	phrase	4	15	match	avec	2	1	y	0.60007
493.4431	0.0	+	55	verb	phrase	1	1	match	tard	5	1	y	0.53421
493.9929	0.2	trl	55	verb	phrase	1	2	match	tard	5	1	y	0.53421
494.1928	0.0	+	55	verb	phrase	1	3	match	tard	5	1	y	0.53421
494.5926	0.2	jdlv	55	verb	phrase	1	4	match	tard	5	1	y	0.53421
494.79249999999996	0.0	+	55	verb	phrase	1	5	match	tard	5	1	y	0.53421
495.19239999999996	0.2	kw	55	verb	phrase	1	6	match	tard	5	1	y	0.53421
495.39230000000003	0.0	+	55	verb	phrase	1	7	match	tard	5	1	y	0.53421
495.79209999999995	0.2	lrmsdpq	55	verb	phrase	1	8	match	tard	5	1	y	0.53421
495.992	0.0	+	55	verb	phrase	1	9	match	tard	5	1	y	0.53421
496.39180000000005	0.2	tard	55	verb	phrase	1	10	match	tard	5	1	y	0.53421
496.5917	0.0	+	55	verb	phrase	1	11	match	tard	5	1	y	0.53421
496.9916	0.0	+	55	verb	phrase	1	12	match	tard	5	1	y	0.53421
498.9907	0.0	TARD	55	verb	phrase	1	13	match	tard	5	1	y	0.53421
499.5904	0.0	+	55	verb	phrase	1	14	match	tard	5	1	y	0.53421
499.52490000000006	0.0	[response]	55	verb	phrase	1	15	match	tard	5	1	y	0.53421
501.38960000000003	0.0	+	56	verb	phrase	1	1	match	nager	5	1	y	0.44899
501.93940000000003	0.2	kszxvgq	56	verb	phrase	1	2	match	nager	5	1	y	0.44899
502.1393	0.0	+	56	verb	phrase	1	3	match	nager	5	1	y	0.44899
502.5391	0.2	mqnx	56	verb	phrase	1	4	match	nager	5	1	y	0.44899
502.739	0.0	+	56	verb	phrase	1	5	match	nager	5	1	y	0.44899
503.1388	0.2	vdfh	56	verb	phrase	1	6	match	nager	5	1	y	0.44899
503.33869999999996	0.0	+	56	verb	phrase	1	7	match	nager	5	1	y	0.44899
503.73859999999996	0.2	xchg	56	verb	phrase	1	8	match	nager	5	1	y	0.44899
503.93850000000003	0.0	+	56	verb	phrase	1	9	match	nager	5	1	y	0.44899
504.33829999999995	0.2	nager	56	verb	phrase	1	10	match	nager	5	1	y	0.44899
504.5382	0.0	+	56	verb	phrase	1	11	match	nager	5	1	y	0.44899
504.93800000000005	0.0	+	56	verb	phrase	1	12	match	nager	5	1	y	0.44899
506.93710000000004	0.0	NAGER	56	verb	phrase	1	13	match	nager	5	1	y	0.44899
507.4536	0.0	+	56	verb	phrase	1	14	match	nager	5	1	y	0.44899
507.3861	0.0	[response]	56	verb	phrase	1	15	match	nager	5	1	y	0.44899
517.3492000000001	0.0	+	57	verb	phrase	3	1	nomatch	noir	-1	1	p	0.79898
517.8990000000001	0.2	jhz	57	verb	phrase	3	2	nomatch	noir	-1	1	p	0.79898
518.0989	0.0	+	57	verb	phrase	3	3	nomatch	noir	-1	1	p	0.79898
518.4987000000001	0.2	jvbz	57	verb	phrase	3	4	nomatch	noir	-1	1	p	0.79898
518.6985999999999	0.0	+	57	verb	phrase	3	5	nomatch	noir	-1	1	p	0.79898
519.0984000000001	0.2	peut	57	verb	phrase	3	6	nomatch	noir	-1	1	p	0.79898
519.2982999999999	0.0	+	57	verb	phrase	3	7	nomatch	noir	-1	1	p	0.79898
519.6982	0.2	mieux	57	verb	phrase	3	8	nomatch	noir	-1	1	p	0.79898
519.8981000000001	0.0	+	57	verb	phrase	3	9	nomatch	noir	-1	1	p	0.79898
520.2979	0.2	rouler	57	verb	phrase	3	10	nomatch	noir	-1	1	p	0.79898
520.4978000000001	0.0	+	57	verb	phrase	3	11	nomatch	noir	-1	1	p	0.79898
520.8976	0.0	+	57	verb	phrase	3	12	nomatch	noir	-1	1	p	0.79898
522.8967	0.0	NOIR	57	verb	phrase	3	13	nomatch	noir	-1	1	p	0.79898
523.7629999999999	0.0	+	57	verb	phrase	3	14	nomatch	noir	-1	1	p	0.79898
523.6957	0.0	[response]	57	verb	phrase	3	15	nomatch	noir	-1	1	p	0.79898
525.2959000000001	0.0	+	58	verb	list	1	1	nomatch	sans	-1	1	p	0.94646
525.8453999999999	0.2	cbqzd	58	verb	list	1	2	nomatch	sans	-1	1	p	0.94646
526.0454	0.0	+	58	verb	list	1	3	nomatch	sans	-1	1	p	0.94646
526.4452000000001	0.2	cfhm	58	verb	list	1	4	nomatch	sans	-1	1	p	0.94646
526.6451	0.0	+	58	verb	list	1	5	nomatch	sans	-1	1	p	0.94646
527.0449000000001	0.2	qgfj	58	verb	list	1	6	nomatch	sans	-1	1	p	0.94646
527.2447999999999	0.0	+	58	verb	list	1	7	nomatch	sans	-1	1	p	0.94646
527.6446000000001	0.2	snpxtm	58	verb	list	1	8	nomatch	sans	-1	1	p	0.94646
527.8445999999999	0.0	+	58	verb	list	1	9	nomatch	sans	-1	1	p	0.94646
528.2444	0.2	nouveau	58	verb	list	1	10	nomatch	sans	-1	1	p	0.94646
528.4443000000001	0.0	+	58	verb	list	1	11	nomatch	sans	-1	1	p	0.94646
528.8441	0.0	+	58	verb	list	1	12	nomatch	sans	-1	1	p	0.94646
530.8432	0.0	SANS	58	verb	list	1	13	nomatch	sans	-1	1	p	0.94646
531.8427999999999	0.0	+	58	verb	list	1	14	nomatch	sans	-1	1	p	0.94646
531.7897	0.0	[response]	58	verb	list	1	15	nomatch	sans	-1	1	p	0.94646
533.2421999999999	0.0	+	59	verb	list	3	1	match	rouler	4	1	y	0.65964
533.7918999999999	0.2	szvt	59	verb	list	3	2	match	rouler	4	1	y	0.65964
533.9918	0.0	+	59	verb	list	3	3	match	rouler	4	1	y	0.65964
534.3916999999999	0.2	tnwf	59	verb	list	3	4	match	rouler	4	1	y	0.65964
534.5916	0.0	+	59	verb	list	3	5	match	rouler	4	1	y	0.65964
534.9914000000001	0.2	son	59	verb	list	3	6	match	rouler	4	1	y	0.65964
535.1913	0.0	+	59	verb	list	3	7	match	rouler	4	1	y	0.65964
535.5911000000001	0.2	rouler	59	verb	list	3	8	match	rouler	4	1	y	0.65964
535.7909999999999	0.0	+	59	verb	list	3	9	match	rouler	4	1	y	0.65964
536.1909	0.2	blanc	59	verb	list	3	10	match	rouler	4	1	y	0.65964
536.3907999999999	0.0	+	59	verb	list	3	11	match	rouler	4	1	y	0.65964
536.7906	0.0	+	59	verb	list	3	12	match	rouler	4	1	y	0.65964
538.7897	0.0	ROULER	59	verb	list	3	13	match	rouler	4	1	y	0.65964
539.5061000000001	0.0	+	59	verb	list	3	14	match	rouler	4	1	y	0.65964
539.4493	0.0	[response]	59	verb	list	3	15	match	rouler	4	1	y	0.65964
541.1886	0.0	+	60	noun	phrase	2	1	nomatch	cendrier	-1	1	p	0.5352
541.7384	0.2	gbtfmsw	60	noun	phrase	2	2	nomatch	cendrier	-1	1	p	0.5352
541.9383	0.0	+	60	noun	phrase	2	3	nomatch	cendrier	-1	1	p	0.5352
542.3380999999999	0.2	vpfm	60	noun	phrase	2	4	nomatch	cendrier	-1	1	p	0.5352
542.538	0.0	+	60	noun	phrase	2	5	nomatch	cendrier	-1	1	p	0.5352
542.9378999999999	0.2	jwq	60	noun	phrase	2	6	nomatch	cendrier	-1	1	p	0.5352
543.1378	0.0	+	60	noun	phrase	2	7	nomatch	cendrier	-1	1	p	0.5352
543.5376000000001	0.2	nouveau	60	noun	phrase	2	8	nomatch	cendrier	-1	1	p	0.5352
543.7375	0.0	+	60	noun	phrase	2	9	nomatch	cendrier	-1	1	p	0.5352
544.1373000000001	0.2	clavier	60	noun	phrase	2	10	nomatch	cendrier	-1	1	p	0.5352
544.3372999999999	0.0	+	60	noun	phrase	2	11	nomatch	cendrier	-1	1	p	0.5352
544.7371	0.0	+	60	noun	phrase	2	12	nomatch	cendrier	-1	1	p	0.5352
546.7362	0.0	CENDRIER	60	noun	phrase	2	13	nomatch	cendrier	-1	1	p	0.5352
547.3359	0.0	+	60	noun	phrase	2	14	nomatch	cendrier	-1	1	p	0.5352
547.2714000000001	0.0	[response]	60	noun	phrase	2	15	nomatch	cendrier	-1	1	p	0.5352
549.1351	0.0	+	61	verb	list	3	1	match	bleu	5	1	y	0.59294
549.6849	0.2	tvgjrkz	61	verb	list	3	2	match	bleu	5	1	y	0.59294
549.8848	0.0	+	61	verb	list	3	3	match	bleu	5	1	y	0.59294
550.2846	0.2	mqnx	61	verb	list	3	4	match	bleu	5	1	y	0.59294
550.4845	0.0	+	61	verb	list	3	5	match	bleu	5	1	y	0.59294
550.8842999999999	0.2	leur	61	verb	list	3	6	match	bleu	5	1	y	0.59294
551.0843	0.0	+	61	verb	list	3	7	match	bleu	5	1	y	0.59294
551.4840999999999	0.2	jongler	61	verb	list	3	8	match	bleu	5	1	y	0.59294
551.684	0.0	+	61	verb	list	3	9	match	bleu	5	1	y	0.59294
552.1005	0.2	bleu	61	verb	list	3	10	match	bleu	5	1	y	0.59294
552.3004000000001	0.0	+	61	verb	list	3	11	match	bleu	5	1	y	0.59294
552.7002	0.0	+	61	verb	list	3	12	match	bleu	5	1	y	0.59294
554.6993	0.0	BLEU	61	verb	list	3	13	match	bleu	5	1	y	0.59294
555.3489999999999	0.0	+	61	verb	list	3	14	match	bleu	5	1	y	0.59294
555.2923000000001	0.0	[response]	61	verb	list	3	15	match	bleu	5	1	y	0.59294
557.0983000000001	0.0	+	62	verb	phrase	4	1	match	jade	2	1	y	0.9353900000000002
557.6479999999999	0.2	spvhc	62	verb	phrase	4	2	match	jade	2	1	y	0.9353900000000002
557.8479	0.0	+	62	verb	phrase	4	3	match	jade	2	1	y	0.9353900000000002
558.2478000000001	0.2	jade	62	verb	phrase	4	4	match	jade	2	1	y	0.9353900000000002
558.4476999999999	0.0	+	62	verb	phrase	4	5	match	jade	2	1	y	0.9353900000000002
558.8475000000001	0.2	va	62	verb	phrase	4	6	match	jade	2	1	y	0.9353900000000002
559.0473999999999	0.0	+	62	verb	phrase	4	7	match	jade	2	1	y	0.9353900000000002
559.4472000000001	0.2	beaucoup	62	verb	phrase	4	8	match	jade	2	1	y	0.9353900000000002
559.6470999999999	0.0	+	62	verb	phrase	4	9	match	jade	2	1	y	0.9353900000000002
560.047	0.2	nager	62	verb	phrase	4	10	match	jade	2	1	y	0.9353900000000002
560.2469000000001	0.0	+	62	verb	phrase	4	11	match	jade	2	1	y	0.9353900000000002
560.6467	0.0	+	62	verb	phrase	4	12	match	jade	2	1	y	0.9353900000000002
562.6458	0.0	JADE	62	verb	phrase	4	13	match	jade	2	1	y	0.9353900000000002
563.6454000000001	0.0	+	62	verb	phrase	4	14	match	jade	2	1	y	0.9353900000000002
563.5812000000001	0.0	[response]	62	verb	phrase	4	15	match	jade	2	1	y	0.9353900000000002
573.0414000000001	0.0	+	63	verb	list	1	1	match	jongler	5	1	y	0.36892
573.5909999999999	0.2	dptbfm	63	verb	list	1	2	match	jongler	5	1	y	0.36892
573.7909	0.0	+	63	verb	list	1	3	match	jongler	5	1	y	0.36892
574.1907000000001	0.2	cfhm	63	verb	list	1	4	match	jongler	5	1	y	0.36892
574.3906	0.0	+	63	verb	list	1	5	match	jongler	5	1	y	0.36892
574.7904000000001	0.2	kw	63	verb	list	1	6	match	jongler	5	1	y	0.36892
574.9902999999999	0.0	+	63	verb	list	1	7	match	jongler	5	1	y	0.36892
575.3902	0.2	rlhdn	63	verb	list	1	8	match	jongler	5	1	y	0.36892
575.5900999999999	0.0	+	63	verb	list	1	9	match	jongler	5	1	y	0.36892
575.9899	0.2	jongler	63	verb	list	1	10	match	jongler	5	1	y	0.36892
576.1898000000001	0.0	+	63	verb	list	1	11	match	jongler	5	1	y	0.36892
576.5897	0.0	+	63	verb	list	1	12	match	jongler	5	1	y	0.36892
578.5887	0.0	JONGLER	63	verb	list	1	13	match	jongler	5	1	y	0.36892
579.0219	0.0	+	63	verb	list	1	14	match	jongler	5	1	y	0.36892
578.9576999999999	0.0	[response]	63	verb	list	1	15	match	jongler	5	1	y	0.36892
596.9973	0.0	+	64	verb	phrase	2	1	nomatch	parader	-1	1	p	0.59136
597.547	0.2	vdt	64	verb	phrase	2	2	nomatch	parader	-1	1	p	0.59136
597.7469000000001	0.0	+	64	verb	phrase	2	3	nomatch	parader	-1	1	p	0.59136
598.1468	0.2	dgtf	64	verb	phrase	2	4	nomatch	parader	-1	1	p	0.59136
598.3467	0.0	+	64	verb	phrase	2	5	nomatch	parader	-1	1	p	0.59136
598.7465	0.2	qgfj	64	verb	phrase	2	6	nomatch	parader	-1	1	p	0.59136
598.9464	0.0	+	64	verb	phrase	2	7	nomatch	parader	-1	1	p	0.59136
599.3462	0.2	chasser	64	verb	phrase	2	8	nomatch	parader	-1	1	p	0.59136
599.5461	0.0	+	64	verb	phrase	2	9	nomatch	parader	-1	1	p	0.59136
599.9459999999999	0.2	vite	64	verb	phrase	2	10	nomatch	parader	-1	1	p	0.59136
600.1459	0.0	+	64	verb	phrase	2	11	nomatch	parader	-1	1	p	0.59136
600.5456999999999	0.0	+	64	verb	phrase	2	12	nomatch	parader	-1	1	p	0.59136
602.5447999999999	0.0	PARADER	64	verb	phrase	2	13	nomatch	parader	-1	1	p	0.59136
603.1945000000001	0.0	+	64	verb	phrase	2	14	nomatch	parader	-1	1	p	0.59136
603.1361999999999	0.0	[response]	64	verb	phrase	2	15	nomatch	parader	-1	1	p	0.59136
604.9438	0.0	+	65	noun	list	2	1	match	tablier	4	1	y	0.57997
605.4935	0.2	pkzjqm	65	noun	list	2	2	match	tablier	4	1	y	0.57997
605.6934000000001	0.0	+	65	noun	list	2	3	match	tablier	4	1	y	0.57997
606.0932	0.2	vpfm	65	noun	list	2	4	match	tablier	4	1	y	0.57997
606.2931000000001	0.0	+	65	noun	list	2	5	match	tablier	4	1	y	0.57997
606.693	0.2	vdfh	65	noun	list	2	6	match	tablier	4	1	y	0.57997
606.8929	0.0	+	65	noun	list	2	7	match	tablier	4	1	y	0.57997
607.2927	0.2	tablier	65	noun	list	2	8	match	tablier	4	1	y	0.57997
607.4926	0.0	+	65	noun	list	2	9	match	tablier	4	1	y	0.57997
607.8924	0.2	ainsi	65	noun	list	2	10	match	tablier	4	1	y	0.57997
608.0924	0.0	+	65	noun	list	2	11	match	tablier	4	1	y	0.57997
608.4921999999999	0.0	+	65	noun	list	2	12	match	tablier	4	1	y	0.57997
610.4912999999999	0.0	TABLIER	65	noun	list	2	13	match	tablier	4	1	y	0.57997
611.1243	0.0	+	65	noun	list	2	14	match	tablier	4	1	y	0.57997
611.0713000000001	0.0	[response]	65	noun	list	2	15	match	tablier	4	1	y	0.57997
612.8902	0.0	+	66	verb	phrase	1	1	nomatch	tard	-1	1	p	0.57257
613.44	0.2	mvzfxpd	66	verb	phrase	1	2	nomatch	tard	-1	1	p	0.57257
613.6398999999999	0.0	+	66	verb	phrase	1	3	nomatch	tard	-1	1	p	0.57257
614.0397	0.2	mqnx	66	verb	phrase	1	4	nomatch	tard	-1	1	p	0.57257
614.2396000000001	0.0	+	66	verb	phrase	1	5	nomatch	tard	-1	1	p	0.57257
614.6395	0.2	qgfj	66	verb	phrase	1	6	nomatch	tard	-1	1	p	0.57257
614.8394000000001	0.0	+	66	verb	phrase	1	7	nomatch	tard	-1	1	p	0.57257
615.2392	0.2	slrf	66	verb	phrase	1	8	nomatch	tard	-1	1	p	0.57257
615.4391	0.0	+	66	verb	phrase	1	9	nomatch	tard	-1	1	p	0.57257
615.8389	0.2	rouler	66	verb	phrase	1	10	nomatch	tard	-1	1	p	0.57257
616.0388	0.0	+	66	verb	phrase	1	11	nomatch	tard	-1	1	p	0.57257
616.4386999999999	0.0	+	66	verb	phrase	1	12	nomatch	tard	-1	1	p	0.57257
618.4377999999999	0.0	TARD	66	verb	phrase	1	13	nomatch	tard	-1	1	p	0.57257
619.0708	0.0	+	66	verb	phrase	1	14	nomatch	tard	-1	1	p	0.57257
619.0104000000001	0.0	[response]	66	verb	phrase	1	15	nomatch	tard	-1	1	p	0.57257
620.8367000000001	0.0	+	67	verb	list	3	1	nomatch	moins	-1	1	p	0.68228
621.3865000000001	0.2	pfsc	67	verb	list	3	2	nomatch	moins	-1	1	p	0.68228
621.5863999999999	0.0	+	67	verb	list	3	3	nomatch	moins	-1	1	p	0.68228
621.9862	0.2	dnmw	67	verb	list	3	4	nomatch	moins	-1	1	p	0.68228
622.1860999999999	0.0	+	67	verb	list	3	5	nomatch	moins	-1	1	p	0.68228
622.5859	0.2	va	67	verb	list	3	6	nomatch	moins	-1	1	p	0.68228
622.7858000000001	0.0	+	67	verb	list	3	7	nomatch	moins	-1	1	p	0.68228
623.1857	0.2	grand	67	verb	list	3	8	nomatch	moins	-1	1	p	0.68228
623.3856000000001	0.0	+	67	verb	list	3	9	nomatch	moins	-1	1	p	0.68228
623.7854	0.2	nager	67	verb	list	3	10	nomatch	moins	-1	1	p	0.68228
623.9853	0.0	+	67	verb	list	3	11	nomatch	moins	-1	1	p	0.68228
624.3851	0.0	+	67	verb	list	3	12	nomatch	moins	-1	1	p	0.68228
626.3842999999999	0.0	MOINS	67	verb	list	3	13	nomatch	moins	-1	1	p	0.68228
627.1339	0.0	+	67	verb	list	3	14	nomatch	moins	-1	1	p	0.68228
627.0664999999999	0.0	[response]	67	verb	list	3	15	nomatch	moins	-1	1	p	0.68228
636.7963	0.0	+	68	noun	list	1	1	nomatch	boîtier	-1	0	TIMEOUT	-1.0
637.3461	0.2	grzh	68	noun	list	1	2	nomatch	boîtier	-1	0	TIMEOUT	-1.0
637.546	0.0	+	68	noun	list	1	3	nomatch	boîtier	-1	0	TIMEOUT	-1.0
637.9458	0.2	vpfm	68	noun	list	1	4	nomatch	boîtier	-1	0	TIMEOUT	-1.0
638.1457	0.0	+	68	noun	list	1	5	nomatch	boîtier	-1	0	TIMEOUT	-1.0
638.5455	0.2	vdfh	68	noun	list	1	6	nomatch	boîtier	-1	0	TIMEOUT	-1.0
638.7454	0.0	+	68	noun	list	1	7	nomatch	boîtier	-1	0	TIMEOUT	-1.0
639.1452999999999	0.2	bsdln	68	noun	list	1	8	nomatch	boîtier	-1	0	TIMEOUT	-1.0
639.3452	0.0	+	68	noun	list	1	9	nomatch	boîtier	-1	0	TIMEOUT	-1.0
639.7449999999999	0.2	tablier	68	noun	list	1	10	nomatch	boîtier	-1	0	TIMEOUT	-1.0
639.9449	0.0	+	68	noun	list	1	11	nomatch	boîtier	-1	0	TIMEOUT	-1.0
640.3447000000001	0.0	+	68	noun	list	1	12	nomatch	boîtier	-1	0	TIMEOUT	-1.0
642.3439000000001	0.0	BOÎTIER	68	noun	list	1	13	nomatch	boîtier	-1	0	TIMEOUT	-1.0
644.7428	0.0	+	69	verb	phrase	1	1	nomatch	ainsi	-1	1	p	0.5953100000000001
645.3425	0.2	xzdqpl	69	verb	phrase	1	2	nomatch	ainsi	-1	1	p	0.5953100000000001
645.5424	0.0	+	69	verb	phrase	1	3	nomatch	ainsi	-1	1	p	0.5953100000000001
645.9422999999999	0.2	bcs	69	verb	phrase	1	4	nomatch	ainsi	-1	1	p	0.5953100000000001
646.1422	0.0	+	69	verb	phrase	1	5	nomatch	ainsi	-1	1	p	0.5953100000000001
646.5419999999999	0.2	kw	69	verb	phrase	1	6	nomatch	ainsi	-1	1	p	0.5953100000000001
646.7419	0.0	+	69	verb	phrase	1	7	nomatch	ainsi	-1	1	p	0.5953100000000001
647.1416999999999	0.2	pcgtzw	69	verb	phrase	1	8	nomatch	ainsi	-1	1	p	0.5953100000000001
647.3416	0.0	+	69	verb	phrase	1	9	nomatch	ainsi	-1	1	p	0.5953100000000001
647.7415000000001	0.2	vite	69	verb	phrase	1	10	nomatch	ainsi	-1	1	p	0.5953100000000001
647.9413999999999	0.0	+	69	verb	phrase	1	11	nomatch	ainsi	-1	1	p	0.5953100000000001
648.3412000000001	0.0	+	69	verb	phrase	1	12	nomatch	ainsi	-1	1	p	0.5953100000000001
650.3403000000001	0.0	AINSI	69	verb	phrase	1	13	nomatch	ainsi	-1	1	p	0.5953100000000001
650.99	0.0	+	69	verb	phrase	1	14	nomatch	ainsi	-1	1	p	0.5953100000000001
650.9356	0.0	[response]	69	verb	phrase	1	15	nomatch	ainsi	-1	1	p	0.5953100000000001
652.7392	0.0	+	70	verb	list	1	1	nomatch	voyager	-1	1	p	0.5616
653.289	0.2	ptb	70	verb	list	1	2	nomatch	voyager	-1	1	p	0.5616
653.4889000000001	0.0	+	70	verb	list	1	3	nomatch	voyager	-1	1	p	0.5616
653.8887	0.2	jvbz	70	verb	list	1	4	nomatch	voyager	-1	1	p	0.5616
654.0886	0.0	+	70	verb	list	1	5	nomatch	voyager	-1	1	p	0.5616
654.4884999999999	0.2	jwq	70	verb	list	1	6	nomatch	voyager	-1	1	p	0.5616
654.6884	0.0	+	70	verb	list	1	7	nomatch	voyager	-1	1	p	0.5616
655.0881999999999	0.2	bgtsx	70	verb	list	1	8	nomatch	voyager	-1	1	p	0.5616
655.2881	0.0	+	70	verb	list	1	9	nomatch	voyager	-1	1	p	0.5616
655.6878999999999	0.2	nager	70	verb	list	1	10	nomatch	voyager	-1	1	p	0.5616
655.8879	0.0	+	70	verb	list	1	11	nomatch	voyager	-1	1	p	0.5616
656.2877000000001	0.0	+	70	verb	list	1	12	nomatch	voyager	-1	1	p	0.5616
658.2868000000001	0.0	VOYAGER	70	verb	list	1	13	nomatch	voyager	-1	1	p	0.5616
658.9032	0.0	+	70	verb	list	1	14	nomatch	voyager	-1	1	p	0.5616
658.8484000000001	0.0	[response]	70	verb	list	1	15	nomatch	voyager	-1	1	p	0.5616
668.6987999999999	0.0	+	71	verb	phrase	3	1	match	parader	5	1	y	1.1506
669.2485999999999	0.2	zhw	71	verb	phrase	3	2	match	parader	5	1	y	1.1506
669.4485	0.0	+	71	verb	phrase	3	3	match	parader	5	1	y	1.1506
669.8483000000001	0.2	mqnx	71	verb	phrase	3	4	match	parader	5	1	y	1.1506
670.0482999999999	0.0	+	71	verb	phrase	3	5	match	parader	5	1	y	1.1506
670.4481000000001	0.2	doit	71	verb	phrase	3	6	match	parader	5	1	y	1.1506
670.6479999999999	0.0	+	71	verb	phrase	3	7	match	parader	5	1	y	1.1506
671.0478	0.2	moins	71	verb	phrase	3	8	match	parader	5	1	y	1.1506
671.2476999999999	0.0	+	71	verb	phrase	3	9	match	parader	5	1	y	1.1506
671.6475	0.2	parader	71	verb	phrase	3	10	match	parader	5	1	y	1.1506
671.8475000000001	0.0	+	71	verb	phrase	3	11	match	parader	5	1	y	1.1506
672.2473	0.0	+	71	verb	phrase	3	12	match	parader	5	1	y	1.1506
674.2464	0.0	PARADER	71	verb	phrase	3	13	match	parader	5	1	y	1.1506
675.4625000000001	0.0	+	71	verb	phrase	3	14	match	parader	5	1	y	1.1506
675.3969999999999	0.0	[response]	71	verb	phrase	3	15	match	parader	5	1	y	1.1506
676.6452999999999	0.0	+	72	noun	list	2	1	match	sablier	4	1	y	0.988
677.1950999999999	0.2	bwckmvp	72	noun	list	2	2	match	sablier	4	1	y	0.988
677.395	0.0	+	72	noun	list	2	3	match	sablier	4	1	y	0.988
677.7947999999999	0.2	bldw	72	noun	list	2	4	match	sablier	4	1	y	0.988
677.9947	0.0	+	72	noun	list	2	5	match	sablier	4	1	y	0.988
678.3946000000001	0.2	kw	72	noun	list	2	6	match	sablier	4	1	y	0.988
678.5944999999999	0.0	+	72	noun	list	2	7	match	sablier	4	1	y	0.988
678.9943000000001	0.2	sablier	72	noun	list	2	8	match	sablier	4	1	y	0.988
679.1941999999999	0.0	+	72	noun	list	2	9	match	sablier	4	1	y	0.988
679.594	0.2	vite	72	noun	list	2	10	match	sablier	4	1	y	0.988
679.7938999999999	0.0	+	72	noun	list	2	11	match	sablier	4	1	y	0.988
680.1938	0.0	+	72	noun	list	2	12	match	sablier	4	1	y	0.988
682.1929	0.0	SABLIER	72	noun	list	2	13	match	sablier	4	1	y	0.988
683.2424000000001	0.0	+	72	noun	list	2	14	match	sablier	4	1	y	0.988
683.1809000000001	0.0	[response]	72	noun	list	2	15	match	sablier	4	1	y	0.988
684.5917999999999	0.0	+	73	verb	list	2	1	match	plonger	5	1	y	0.84229
685.1415999999999	0.2	gwdlpns	73	verb	list	2	2	match	plonger	5	1	y	0.84229
685.3415	0.0	+	73	verb	list	2	3	match	plonger	5	1	y	0.84229
685.7412999999999	0.2	mfdt	73	verb	list	2	4	match	plonger	5	1	y	0.84229
685.9412	0.0	+	73	verb	list	2	5	match	plonger	5	1	y	0.84229
686.3409999999999	0.2	vdfh	73	verb	list	2	6	match	plonger	5	1	y	0.84229
686.5409	0.0	+	73	verb	list	2	7	match	plonger	5	1	y	0.84229
686.9408000000001	0.2	vieux	73	verb	list	2	8	match	plonger	5	1	y	0.84229
687.1406999999999	0.0	+	73	verb	list	2	9	match	plonger	5	1	y	0.84229
687.5405000000001	0.2	plonger	73	verb	list	2	10	match	plonger	5	1	y	0.84229
687.7403999999999	0.0	+	73	verb	list	2	11	match	plonger	5	1	y	0.84229
688.1402	0.0	+	73	verb	list	2	12	match	plonger	5	1	y	0.84229
690.1394	0.0	PLONGER	73	verb	list	2	13	match	plonger	5	1	y	0.84229
691.0389	0.0	+	73	verb	list	2	14	match	plonger	5	1	y	0.84229
690.9816000000001	0.0	[response]	73	verb	list	2	15	match	plonger	5	1	y	0.84229
692.5382999999999	0.0	+	74	verb	list	4	1	nomatch	nouveau	-1	1	p	0.78918
693.088	0.2	hsr	74	verb	list	4	2	nomatch	nouveau	-1	1	p	0.78918
693.288	0.0	+	74	verb	list	4	3	nomatch	nouveau	-1	1	p	0.78918
693.6877999999999	0.2	adam	74	verb	list	4	4	nomatch	nouveau	-1	1	p	0.78918
693.8877	0.0	+	74	verb	list	4	5	nomatch	nouveau	-1	1	p	0.78918
694.2874999999999	0.2	leur	74	verb	list	4	6	nomatch	nouveau	-1	1	p	0.78918
694.4879000000001	0.0	+	74	verb	list	4	7	nomatch	nouveau	-1	1	p	0.78918
694.8873000000001	0.2	rouler	74	verb	list	4	8	nomatch	nouveau	-1	1	p	0.78918
695.0871999999999	0.0	+	74	verb	list	4	9	nomatch	nouveau	-1	1	p	0.78918
695.4870000000001	0.2	bleu	74	verb	list	4	10	nomatch	nouveau	-1	1	p	0.78918
695.6868999999999	0.0	+	74	verb	list	4	11	nomatch	nouveau	-1	1	p	0.78918
696.0867000000001	0.0	+	74	verb	list	4	12	nomatch	nouveau	-1	1	p	0.78918
698.0858000000001	0.0	NOUVEAU	74	verb	list	4	13	nomatch	nouveau	-1	1	p	0.78918
698.9355	0.0	+	74	verb	list	4	14	nomatch	nouveau	-1	1	p	0.78918
698.875	0.0	[response]	74	verb	list	4	15	nomatch	nouveau	-1	1	p	0.78918
700.4848	0.0	+	75	noun	list	2	1	match	cendrier	5	0	p	1.0189
701.0345	0.2	xtfjscv	75	noun	list	2	2	match	cendrier	5	0	p	1.0189
701.2344	0.0	+	75	noun	list	2	3	match	cendrier	5	0	p	1.0189
701.6342999999999	0.2	vdsk	75	noun	list	2	4	match	cendrier	5	0	p	1.0189
701.8342	0.0	+	75	noun	list	2	5	match	cendrier	5	0	p	1.0189
702.2339999999999	0.2	jwq	75	noun	list	2	6	match	cendrier	5	0	p	1.0189
702.4339	0.0	+	75	noun	list	2	7	match	cendrier	5	0	p	1.0189
702.8504	0.2	mieux	75	noun	list	2	8	match	cendrier	5	0	p	1.0189
703.0503000000001	0.0	+	75	noun	list	2	9	match	cendrier	5	0	p	1.0189
703.4501	0.2	cendrier	75	noun	list	2	10	match	cendrier	5	0	p	1.0189
703.6500000000001	0.0	+	75	noun	list	2	11	match	cendrier	5	0	p	1.0189
704.0499	0.0	+	75	noun	list	2	12	match	cendrier	5	0	p	1.0189
706.049	0.0	CENDRIER	75	noun	list	2	13	match	cendrier	5	0	p	1.0189
707.1318000000001	0.0	+	75	noun	list	2	14	match	cendrier	5	0	p	1.0189
707.0679	0.0	[response]	75	noun	list	2	15	match	cendrier	5	0	p	1.0189
708.4478999999999	0.0	+	76	verb	phrase	2	1	match	nager	5	1	y	0.49245
708.9976999999999	0.2	bmrjncg	76	verb	phrase	2	2	match	nager	5	1	y	0.49245
709.1976	0.0	+	76	verb	phrase	2	3	match	nager	5	1	y	0.49245
709.5974000000001	0.2	mqnx	76	verb	phrase	2	4	match	nager	5	1	y	0.49245
709.7973	0.0	+	76	verb	phrase	2	5	match	nager	5	1	y	0.49245
710.1971000000001	0.2	vdfh	76	verb	phrase	2	6	match	nager	5	1	y	0.49245
710.3969999999999	0.0	+	76	verb	phrase	2	7	match	nager	5	1	y	0.49245
710.7969	0.2	trop	76	verb	phrase	2	8	match	nager	5	1	y	0.49245
710.9967999999999	0.0	+	76	verb	phrase	2	9	match	nager	5	1	y	0.49245
711.3966	0.2	nager	76	verb	phrase	2	10	match	nager	5	1	y	0.49245
711.5965000000001	0.0	+	76	verb	phrase	2	11	match	nager	5	1	y	0.49245
711.9963	0.0	+	76	verb	phrase	2	12	match	nager	5	1	y	0.49245
713.9955	0.0	NAGER	76	verb	phrase	2	13	match	nager	5	1	y	0.49245
714.5452	0.0	+	76	verb	phrase	2	14	match	nager	5	1	y	0.49245
714.4879000000001	0.0	[response]	76	verb	phrase	2	15	match	nager	5	1	y	0.49245
724.3907999999999	0.0	+	77	verb	list	4	1	nomatch	rouler	-1	1	p	0.64312
724.9405999999999	0.2	phjnx	77	verb	list	4	2	nomatch	rouler	-1	1	p	0.64312
725.1405	0.0	+	77	verb	list	4	3	nomatch	rouler	-1	1	p	0.64312
725.5404000000001	0.2	paul	77	verb	list	4	4	nomatch	rouler	-1	1	p	0.64312
725.7402999999999	0.0	+	77	verb	list	4	5	nomatch	rouler	-1	1	p	0.64312
726.1401000000001	0.2	mon	77	verb	list	4	6	nomatch	rouler	-1	1	p	0.64312
726.3399999999999	0.0	+	77	verb	list	4	7	nomatch	rouler	-1	1	p	0.64312
726.7398000000001	0.2	chasser	77	verb	list	4	8	nomatch	rouler	-1	1	p	0.64312
726.9396999999999	0.0	+	77	verb	list	4	9	nomatch	rouler	-1	1	p	0.64312
727.3395	0.2	noir	77	verb	list	4	10	nomatch	rouler	-1	1	p	0.64312
727.5395000000001	0.0	+	77	verb	list	4	11	nomatch	rouler	-1	1	p	0.64312
727.9393	0.0	+	77	verb	list	4	12	nomatch	rouler	-1	1	p	0.64312
729.9384	0.0	ROULER	77	verb	list	4	13	nomatch	rouler	-1	1	p	0.64312
730.6380999999999	0.0	+	77	verb	list	4	14	nomatch	rouler	-1	1	p	0.64312
730.5815	0.0	[response]	77	verb	list	4	15	nomatch	rouler	-1	1	p	0.64312
740.3504	0.0	+	78	noun	list	4	1	nomatch	clavier	-1	1	p	1.111
740.9002	0.2	kmsclh	78	noun	list	4	2	nomatch	clavier	-1	1	p	1.111
741.1001000000001	0.0	+	78	noun	list	4	3	nomatch	clavier	-1	1	p	1.111
741.4999	0.2	luc	78	noun	list	4	4	nomatch	clavier	-1	1	p	1.111
741.6999000000001	0.0	+	78	noun	list	4	5	nomatch	clavier	-1	1	p	1.111
742.0997	0.2	son	78	noun	list	4	6	nomatch	clavier	-1	1	p	1.111
742.2998	0.0	+	78	noun	list	4	7	nomatch	clavier	-1	1	p	1.111
742.6994	0.2	mieux	78	noun	list	4	8	nomatch	clavier	-1	1	p	1.111
742.8993	0.0	+	78	noun	list	4	9	nomatch	clavier	-1	1	p	1.111
743.2991	0.2	casier	78	noun	list	4	10	nomatch	clavier	-1	1	p	1.111
743.4991	0.0	+	78	noun	list	4	11	nomatch	clavier	-1	1	p	1.111
743.8988999999999	0.0	+	78	noun	list	4	12	nomatch	clavier	-1	1	p	1.111
745.8979999999999	0.0	CLAVIER	78	noun	list	4	13	nomatch	clavier	-1	1	p	1.111
747.0641	0.0	+	78	noun	list	4	14	nomatch	clavier	-1	1	p	1.111
747.009	0.0	[response]	78	noun	list	4	15	nomatch	clavier	-1	1	p	1.111
748.297	0.0	+	79	verb	list	1	1	match	plonger	5	1	y	0.68717
748.8467	0.2	zmqw	79	verb	list	1	2	match	plonger	5	1	y	0.68717
749.0465999999999	0.0	+	79	verb	list	1	3	match	plonger	5	1	y	0.68717
749.4464	0.2	mqnx	79	verb	list	1	4	match	plonger	5	1	y	0.68717
749.6463000000001	0.0	+	79	verb	list	1	5	match	plonger	5	1	y	0.68717
750.0462	0.2	jwq	79	verb	list	1	6	match	plonger	5	1	y	0.68717
750.2461000000001	0.0	+	79	verb	list	1	7	match	plonger	5	1	y	0.68717
750.6459	0.2	grtm	79	verb	list	1	8	match	plonger	5	1	y	0.68717
750.8458	0.0	+	79	verb	list	1	9	match	plonger	5	1	y	0.68717
751.2456	0.2	plonger	79	verb	list	1	10	match	plonger	5	1	y	0.68717
751.4455	0.0	+	79	verb	list	1	11	match	plonger	5	1	y	0.68717
751.8453999999999	0.0	+	79	verb	list	1	12	match	plonger	5	1	y	0.68717
753.8444999999999	0.0	PLONGER	79	verb	list	1	13	match	plonger	5	1	y	0.68717
754.5941	0.0	+	79	verb	list	1	14	match	plonger	5	1	y	0.68717
754.5317	0.0	[response]	79	verb	list	1	15	match	plonger	5	1	y	0.68717
756.2434000000001	0.0	+	80	noun	list	2	1	nomatch	pour	-1	1	p	0.55799
756.7932000000001	0.2	cgkdbr	80	noun	list	2	2	nomatch	pour	-1	1	p	0.55799
756.9930999999999	0.0	+	80	noun	list	2	3	nomatch	pour	-1	1	p	0.55799
757.3929	0.2	bcs	80	noun	list	2	4	nomatch	pour	-1	1	p	0.55799
757.5927999999999	0.0	+	80	noun	list	2	5	nomatch	pour	-1	1	p	0.55799
757.9926	0.2	jvp	80	noun	list	2	6	nomatch	pour	-1	1	p	0.55799
758.1926000000001	0.0	+	80	noun	list	2	7	nomatch	pour	-1	1	p	0.55799
758.5924	0.2	trop	80	noun	list	2	8	nomatch	pour	-1	1	p	0.55799
758.7923000000001	0.0	+	80	noun	list	2	9	nomatch	pour	-1	1	p	0.55799
759.1921	0.2	casier	80	noun	list	2	10	nomatch	pour	-1	1	p	0.55799
759.392	0.0	+	80	noun	list	2	11	nomatch	pour	-1	1	p	0.55799
759.7918	0.0	+	80	noun	list	2	12	nomatch	pour	-1	1	p	0.55799
761.7909999999999	0.0	POUR	80	noun	list	2	13	nomatch	pour	-1	1	p	0.55799
762.4073000000001	0.0	+	80	noun	list	2	14	nomatch	pour	-1	1	p	0.55799
764.1899000000001	0.0	+	80	noun	list	2	15	nomatch	pour	-1	1	p	0.55799
765.0062	0.0	+	80	noun	list	2	16	nomatch	pour	-1	1	p	0.55799
765.1062	0.0	+	80	noun	list	2	17	nomatch	pour	-1	1	p	0.55799
766.5222000000001	0.0	+	80	noun	list	2	18	nomatch	pour	-1	1	p	0.55799
766.6221	0.0	+	80	noun	list	2	19	nomatch	pour	-1	1	p	0.55799
768.0215000000001	0.0	+	80	noun	list	2	20	nomatch	pour	-1	1	p	0.55799
768.1215	0.0	+	80	noun	list	2	21	nomatch	pour	-1	1	p	0.55799
769.5209	0.0	+	80	noun	list	2	22	nomatch	pour	-1	1	p	0.55799
769.6207999999999	0.0	+	80	noun	list	2	23	nomatch	pour	-1	1	p	0.55799
771.0201999999999	0.0	+	80	noun	list	2	24	nomatch	pour	-1	1	p	0.55799
771.1202000000001	0.0	+	80	noun	list	2	25	nomatch	pour	-1	1	p	0.55799
772.5195000000001	0.0	+	80	noun	list	2	26	nomatch	pour	-1	1	p	0.55799
772.6195	0.0	+	80	noun	list	2	27	nomatch	pour	-1	1	p	0.55799
774.0021999999999	0.0	+	80	noun	list	2	28	nomatch	pour	-1	1	p	0.55799
774.1022	0.0	+	80	noun	list	2	29	nomatch	pour	-1	1	p	0.55799
775.5182	0.0	+	80	noun	list	2	30	nomatch	pour	-1	1	p	0.55799
775.6182000000001	0.0	+	80	noun	list	2	31	nomatch	pour	-1	1	p	0.55799
777.0175999999999	0.0	+	80	noun	list	2	32	nomatch	pour	-1	1	p	0.55799
777.1175000000001	0.0	+	80	noun	list	2	33	nomatch	pour	-1	1	p	0.55799
778.5169000000001	0.0	+	80	noun	list	2	34	nomatch	pour	-1	1	p	0.55799
778.6168	0.0	+	80	noun	list	2	35	nomatch	pour	-1	1	p	0.55799
782.2819	0.0	+	80	noun	list	2	36	nomatch	pour	-1	1	p	0.55799
762.3489999999999	0.0	[response]	80	noun	list	2	37	nomatch	pour	-1	1	p	0.55799
