onset	duration	stim	trial_number	trial_type	trial_structure	trial_length	sequential_position	probe_type	probe	probe_position	response_correct	response_key	response_time
0.06289999999999907	0.0	+	1	verb	list	3	1	match	parader	5	1	y	0.5969
0.5459999999999994	0.2	zsdftwx	1	verb	list	3	2	match	parader	5	1	y	0.5969
0.7458999999999989	0.0	+	1	verb	list	3	3	match	parader	5	1	y	0.5969
1.145699999999998	0.2	cfhm	1	verb	list	3	4	match	parader	5	1	y	0.5969
1.3457000000000008	0.0	+	1	verb	list	3	5	match	parader	5	1	y	0.5969
1.7454999999999998	0.2	doit	1	verb	list	3	6	match	parader	5	1	y	0.5969
1.9453999999999994	0.0	+	1	verb	list	3	7	match	parader	5	1	y	0.5969
2.3451999999999984	0.2	vieux	1	verb	list	3	8	match	parader	5	1	y	0.5969
2.545099999999998	0.0	+	1	verb	list	3	9	match	parader	5	1	y	0.5969
2.944900000000004	0.2	parader	1	verb	list	3	10	match	parader	5	1	y	0.5969
3.1449	0.0	+	1	verb	list	3	11	match	parader	5	1	y	0.5969
3.544699999999999	0.0	+	1	verb	list	3	12	match	parader	5	1	y	0.5969
5.5438000000000045	0.0	PARADER	1	verb	list	3	13	match	parader	5	1	y	0.5969
6.1935	0.0	+	1	verb	list	3	14	match	parader	5	1	y	0.5969
6.1407000000000025	0.0	[response]	1	verb	list	3	15	match	parader	5	1	y	0.5969
7.942799999999998	0.0	+	2	noun	phrase	4	1	nomatch	sur	-1	1	p	0.93119
8.4925	0.2	ktr	2	noun	phrase	4	2	nomatch	sur	-1	1	p	0.93119
8.6924	0.0	+	2	noun	phrase	4	3	nomatch	sur	-1	1	p	0.93119
9.092199999999998	0.2	sous	2	noun	phrase	4	4	nomatch	sur	-1	1	p	0.93119
9.292099999999998	0.0	+	2	noun	phrase	4	5	nomatch	sur	-1	1	p	0.93119
9.692	0.2	son	2	noun	phrase	4	6	nomatch	sur	-1	1	p	0.93119
9.8919	0.0	+	2	noun	phrase	4	7	nomatch	sur	-1	1	p	0.93119
10.291699999999999	0.2	rocher	2	noun	phrase	4	8	nomatch	sur	-1	1	p	0.93119
10.491599999999998	0.0	+	2	noun	phrase	4	9	nomatch	sur	-1	1	p	0.93119
10.891400000000004	0.2	noir	2	noun	phrase	4	10	nomatch	sur	-1	1	p	0.93119
11.091300000000004	0.0	+	2	noun	phrase	4	11	nomatch	sur	-1	1	p	0.93119
11.4912	0.0	+	2	noun	phrase	4	12	nomatch	sur	-1	1	p	0.93119
13.490299999999998	0.0	SUR	2	noun	phrase	4	13	nomatch	sur	-1	1	p	0.93119
14.473199999999999	0.0	+	2	noun	phrase	4	14	nomatch	sur	-1	1	p	0.93119
14.421500000000002	0.0	[response]	2	noun	phrase	4	15	nomatch	sur	-1	1	p	0.93119
15.889199999999995	0.0	+	3	noun	list	2	1	nomatch	jean	-1	1	p	0.714
16.439	0.2	qpnfv	3	noun	list	2	2	nomatch	jean	-1	1	p	0.714
16.6389	0.0	+	3	noun	list	2	3	nomatch	jean	-1	1	p	0.714
17.0387	0.2	wtx	3	noun	list	2	4	nomatch	jean	-1	1	p	0.714
17.238599999999998	0.0	+	3	noun	list	2	5	nomatch	jean	-1	1	p	0.714
17.638399999999997	0.2	vdfh	3	noun	list	2	6	nomatch	jean	-1	1	p	0.714
17.838299999999997	0.0	+	3	noun	list	2	7	nomatch	jean	-1	1	p	0.714
18.2382	0.2	voilier	3	noun	list	2	8	nomatch	jean	-1	1	p	0.714
18.4381	0.0	+	3	noun	list	2	9	nomatch	jean	-1	1	p	0.714
18.837899999999998	0.2	tard	3	noun	list	2	10	nomatch	jean	-1	1	p	0.714
19.037799999999997	0.0	+	3	noun	list	2	11	nomatch	jean	-1	1	p	0.714
19.437599999999996	0.0	+	3	noun	list	2	12	nomatch	jean	-1	1	p	0.714
21.436799999999998	0.0	JEAN	3	noun	list	2	13	nomatch	jean	-1	1	p	0.714
22.2031	0.0	+	3	noun	list	2	14	nomatch	jean	-1	1	p	0.714
22.150799999999997	0.0	[response]	3	noun	list	2	15	nomatch	jean	-1	1	p	0.714
23.835699999999996	0.0	+	4	verb	phrase	1	1	nomatch	mon	-1	1	p	0.60567
24.385399999999997	0.2	dlmtx	4	verb	phrase	1	2	nomatch	mon	-1	1	p	0.60567
24.5854	0.0	+	4	verb	phrase	1	3	nomatch	mon	-1	1	p	0.60567
24.9852	0.2	bcs	4	verb	phrase	1	4	nomatch	mon	-1	1	p	0.60567
25.1851	0.0	+	4	verb	phrase	1	5	nomatch	mon	-1	1	p	0.60567
25.584899999999998	0.2	kw	4	verb	phrase	1	6	nomatch	mon	-1	1	p	0.60567
25.784799999999997	0.0	+	4	verb	phrase	1	7	nomatch	mon	-1	1	p	0.60567
26.1847	0.2	brqzflk	4	verb	phrase	1	8	nomatch	mon	-1	1	p	0.60567
26.3846	0.0	+	4	verb	phrase	1	9	nomatch	mon	-1	1	p	0.60567
26.784399999999998	0.2	plus	4	verb	phrase	1	10	nomatch	mon	-1	1	p	0.60567
26.984299999999998	0.0	+	4	verb	phrase	1	11	nomatch	mon	-1	1	p	0.60567
27.384099999999997	0.0	+	4	verb	phrase	1	12	nomatch	mon	-1	1	p	0.60567
29.399899999999995	0.0	MON	4	verb	phrase	1	13	nomatch	mon	-1	1	p	0.60567
30.066300000000005	0.0	+	4	verb	phrase	1	14	nomatch	mon	-1	1	p	0.60567
30.00560000000001	0.0	[response]	4	verb	phrase	1	15	nomatch	mon	-1	1	p	0.60567
31.798800000000007	0.0	+	5	verb	phrase	1	1	nomatch	moins	-1	1	p	0.5709400000000001
32.3486	0.2	sbkdpwn	5	verb	phrase	1	2	nomatch	moins	-1	1	p	0.5709400000000001
32.5485	0.0	+	5	verb	phrase	1	3	nomatch	moins	-1	1	p	0.5709400000000001
32.948299999999996	0.2	mqnx	5	verb	phrase	1	4	nomatch	moins	-1	1	p	0.5709400000000001
33.148199999999996	0.0	+	5	verb	phrase	1	5	nomatch	moins	-1	1	p	0.5709400000000001
33.5481	0.2	vdfh	5	verb	phrase	1	6	nomatch	moins	-1	1	p	0.5709400000000001
33.748	0.0	+	5	verb	phrase	1	7	nomatch	moins	-1	1	p	0.5709400000000001
34.1478	0.2	snpxtm	5	verb	phrase	1	8	nomatch	moins	-1	1	p	0.5709400000000001
34.347699999999996	0.0	+	5	verb	phrase	1	9	nomatch	moins	-1	1	p	0.5709400000000001
34.747499999999995	0.2	trop	5	verb	phrase	1	10	nomatch	moins	-1	1	p	0.5709400000000001
34.9475	0.0	+	5	verb	phrase	1	11	nomatch	moins	-1	1	p	0.5709400000000001
35.3473	0.0	+	5	verb	phrase	1	12	nomatch	moins	-1	1	p	0.5709400000000001
37.346399999999996	0.0	MOINS	5	verb	phrase	1	13	nomatch	moins	-1	1	p	0.5709400000000001
37.979400000000005	0.0	+	5	verb	phrase	1	14	nomatch	moins	-1	1	p	0.5709400000000001
37.91730000000002	0.0	[response]	5	verb	phrase	1	15	nomatch	moins	-1	1	p	0.5709400000000001
47.741800000000005	0.0	+	6	noun	phrase	2	1	nomatch	adam	-1	1	p	1.6384
48.291500000000006	0.2	glmr	6	noun	phrase	2	2	nomatch	adam	-1	1	p	1.6384
48.491400000000006	0.0	+	6	noun	phrase	2	3	nomatch	adam	-1	1	p	1.6384
48.89130000000001	0.2	bldw	6	noun	phrase	2	4	nomatch	adam	-1	1	p	1.6384
49.09120000000001	0.0	+	6	noun	phrase	2	5	nomatch	adam	-1	1	p	1.6384
49.49100000000001	0.2	jvp	6	noun	phrase	2	6	nomatch	adam	-1	1	p	1.6384
49.690900000000006	0.0	+	6	noun	phrase	2	7	nomatch	adam	-1	1	p	1.6384
50.090700000000005	0.2	sablier	6	noun	phrase	2	8	nomatch	adam	-1	1	p	1.6384
50.290600000000005	0.0	+	6	noun	phrase	2	9	nomatch	adam	-1	1	p	1.6384
50.69050000000001	0.2	noir	6	noun	phrase	2	10	nomatch	adam	-1	1	p	1.6384
50.89040000000001	0.0	+	6	noun	phrase	2	11	nomatch	adam	-1	1	p	1.6384
51.290200000000006	0.0	+	6	noun	phrase	2	12	nomatch	adam	-1	1	p	1.6384
53.289300000000004	0.0	ADAM	6	noun	phrase	2	13	nomatch	adam	-1	1	p	1.6384
54.9886	0.0	+	6	noun	phrase	2	14	nomatch	adam	-1	1	p	1.6384
54.927699999999994	0.0	[response]	6	noun	phrase	2	15	nomatch	adam	-1	1	p	1.6384
55.688300000000005	0.0	+	7	noun	phrase	1	1	match	blanc	5	1	y	0.93777
56.23800000000001	0.2	hbt	7	noun	phrase	1	2	match	blanc	5	1	y	0.93777
56.437900000000006	0.0	+	7	noun	phrase	1	3	match	blanc	5	1	y	0.93777
56.837700000000005	0.2	cxgm	7	noun	phrase	1	4	match	blanc	5	1	y	0.93777
57.03770000000001	0.0	+	7	noun	phrase	1	5	match	blanc	5	1	y	0.93777
57.43750000000001	0.2	jwq	7	noun	phrase	1	6	match	blanc	5	1	y	0.93777
57.63740000000001	0.0	+	7	noun	phrase	1	7	match	blanc	5	1	y	0.93777
58.037200000000006	0.2	jbtkcz	7	noun	phrase	1	8	match	blanc	5	1	y	0.93777
58.237100000000005	0.0	+	7	noun	phrase	1	9	match	blanc	5	1	y	0.93777
58.63700000000001	0.2	blanc	7	noun	phrase	1	10	match	blanc	5	1	y	0.93777
58.83690000000001	0.0	+	7	noun	phrase	1	11	match	blanc	5	1	y	0.93777
59.236700000000006	0.0	+	7	noun	phrase	1	12	match	blanc	5	1	y	0.93777
61.235800000000005	0.0	BLANC	7	noun	phrase	1	13	match	blanc	5	1	y	0.93777
62.235400000000006	0.0	+	7	noun	phrase	1	14	match	blanc	5	1	y	0.93777
62.1736	0.0	[response]	7	noun	phrase	1	15	match	blanc	5	1	y	0.93777
63.6347	0.0	+	8	noun	list	2	1	match	vite	5	0	p	2.1982
64.18450000000001	0.2	btmv	8	noun	list	2	2	match	vite	5	0	p	2.1982
64.3844	0.0	+	8	noun	list	2	3	match	vite	5	0	p	2.1982
64.7842	0.2	vpfm	8	noun	list	2	4	match	vite	5	0	p	2.1982
64.98410000000001	0.0	+	8	noun	list	2	5	match	vite	5	0	p	2.1982
65.38400000000001	0.2	qgfj	8	noun	list	2	6	match	vite	5	0	p	2.1982
65.5839	0.0	+	8	noun	list	2	7	match	vite	5	0	p	2.1982
66.00040000000001	0.2	casier	8	noun	list	2	8	match	vite	5	0	p	2.1982
66.2003	0.0	+	8	noun	list	2	9	match	vite	5	0	p	2.1982
66.6001	0.2	vite	8	noun	list	2	10	match	vite	5	0	p	2.1982
66.80000000000001	0.0	+	8	noun	list	2	11	match	vite	5	0	p	2.1982
67.19980000000001	0.0	+	8	noun	list	2	12	match	vite	5	0	p	2.1982
69.19890000000001	0.0	VITE	8	noun	list	2	13	match	vite	5	0	p	2.1982
71.46459999999999	0.0	+	8	noun	list	2	14	match	vite	5	0	p	2.1982
71.3972	0.0	[response]	8	noun	list	2	15	match	vite	5	0	p	2.1982
71.59790000000001	0.0	+	9	verb	phrase	4	1	match	va	3	1	y	1.1964
72.14760000000001	0.2	lxzdkf	9	verb	phrase	4	2	match	va	3	1	y	1.1964
72.3476	0.0	+	9	verb	phrase	4	3	match	va	3	1	y	1.1964
72.7474	0.2	yves	9	verb	phrase	4	4	match	va	3	1	y	1.1964
72.94730000000001	0.0	+	9	verb	phrase	4	5	match	va	3	1	y	1.1964
73.34710000000001	0.2	va	9	verb	phrase	4	6	match	va	3	1	y	1.1964
73.547	0.0	+	9	verb	phrase	4	7	match	va	3	1	y	1.1964
73.9468	0.2	moins	9	verb	phrase	4	8	match	va	3	1	y	1.1964
74.14680000000001	0.0	+	9	verb	phrase	4	9	match	va	3	1	y	1.1964
74.54660000000001	0.2	rouler	9	verb	phrase	4	10	match	va	3	1	y	1.1964
74.7465	0.0	+	9	verb	phrase	4	11	match	va	3	1	y	1.1964
75.1463	0.0	+	9	verb	phrase	4	12	match	va	3	1	y	1.1964
77.1454	0.0	VA	9	verb	phrase	4	13	match	va	3	1	y	1.1964
78.3949	0.0	+	9	verb	phrase	4	14	match	va	3	1	y	1.1964
78.3418	0.0	[response]	9	verb	phrase	4	15	match	va	3	1	y	1.1964
87.54079999999999	0.0	+	10	noun	list	4	1	match	tard	5	1	y	0.78297
88.0906	0.2	lxb	10	noun	list	4	2	match	tard	5	1	y	0.78297
88.29049999999998	0.0	+	10	noun	list	4	3	match	tard	5	1	y	0.78297
88.69030000000001	0.2	sous	10	noun	list	4	4	match	tard	5	1	y	0.78297
88.8902	0.0	+	10	noun	list	4	5	match	tard	5	1	y	0.78297
89.2901	0.2	doit	10	noun	list	4	6	match	tard	5	1	y	0.78297
89.48999999999998	0.0	+	10	noun	list	4	7	match	tard	5	1	y	0.78297
89.88980000000001	0.2	boîtier	10	noun	list	4	8	match	tard	5	1	y	0.78297
90.0897	0.0	+	10	noun	list	4	9	match	tard	5	1	y	0.78297
90.48949999999999	0.2	tard	10	noun	list	4	10	match	tard	5	1	y	0.78297
90.6894	0.0	+	10	noun	list	4	11	match	tard	5	1	y	0.78297
91.08929999999998	0.0	+	10	noun	list	4	12	match	tard	5	1	y	0.78297
93.08840000000001	0.0	TARD	10	noun	list	4	13	match	tard	5	1	y	0.78297
93.93799999999999	0.0	+	10	noun	list	4	14	match	tard	5	1	y	0.78297
93.87129999999999	0.0	[response]	10	noun	list	4	15	match	tard	5	1	y	0.78297
103.50039999999998	0.0	+	11	noun	list	1	1	match	plus	5	1	y	0.86132
104.05019999999999	0.2	bnz	11	noun	list	1	2	match	plus	5	1	y	0.86132
104.2501	0.0	+	11	noun	list	1	3	match	plus	5	1	y	0.86132
104.6499	0.2	vdsk	11	noun	list	1	4	match	plus	5	1	y	0.86132
104.84979999999999	0.0	+	11	noun	list	1	5	match	plus	5	1	y	0.86132
105.24959999999999	0.2	jvp	11	noun	list	1	6	match	plus	5	1	y	0.86132
105.4496	0.0	+	11	noun	list	1	7	match	plus	5	1	y	0.86132
105.8494	0.2	fqrxbkd	11	noun	list	1	8	match	plus	5	1	y	0.86132
106.04929999999999	0.0	+	11	noun	list	1	9	match	plus	5	1	y	0.86132
106.44909999999999	0.2	plus	11	noun	list	1	10	match	plus	5	1	y	0.86132
106.649	0.0	+	11	noun	list	1	11	match	plus	5	1	y	0.86132
107.0489	0.0	+	11	noun	list	1	12	match	plus	5	1	y	0.86132
109.048	0.0	PLUS	11	noun	list	1	13	match	plus	5	1	y	0.86132
109.9642	0.0	+	11	noun	list	1	14	match	plus	5	1	y	0.86132
109.9093	0.0	[response]	11	noun	list	1	15	match	plus	5	1	y	0.86132
111.4469	0.0	+	12	noun	phrase	4	1	match	dans	2	1	y	0.97841
111.9967	0.2	shzcq	12	noun	phrase	4	2	match	dans	2	1	y	0.97841
112.19659999999999	0.0	+	12	noun	phrase	4	3	match	dans	2	1	y	0.97841
112.59639999999999	0.2	dans	12	noun	phrase	4	4	match	dans	2	1	y	0.97841
112.7963	0.0	+	12	noun	phrase	4	5	match	dans	2	1	y	0.97841
113.1961	0.2	leur	12	noun	phrase	4	6	match	dans	2	1	y	0.97841
113.39599999999999	0.0	+	12	noun	phrase	4	7	match	dans	2	1	y	0.97841
113.79589999999999	0.2	grand	12	noun	phrase	4	8	match	dans	2	1	y	0.97841
113.9958	0.0	+	12	noun	phrase	4	9	match	dans	2	1	y	0.97841
114.3956	0.2	sablier	12	noun	phrase	4	10	match	dans	2	1	y	0.97841
114.59549999999999	0.0	+	12	noun	phrase	4	11	match	dans	2	1	y	0.97841
114.99529999999999	0.0	+	12	noun	phrase	4	12	match	dans	2	1	y	0.97841
116.99449999999999	0.0	DANS	12	noun	phrase	4	13	match	dans	2	1	y	0.97841
118.0274	0.0	+	12	noun	phrase	4	14	match	dans	2	1	y	0.97841
117.97290000000001	0.0	[response]	12	noun	phrase	4	15	match	dans	2	1	y	0.97841
127.38989999999998	0.0	+	13	noun	list	4	1	match	vers	2	1	y	0.8571300000000001
127.93959999999998	0.2	gxscrfv	13	noun	list	4	2	match	vers	2	1	y	0.8571300000000001
128.1395	0.0	+	13	noun	list	4	3	match	vers	2	1	y	0.8571300000000001
128.5393	0.2	vers	13	noun	list	4	4	match	vers	2	1	y	0.8571300000000001
128.7393	0.0	+	13	noun	list	4	5	match	vers	2	1	y	0.8571300000000001
129.13909999999998	0.2	doit	13	noun	list	4	6	match	vers	2	1	y	0.8571300000000001
129.339	0.0	+	13	noun	list	4	7	match	vers	2	1	y	0.8571300000000001
129.7388	0.2	cendrier	13	noun	list	4	8	match	vers	2	1	y	0.8571300000000001
129.93869999999998	0.0	+	13	noun	list	4	9	match	vers	2	1	y	0.8571300000000001
130.33849999999998	0.2	tôt	13	noun	list	4	10	match	vers	2	1	y	0.8571300000000001
130.5384	0.0	+	13	noun	list	4	11	match	vers	2	1	y	0.8571300000000001
130.9383	0.0	+	13	noun	list	4	12	match	vers	2	1	y	0.8571300000000001
132.9374	0.0	VERS	13	noun	list	4	13	match	vers	2	1	y	0.8571300000000001
133.8536	0.0	+	13	noun	list	4	14	match	vers	2	1	y	0.8571300000000001
133.7945	0.0	[response]	13	noun	list	4	15	match	vers	2	1	y	0.8571300000000001
135.3363	0.0	+	14	noun	phrase	1	1	nomatch	leur	-1	1	p	0.85163
135.8861	0.2	hvdzxtc	14	noun	phrase	1	2	nomatch	leur	-1	1	p	0.85163
136.08599999999998	0.0	+	14	noun	phrase	1	3	nomatch	leur	-1	1	p	0.85163
136.48579999999998	0.2	cxgm	14	noun	phrase	1	4	nomatch	leur	-1	1	p	0.85163
136.6857	0.0	+	14	noun	phrase	1	5	nomatch	leur	-1	1	p	0.85163
137.0856	0.2	jwq	14	noun	phrase	1	6	nomatch	leur	-1	1	p	0.85163
137.28549999999998	0.0	+	14	noun	phrase	1	7	nomatch	leur	-1	1	p	0.85163
137.68529999999998	0.2	kljsn	14	noun	phrase	1	8	nomatch	leur	-1	1	p	0.85163
137.8852	0.0	+	14	noun	phrase	1	9	nomatch	leur	-1	1	p	0.85163
138.285	0.2	boîtier	14	noun	phrase	1	10	nomatch	leur	-1	1	p	0.85163
138.48489999999998	0.0	+	14	noun	phrase	1	11	nomatch	leur	-1	1	p	0.85163
138.88479999999998	0.0	+	14	noun	phrase	1	12	nomatch	leur	-1	1	p	0.85163
140.9005	0.0	LEUR	14	noun	phrase	1	13	nomatch	leur	-1	1	p	0.85163
141.8168	0.0	+	14	noun	phrase	1	14	nomatch	leur	-1	1	p	0.85163
141.7522	0.0	[response]	14	noun	phrase	1	15	nomatch	leur	-1	1	p	0.85163
143.2995	0.0	+	15	noun	phrase	3	1	nomatch	cendrier	-1	1	p	1.4331000000000003
143.8492	0.2	jwpdsg	15	noun	phrase	3	2	nomatch	cendrier	-1	1	p	1.4331000000000003
144.04909999999998	0.0	+	15	noun	phrase	3	3	nomatch	cendrier	-1	1	p	1.4331000000000003
144.44899999999998	0.2	vpfm	15	noun	phrase	3	4	nomatch	cendrier	-1	1	p	1.4331000000000003
144.6489	0.0	+	15	noun	phrase	3	5	nomatch	cendrier	-1	1	p	1.4331000000000003
145.0487	0.2	son	15	noun	phrase	3	6	nomatch	cendrier	-1	1	p	1.4331000000000003
145.24859999999998	0.0	+	15	noun	phrase	3	7	nomatch	cendrier	-1	1	p	1.4331000000000003
145.64839999999998	0.2	rocher	15	noun	phrase	3	8	nomatch	cendrier	-1	1	p	1.4331000000000003
145.8484	0.0	+	15	noun	phrase	3	9	nomatch	cendrier	-1	1	p	1.4331000000000003
146.2482	0.2	bleu	15	noun	phrase	3	10	nomatch	cendrier	-1	1	p	1.4331000000000003
146.44809999999998	0.0	+	15	noun	phrase	3	11	nomatch	cendrier	-1	1	p	1.4331000000000003
146.84789999999998	0.0	+	15	noun	phrase	3	12	nomatch	cendrier	-1	1	p	1.4331000000000003
148.84699999999998	0.0	CENDRIER	15	noun	phrase	3	13	nomatch	cendrier	-1	1	p	1.4331000000000003
150.3464	0.0	+	15	noun	phrase	3	14	nomatch	cendrier	-1	1	p	1.4331000000000003
150.2801	0.0	[response]	15	noun	phrase	3	15	nomatch	cendrier	-1	1	p	1.4331000000000003
151.24599999999998	0.0	+	16	verb	phrase	3	1	nomatch	parader	-1	1	p	1.0549
151.79569999999998	0.2	fhqp	16	verb	phrase	3	2	nomatch	parader	-1	1	p	1.0549
151.9956	0.0	+	16	verb	phrase	3	3	nomatch	parader	-1	1	p	1.0549
152.3954	0.2	vdsk	16	verb	phrase	3	4	nomatch	parader	-1	1	p	1.0549
152.59539999999998	0.0	+	16	verb	phrase	3	5	nomatch	parader	-1	1	p	1.0549
152.9954	0.2	doit	16	verb	phrase	3	6	nomatch	parader	-1	1	p	1.0549
153.1951	0.0	+	16	verb	phrase	3	7	nomatch	parader	-1	1	p	1.0549
153.5949	0.2	mieux	16	verb	phrase	3	8	nomatch	parader	-1	1	p	1.0549
153.79479999999998	0.0	+	16	verb	phrase	3	9	nomatch	parader	-1	1	p	1.0549
154.1946	0.2	voyager	16	verb	phrase	3	10	nomatch	parader	-1	1	p	1.0549
154.3947	0.0	+	16	verb	phrase	3	11	nomatch	parader	-1	1	p	1.0549
154.7944	0.0	+	16	verb	phrase	3	12	nomatch	parader	-1	1	p	1.0549
156.7935	0.0	PARADER	16	verb	phrase	3	13	nomatch	parader	-1	1	p	1.0549
157.9097	0.0	+	16	verb	phrase	3	14	nomatch	parader	-1	1	p	1.0549
157.8484	0.0	[response]	16	verb	phrase	3	15	nomatch	parader	-1	1	p	1.0549
159.1924	0.0	+	17	verb	phrase	2	1	nomatch	rouler	-1	1	p	1.0418
159.7422	0.2	hgbzcn	17	verb	phrase	2	2	nomatch	rouler	-1	1	p	1.0418
159.94209999999998	0.0	+	17	verb	phrase	2	3	nomatch	rouler	-1	1	p	1.0418
160.34189999999998	0.2	jvbz	17	verb	phrase	2	4	nomatch	rouler	-1	1	p	1.0418
160.5418	0.0	+	17	verb	phrase	2	5	nomatch	rouler	-1	1	p	1.0418
160.9417	0.2	vdfh	17	verb	phrase	2	6	nomatch	rouler	-1	1	p	1.0418
161.14159999999998	0.0	+	17	verb	phrase	2	7	nomatch	rouler	-1	1	p	1.0418
161.54139999999998	0.2	moins	17	verb	phrase	2	8	nomatch	rouler	-1	1	p	1.0418
161.7413	0.0	+	17	verb	phrase	2	9	nomatch	rouler	-1	1	p	1.0418
162.1411	0.2	chasser	17	verb	phrase	2	10	nomatch	rouler	-1	1	p	1.0418
162.341	0.0	+	17	verb	phrase	2	11	nomatch	rouler	-1	1	p	1.0418
162.74089999999998	0.0	+	17	verb	phrase	2	12	nomatch	rouler	-1	1	p	1.0418
164.73999999999998	0.0	ROULER	17	verb	phrase	2	13	nomatch	rouler	-1	1	p	1.0418
165.8395	0.0	+	17	verb	phrase	2	14	nomatch	rouler	-1	1	p	1.0418
165.78180000000003	0.0	[response]	17	verb	phrase	2	15	nomatch	rouler	-1	1	p	1.0418
167.1389	0.0	+	18	noun	phrase	3	1	nomatch	ainsi	-1	1	p	0.71736
167.68869999999998	0.2	lbcnkwd	18	noun	phrase	3	2	nomatch	ainsi	-1	1	p	0.71736
167.8886	0.0	+	18	noun	phrase	3	3	nomatch	ainsi	-1	1	p	0.71736
168.2884	0.2	cxgm	18	noun	phrase	3	4	nomatch	ainsi	-1	1	p	0.71736
168.48829999999998	0.0	+	18	noun	phrase	3	5	nomatch	ainsi	-1	1	p	0.71736
168.88809999999998	0.2	leur	18	noun	phrase	3	6	nomatch	ainsi	-1	1	p	0.71736
169.0881	0.0	+	18	noun	phrase	3	7	nomatch	ainsi	-1	1	p	0.71736
169.4879	0.2	grand	18	noun	phrase	3	8	nomatch	ainsi	-1	1	p	0.71736
169.68779999999998	0.0	+	18	noun	phrase	3	9	nomatch	ainsi	-1	1	p	0.71736
170.08759999999998	0.2	casier	18	noun	phrase	3	10	nomatch	ainsi	-1	1	p	0.71736
170.2875	0.0	+	18	noun	phrase	3	11	nomatch	ainsi	-1	1	p	0.71736
170.6874	0.0	+	18	noun	phrase	3	12	nomatch	ainsi	-1	1	p	0.71736
172.6865	0.0	AINSI	18	noun	phrase	3	13	nomatch	ainsi	-1	1	p	0.71736
173.4694	0.0	+	18	noun	phrase	3	14	nomatch	ainsi	-1	1	p	0.71736
173.4038	0.0	[response]	18	noun	phrase	3	15	nomatch	ainsi	-1	1	p	0.71736
175.0854	0.0	+	19	noun	list	2	1	nomatch	boîtier	-1	1	p	1.0243
175.6352	0.2	dwpbl	19	noun	list	2	2	nomatch	boîtier	-1	1	p	1.0243
175.83509999999998	0.0	+	19	noun	list	2	3	nomatch	boîtier	-1	1	p	1.0243
176.23489999999998	0.2	vdsk	19	noun	list	2	4	nomatch	boîtier	-1	1	p	1.0243
176.4348	0.0	+	19	noun	list	2	5	nomatch	boîtier	-1	1	p	1.0243
176.8346	0.2	jvp	19	noun	list	2	6	nomatch	boîtier	-1	1	p	1.0243
177.03449999999998	0.0	+	19	noun	list	2	7	nomatch	boîtier	-1	1	p	1.0243
177.43439999999998	0.2	trop	19	noun	list	2	8	nomatch	boîtier	-1	1	p	1.0243
177.6343	0.0	+	19	noun	list	2	9	nomatch	boîtier	-1	1	p	1.0243
178.0341	0.2	clavier	19	noun	list	2	10	nomatch	boîtier	-1	1	p	1.0243
178.23399999999998	0.0	+	19	noun	list	2	11	nomatch	boîtier	-1	1	p	1.0243
178.6505	0.0	+	19	noun	list	2	12	nomatch	boîtier	-1	1	p	1.0243
180.6496	0.0	BOÎTIER	19	noun	list	2	13	nomatch	boîtier	-1	1	p	1.0243
181.7325	0.0	+	19	noun	list	2	14	nomatch	boîtier	-1	1	p	1.0243
181.6739	0.0	[response]	19	noun	list	2	15	nomatch	boîtier	-1	1	p	1.0243
183.0485	0.0	+	20	noun	list	4	1	nomatch	vieux	-1	1	p	0.93568
183.5983	0.2	szjktrc	20	noun	list	4	2	nomatch	vieux	-1	1	p	0.93568
183.79819999999998	0.0	+	20	noun	list	4	3	nomatch	vieux	-1	1	p	0.93568
184.198	0.2	sur	20	noun	list	4	4	nomatch	vieux	-1	1	p	0.93568
184.3979	0.0	+	20	noun	list	4	5	nomatch	vieux	-1	1	p	0.93568
184.7978	0.2	va	20	noun	list	4	6	nomatch	vieux	-1	1	p	0.93568
184.99769999999998	0.0	+	20	noun	list	4	7	nomatch	vieux	-1	1	p	0.93568
185.3975	0.2	casier	20	noun	list	4	8	nomatch	vieux	-1	1	p	0.93568
185.5974	0.0	+	20	noun	list	4	9	nomatch	vieux	-1	1	p	0.93568
185.9972	0.2	loin	20	noun	list	4	10	nomatch	vieux	-1	1	p	0.93568
186.1971	0.0	+	20	noun	list	4	11	nomatch	vieux	-1	1	p	0.93568
186.59699999999998	0.0	+	20	noun	list	4	12	nomatch	vieux	-1	1	p	0.93568
188.5961	0.0	VIEUX	20	noun	list	4	13	nomatch	vieux	-1	1	p	0.93568
189.5956	0.0	+	20	noun	list	4	14	nomatch	vieux	-1	1	p	0.93568
189.53180000000003	0.0	[response]	20	noun	list	4	15	nomatch	vieux	-1	1	p	0.93568
190.995	0.0	+	21	noun	phrase	1	1	match	nouveau	5	1	y	0.91738
191.54479999999998	0.2	dlrsfmg	21	noun	phrase	1	2	match	nouveau	5	1	y	0.91738
191.7447	0.0	+	21	noun	phrase	1	3	match	nouveau	5	1	y	0.91738
192.1445	0.2	dnmw	21	noun	phrase	1	4	match	nouveau	5	1	y	0.91738
192.3444	0.0	+	21	noun	phrase	1	5	match	nouveau	5	1	y	0.91738
192.74429999999998	0.2	jwq	21	noun	phrase	1	6	match	nouveau	5	1	y	0.91738
192.9442	0.0	+	21	noun	phrase	1	7	match	nouveau	5	1	y	0.91738
193.344	0.2	pnwxgms	21	noun	phrase	1	8	match	nouveau	5	1	y	0.91738
193.5439	0.0	+	21	noun	phrase	1	9	match	nouveau	5	1	y	0.91738
193.94379999999998	0.2	nouveau	21	noun	phrase	1	10	match	nouveau	5	1	y	0.91738
194.1436	0.0	+	21	noun	phrase	1	11	match	nouveau	5	1	y	0.91738
194.5434	0.0	+	21	noun	phrase	1	12	match	nouveau	5	1	y	0.91738
196.5426	0.0	NOUVEAU	21	noun	phrase	1	13	match	nouveau	5	1	y	0.91738
197.5255	0.0	+	21	noun	phrase	1	14	match	nouveau	5	1	y	0.91738
197.4599	0.0	[response]	21	noun	phrase	1	15	match	nouveau	5	1	y	0.91738
198.9415	0.0	+	22	verb	list	1	1	nomatch	mon	-1	1	p	0.89936
199.4913	0.2	jpzbtn	22	verb	list	1	2	nomatch	mon	-1	1	p	0.89936
199.69119999999998	0.0	+	22	verb	list	1	3	nomatch	mon	-1	1	p	0.89936
200.091	0.2	tnwf	22	verb	list	1	4	nomatch	mon	-1	1	p	0.89936
200.2909	0.0	+	22	verb	list	1	5	nomatch	mon	-1	1	p	0.89936
200.6907	0.2	gkpq	22	verb	list	1	6	nomatch	mon	-1	1	p	0.89936
200.8906	0.0	+	22	verb	list	1	7	nomatch	mon	-1	1	p	0.89936
201.29049999999998	0.2	rlszd	22	verb	list	1	8	nomatch	mon	-1	1	p	0.89936
201.4904	0.0	+	22	verb	list	1	9	nomatch	mon	-1	1	p	0.89936
201.8902	0.2	rouge	22	verb	list	1	10	nomatch	mon	-1	1	p	0.89936
202.0901	0.0	+	22	verb	list	1	11	nomatch	mon	-1	1	p	0.89936
202.4899	0.0	+	22	verb	list	1	12	nomatch	mon	-1	1	p	0.89936
204.4891	0.0	MON	22	verb	list	1	13	nomatch	mon	-1	1	p	0.89936
205.45530000000002	0.0	+	22	verb	list	1	14	nomatch	mon	-1	1	p	0.89936
205.3884	0.0	[response]	22	verb	list	1	15	nomatch	mon	-1	1	p	0.89936
222.8976	0.0	+	23	noun	phrase	2	1	match	tablier	4	1	y	1.2348
223.44729999999998	0.2	zlbp	23	noun	phrase	2	2	match	tablier	4	1	y	1.2348
223.6472	0.0	+	23	noun	phrase	2	3	match	tablier	4	1	y	1.2348
224.0471	0.2	mfdt	23	noun	phrase	2	4	match	tablier	4	1	y	1.2348
224.247	0.0	+	23	noun	phrase	2	5	match	tablier	4	1	y	1.2348
224.64679999999998	0.2	jwq	23	noun	phrase	2	6	match	tablier	4	1	y	1.2348
224.8467	0.0	+	23	noun	phrase	2	7	match	tablier	4	1	y	1.2348
225.24649999999997	0.2	tablier	23	noun	phrase	2	8	match	tablier	4	1	y	1.2348
225.44639999999998	0.0	+	23	noun	phrase	2	9	match	tablier	4	1	y	1.2348
225.84629999999999	0.2	blanc	23	noun	phrase	2	10	match	tablier	4	1	y	1.2348
226.0462	0.0	+	23	noun	phrase	2	11	match	tablier	4	1	y	1.2348
226.44599999999997	0.0	+	23	noun	phrase	2	12	match	tablier	4	1	y	1.2348
228.44509999999997	0.0	TABLIER	23	noun	phrase	2	13	match	tablier	4	1	y	1.2348
229.74450000000002	0.0	+	23	noun	phrase	2	14	match	tablier	4	1	y	1.2348
229.67989999999998	0.0	[response]	23	noun	phrase	2	15	match	tablier	4	1	y	1.2348
230.844	0.0	+	24	noun	list	3	1	nomatch	beaucoup	-1	1	p	0.94954
231.3938	0.2	vgrzl	24	noun	list	3	2	nomatch	beaucoup	-1	1	p	0.94954
231.5937	0.0	+	24	noun	list	3	3	nomatch	beaucoup	-1	1	p	0.94954
231.99349999999998	0.2	dnmw	24	noun	list	3	4	nomatch	beaucoup	-1	1	p	0.94954
232.1934	0.0	+	24	noun	list	3	5	nomatch	beaucoup	-1	1	p	0.94954
232.5933	0.2	peut	24	noun	list	3	6	nomatch	beaucoup	-1	1	p	0.94954
232.7932	0.0	+	24	noun	list	3	7	nomatch	beaucoup	-1	1	p	0.94954
233.19299999999998	0.2	clavier	24	noun	list	3	8	nomatch	beaucoup	-1	1	p	0.94954
233.3929	0.0	+	24	noun	list	3	9	nomatch	beaucoup	-1	1	p	0.94954
233.79269999999997	0.2	tard	24	noun	list	3	10	nomatch	beaucoup	-1	1	p	0.94954
233.9927	0.0	+	24	noun	list	3	11	nomatch	beaucoup	-1	1	p	0.94954
234.39249999999998	0.0	+	24	noun	list	3	12	nomatch	beaucoup	-1	1	p	0.94954
236.39159999999998	0.0	BEAUCOUP	24	noun	list	3	13	nomatch	beaucoup	-1	1	p	0.94954
237.4078	0.0	+	24	noun	list	3	14	nomatch	beaucoup	-1	1	p	0.94954
237.34110000000004	0.0	[response]	24	noun	list	3	15	nomatch	beaucoup	-1	1	p	0.94954
238.7905	0.0	+	25	noun	list	2	1	match	boîtier	5	0	TIMEOUT	-1.0
239.3403	0.2	dhqfnsb	25	noun	list	2	2	match	boîtier	5	0	TIMEOUT	-1.0
239.54019999999997	0.0	+	25	noun	list	2	3	match	boîtier	5	0	TIMEOUT	-1.0
239.94	0.2	jvbz	25	noun	list	2	4	match	boîtier	5	0	TIMEOUT	-1.0
240.1399	0.0	+	25	noun	list	2	5	match	boîtier	5	0	TIMEOUT	-1.0
240.5398	0.2	gkpq	25	noun	list	2	6	match	boîtier	5	0	TIMEOUT	-1.0
240.73969999999997	0.0	+	25	noun	list	2	7	match	boîtier	5	0	TIMEOUT	-1.0
241.1395	0.2	mieux	25	noun	list	2	8	match	boîtier	5	0	TIMEOUT	-1.0
241.3394	0.0	+	25	noun	list	2	9	match	boîtier	5	0	TIMEOUT	-1.0
241.73919999999998	0.2	boîtier	25	noun	list	2	10	match	boîtier	5	0	TIMEOUT	-1.0
241.9391	0.0	+	25	noun	list	2	11	match	boîtier	5	0	TIMEOUT	-1.0
242.339	0.0	+	25	noun	list	2	12	match	boîtier	5	0	TIMEOUT	-1.0
244.3381	0.0	BOÎTIER	25	noun	list	2	13	match	boîtier	5	0	TIMEOUT	-1.0
246.73699999999997	0.0	+	26	noun	list	3	1	match	doit	3	0	p	1.9386
247.33679999999998	0.2	mcxw	26	noun	list	3	2	match	doit	3	0	p	1.9386
247.5367	0.0	+	26	noun	list	3	3	match	doit	3	0	p	1.9386
247.93649999999997	0.2	vpfm	26	noun	list	3	4	match	doit	3	0	p	1.9386
248.13639999999998	0.0	+	26	noun	list	3	5	match	doit	3	0	p	1.9386
248.5362	0.2	doit	26	noun	list	3	6	match	doit	3	0	p	1.9386
248.73610000000002	0.0	+	26	noun	list	3	7	match	doit	3	0	p	1.9386
249.1359	0.2	sablier	26	noun	list	3	8	match	doit	3	0	p	1.9386
249.33589999999998	0.0	+	26	noun	list	3	9	match	doit	3	0	p	1.9386
249.7357	0.2	ainsi	26	noun	list	3	10	match	doit	3	0	p	1.9386
249.93560000000002	0.0	+	26	noun	list	3	11	match	doit	3	0	p	1.9386
250.3354	0.0	+	26	noun	list	3	12	match	doit	3	0	p	1.9386
252.3345	0.0	DOIT	26	noun	list	3	13	match	doit	3	0	p	1.9386
254.3336	0.0	+	26	noun	list	3	14	match	doit	3	0	p	1.9386
254.2731	0.0	[response]	26	noun	list	3	15	match	doit	3	0	p	1.9386
262.7466	0.0	+	27	noun	phrase	3	1	match	rocher	5	1	y	0.73155
263.2963	0.2	pvztqf	27	noun	phrase	3	2	match	rocher	5	1	y	0.73155
263.4963	0.0	+	27	noun	phrase	3	3	match	rocher	5	1	y	0.73155
263.8961	0.2	cxgm	27	noun	phrase	3	4	match	rocher	5	1	y	0.73155
264.096	0.0	+	27	noun	phrase	3	5	match	rocher	5	1	y	0.73155
264.4958	0.2	leur	27	noun	phrase	3	6	match	rocher	5	1	y	0.73155
264.6957	0.0	+	27	noun	phrase	3	7	match	rocher	5	1	y	0.73155
265.0955	0.2	vieux	27	noun	phrase	3	8	match	rocher	5	1	y	0.73155
265.2955	0.0	+	27	noun	phrase	3	9	match	rocher	5	1	y	0.73155
265.6953	0.2	rocher	27	noun	phrase	3	10	match	rocher	5	1	y	0.73155
265.8952	0.0	+	27	noun	phrase	3	11	match	rocher	5	1	y	0.73155
266.295	0.0	+	27	noun	phrase	3	12	match	rocher	5	1	y	0.73155
268.2941	0.0	ROCHER	27	noun	phrase	3	13	match	rocher	5	1	y	0.73155
269.0938	0.0	+	27	noun	phrase	3	14	match	rocher	5	1	y	0.73155
269.0257	0.0	[response]	27	noun	phrase	3	15	match	rocher	5	1	y	0.73155
278.6895	0.0	+	28	noun	phrase	1	1	match	noir	5	1	y	0.50752
279.2393	0.2	cfmxvds	28	noun	phrase	1	2	match	noir	5	1	y	0.50752
279.43919999999997	0.0	+	28	noun	phrase	1	3	match	noir	5	1	y	0.50752
279.839	0.2	dnmw	28	noun	phrase	1	4	match	noir	5	1	y	0.50752
280.0389	0.0	+	28	noun	phrase	1	5	match	noir	5	1	y	0.50752
280.4388	0.2	gkpq	28	noun	phrase	1	6	match	noir	5	1	y	0.50752
280.6387	0.0	+	28	noun	phrase	1	7	match	noir	5	1	y	0.50752
281.0385	0.2	dhrcxv	28	noun	phrase	1	8	match	noir	5	1	y	0.50752
281.2384	0.0	+	28	noun	phrase	1	9	match	noir	5	1	y	0.50752
281.6382	0.2	noir	28	noun	phrase	1	10	match	noir	5	1	y	0.50752
281.8381	0.0	+	28	noun	phrase	1	11	match	noir	5	1	y	0.50752
282.238	0.0	+	28	noun	phrase	1	12	match	noir	5	1	y	0.50752
284.2371	0.0	NOIR	28	noun	phrase	1	13	match	noir	5	1	y	0.50752
284.8035	0.0	+	28	noun	phrase	1	14	match	noir	5	1	y	0.50752
284.7446	0.0	[response]	28	noun	phrase	1	15	match	noir	5	1	y	0.50752
286.63599999999997	0.0	+	29	noun	list	3	1	nomatch	adam	-1	1	p	0.70368
287.1858	0.2	msb	29	noun	list	3	2	nomatch	adam	-1	1	p	0.70368
287.3857	0.0	+	29	noun	list	3	3	nomatch	adam	-1	1	p	0.70368
287.7855	0.2	mfdt	29	noun	list	3	4	nomatch	adam	-1	1	p	0.70368
287.98539999999997	0.0	+	29	noun	list	3	5	nomatch	adam	-1	1	p	0.70368
288.3852	0.2	doit	29	noun	list	3	6	nomatch	adam	-1	1	p	0.70368
288.5851	0.0	+	29	noun	list	3	7	nomatch	adam	-1	1	p	0.70368
288.985	0.2	casier	29	noun	list	3	8	nomatch	adam	-1	1	p	0.70368
289.18489999999997	0.0	+	29	noun	list	3	9	nomatch	adam	-1	1	p	0.70368
289.5847	0.2	loin	29	noun	list	3	10	nomatch	adam	-1	1	p	0.70368
289.7846	0.0	+	29	noun	list	3	11	nomatch	adam	-1	1	p	0.70368
290.1845	0.0	+	29	noun	list	3	12	nomatch	adam	-1	1	p	0.70368
292.2002	0.0	ADAM	29	noun	list	3	13	nomatch	adam	-1	1	p	0.70368
292.9665	0.0	+	29	noun	list	3	14	nomatch	adam	-1	1	p	0.70368
292.9039	0.0	[response]	29	noun	list	3	15	nomatch	adam	-1	1	p	0.70368
294.5991	0.0	+	30	noun	list	1	1	match	cendrier	5	1	y	1.6824
295.14889999999997	0.2	tbp	30	noun	list	1	2	match	cendrier	5	1	y	1.6824
295.3488	0.0	+	30	noun	list	1	3	match	cendrier	5	1	y	1.6824
295.7486	0.2	dgtf	30	noun	list	1	4	match	cendrier	5	1	y	1.6824
295.9486	0.0	+	30	noun	list	1	5	match	cendrier	5	1	y	1.6824
296.34839999999997	0.2	jvp	30	noun	list	1	6	match	cendrier	5	1	y	1.6824
296.5483	0.0	+	30	noun	list	1	7	match	cendrier	5	1	y	1.6824
296.9481	0.2	rnhvc	30	noun	list	1	8	match	cendrier	5	1	y	1.6824
297.14799999999997	0.0	+	30	noun	list	1	9	match	cendrier	5	1	y	1.6824
297.54789999999997	0.2	cendrier	30	noun	list	1	10	match	cendrier	5	1	y	1.6824
297.7478	0.0	+	30	noun	list	1	11	match	cendrier	5	1	y	1.6824
298.1476	0.0	+	30	noun	list	1	12	match	cendrier	5	1	y	1.6824
300.1467	0.0	CENDRIER	30	noun	list	1	13	match	cendrier	5	1	y	1.6824
301.8959	0.0	+	30	noun	list	1	14	match	cendrier	5	1	y	1.6824
301.82910000000004	0.0	[response]	30	noun	list	1	15	match	cendrier	5	1	y	1.6824
302.5456	0.0	+	31	noun	phrase	1	1	nomatch	grand	-1	1	p	0.61872
303.0954	0.2	bfljx	31	noun	phrase	1	2	nomatch	grand	-1	1	p	0.61872
303.2953	0.0	+	31	noun	phrase	1	3	nomatch	grand	-1	1	p	0.61872
303.69509999999997	0.2	cxgm	31	noun	phrase	1	4	nomatch	grand	-1	1	p	0.61872
303.895	0.0	+	31	noun	phrase	1	5	nomatch	grand	-1	1	p	0.61872
304.2949	0.2	gkpq	31	noun	phrase	1	6	nomatch	grand	-1	1	p	0.61872
304.4948	0.0	+	31	noun	phrase	1	7	nomatch	grand	-1	1	p	0.61872
304.89459999999997	0.2	cjfvpqbs	31	noun	phrase	1	8	nomatch	grand	-1	1	p	0.61872
305.0945	0.0	+	31	noun	phrase	1	9	nomatch	grand	-1	1	p	0.61872
305.4943	0.2	vieux	31	noun	phrase	1	10	nomatch	grand	-1	1	p	0.61872
305.69419999999997	0.0	+	31	noun	phrase	1	11	nomatch	grand	-1	1	p	0.61872
306.09409999999997	0.0	+	31	noun	phrase	1	12	nomatch	grand	-1	1	p	0.61872
308.09319999999997	0.0	GRAND	31	noun	phrase	1	13	nomatch	grand	-1	1	p	0.61872
308.7762	0.0	+	31	noun	phrase	1	14	nomatch	grand	-1	1	p	0.61872
308.7119	0.0	[response]	31	noun	phrase	1	15	nomatch	grand	-1	1	p	0.61872
310.4921	0.0	+	32	verb	list	4	1	nomatch	rouler	-1	1	p	1.0442
311.0419	0.2	tjr	32	verb	list	4	2	nomatch	rouler	-1	1	p	1.0442
311.2418	0.0	+	32	verb	list	4	3	nomatch	rouler	-1	1	p	1.0442
311.6416	0.2	dans	32	verb	list	4	4	nomatch	rouler	-1	1	p	1.0442
311.8415	0.0	+	32	verb	list	4	5	nomatch	rouler	-1	1	p	1.0442
312.24129999999997	0.2	doit	32	verb	list	4	6	nomatch	rouler	-1	1	p	1.0442
312.4413	0.0	+	32	verb	list	4	7	nomatch	rouler	-1	1	p	1.0442
312.8411	0.2	petit	32	verb	list	4	8	nomatch	rouler	-1	1	p	1.0442
313.041	0.0	+	32	verb	list	4	9	nomatch	rouler	-1	1	p	1.0442
313.44079999999997	0.2	parader	32	verb	list	4	10	nomatch	rouler	-1	1	p	1.0442
313.6407	0.0	+	32	verb	list	4	11	nomatch	rouler	-1	1	p	1.0442
314.0405	0.0	+	32	verb	list	4	12	nomatch	rouler	-1	1	p	1.0442
316.0397	0.0	ROULER	32	verb	list	4	13	nomatch	rouler	-1	1	p	1.0442
317.1392	0.0	+	32	verb	list	4	14	nomatch	rouler	-1	1	p	1.0442
317.08380000000005	0.0	[response]	32	verb	list	4	15	nomatch	rouler	-1	1	p	1.0442
318.4386	0.0	+	33	verb	list	3	1	nomatch	jongler	-1	1	p	1.0576
318.9884	0.2	xgqsl	33	verb	list	3	2	nomatch	jongler	-1	1	p	1.0576
319.18829999999997	0.0	+	33	verb	list	3	3	nomatch	jongler	-1	1	p	1.0576
319.5881	0.2	cxgm	33	verb	list	3	4	nomatch	jongler	-1	1	p	1.0576
319.788	0.0	+	33	verb	list	3	5	nomatch	jongler	-1	1	p	1.0576
320.1878	0.2	va	33	verb	list	3	6	nomatch	jongler	-1	1	p	1.0576
320.3877	0.0	+	33	verb	list	3	7	nomatch	jongler	-1	1	p	1.0576
320.7876	0.2	vieux	33	verb	list	3	8	nomatch	jongler	-1	1	p	1.0576
320.9875	0.0	+	33	verb	list	3	9	nomatch	jongler	-1	1	p	1.0576
321.3873	0.2	danser	33	verb	list	3	10	nomatch	jongler	-1	1	p	1.0576
321.5872	0.0	+	33	verb	list	3	11	nomatch	jongler	-1	1	p	1.0576
321.98699999999997	0.0	+	33	verb	list	3	12	nomatch	jongler	-1	1	p	1.0576
323.9861	0.0	JONGLER	33	verb	list	3	13	nomatch	jongler	-1	1	p	1.0576
325.1023	0.0	+	33	verb	list	3	14	nomatch	jongler	-1	1	p	1.0576
325.0438	0.0	[response]	33	verb	list	3	15	nomatch	jongler	-1	1	p	1.0576
326.38509999999997	0.0	+	34	verb	phrase	3	1	match	doit	3	1	y	1.3795
326.9348	0.2	cntv	34	verb	phrase	3	2	match	doit	3	1	y	1.3795
327.1347	0.0	+	34	verb	phrase	3	3	match	doit	3	1	y	1.3795
327.5346	0.2	mqnx	34	verb	phrase	3	4	match	doit	3	1	y	1.3795
327.73449999999997	0.0	+	34	verb	phrase	3	5	match	doit	3	1	y	1.3795
328.1343	0.2	doit	34	verb	phrase	3	6	match	doit	3	1	y	1.3795
328.3342	0.0	+	34	verb	phrase	3	7	match	doit	3	1	y	1.3795
328.734	0.2	plonger	34	verb	phrase	3	8	match	doit	3	1	y	1.3795
328.9339	0.0	+	34	verb	phrase	3	9	match	doit	3	1	y	1.3795
329.3504	0.2	ainsi	34	verb	phrase	3	10	match	doit	3	1	y	1.3795
329.5503	0.0	+	34	verb	phrase	3	11	match	doit	3	1	y	1.3795
329.9502	0.0	+	34	verb	phrase	3	12	match	doit	3	1	y	1.3795
331.9493	0.0	DOIT	34	verb	phrase	3	13	match	doit	3	1	y	1.3795
333.382	0.0	+	34	verb	phrase	3	14	match	doit	3	1	y	1.3795
333.32869999999997	0.0	[response]	34	verb	phrase	3	15	match	doit	3	1	y	1.3795
334.3482	0.0	+	35	verb	list	3	1	nomatch	mon	-1	1	p	2.24
334.89799999999997	0.2	gxmzhjl	35	verb	list	3	2	nomatch	mon	-1	1	p	2.24
335.0979	0.0	+	35	verb	list	3	3	nomatch	mon	-1	1	p	2.24
335.4977	0.2	dgtf	35	verb	list	3	4	nomatch	mon	-1	1	p	2.24
335.69759999999997	0.0	+	35	verb	list	3	5	nomatch	mon	-1	1	p	2.24
336.0974	0.2	leur	35	verb	list	3	6	nomatch	mon	-1	1	p	2.24
336.2973	0.0	+	35	verb	list	3	7	nomatch	mon	-1	1	p	2.24
336.6972	0.2	voyager	35	verb	list	3	8	nomatch	mon	-1	1	p	2.24
336.89709999999997	0.0	+	35	verb	list	3	9	nomatch	mon	-1	1	p	2.24
337.2969	0.2	bleu	35	verb	list	3	10	nomatch	mon	-1	1	p	2.24
337.4968	0.0	+	35	verb	list	3	11	nomatch	mon	-1	1	p	2.24
337.8967	0.0	+	35	verb	list	3	12	nomatch	mon	-1	1	p	2.24
339.8958	0.0	MON	35	verb	list	3	13	nomatch	mon	-1	1	p	2.24
342.1948	0.0	+	35	verb	list	3	14	nomatch	mon	-1	1	p	2.24
342.1358	0.0	[response]	35	verb	list	3	15	nomatch	mon	-1	1	p	2.24
342.2947	0.0	+	36	noun	phrase	1	1	match	rouge	5	1	y	0.44843
342.8445	0.2	pwlmx	36	noun	phrase	1	2	match	rouge	5	1	y	0.44843
343.0444	0.0	+	36	noun	phrase	1	3	match	rouge	5	1	y	0.44843
343.44419999999997	0.2	bldw	36	noun	phrase	1	4	match	rouge	5	1	y	0.44843
343.6441	0.0	+	36	noun	phrase	1	5	match	rouge	5	1	y	0.44843
344.0439	0.2	jvp	36	noun	phrase	1	6	match	rouge	5	1	y	0.44843
344.2438	0.0	+	36	noun	phrase	1	7	match	rouge	5	1	y	0.44843
344.64369999999997	0.2	fqrxbkd	36	noun	phrase	1	8	match	rouge	5	1	y	0.44843
344.8436	0.0	+	36	noun	phrase	1	9	match	rouge	5	1	y	0.44843
345.2434	0.2	rouge	36	noun	phrase	1	10	match	rouge	5	1	y	0.44843
345.4433	0.0	+	36	noun	phrase	1	11	match	rouge	5	1	y	0.44843
345.8431	0.0	+	36	noun	phrase	1	12	match	rouge	5	1	y	0.44843
347.8422	0.0	ROUGE	36	noun	phrase	1	13	match	rouge	5	1	y	0.44843
348.3587	0.0	+	36	noun	phrase	1	14	match	rouge	5	1	y	0.44843
348.2907000000001	0.0	[response]	36	noun	phrase	1	15	match	rouge	5	1	y	0.44843
358.2376	0.0	+	37	verb	phrase	3	1	match	rouler	4	1	y	0.98658
358.7874	0.2	qdcz	37	verb	phrase	3	2	match	rouler	4	1	y	0.98658
358.9873	0.0	+	37	verb	phrase	3	3	match	rouler	4	1	y	0.98658
359.3871	0.2	tnwf	37	verb	phrase	3	4	match	rouler	4	1	y	0.98658
359.5871	0.0	+	37	verb	phrase	3	5	match	rouler	4	1	y	0.98658
359.9869	0.2	doit	37	verb	phrase	3	6	match	rouler	4	1	y	0.98658
360.1868	0.0	+	37	verb	phrase	3	7	match	rouler	4	1	y	0.98658
360.5866	0.2	rouler	37	verb	phrase	3	8	match	rouler	4	1	y	0.98658
360.7865	0.0	+	37	verb	phrase	3	9	match	rouler	4	1	y	0.98658
361.1863	0.2	ainsi	37	verb	phrase	3	10	match	rouler	4	1	y	0.98658
361.3862	0.0	+	37	verb	phrase	3	11	match	rouler	4	1	y	0.98658
361.7861	0.0	+	37	verb	phrase	3	12	match	rouler	4	1	y	0.98658
363.7852	0.0	ROULER	37	verb	phrase	3	13	match	rouler	4	1	y	0.98658
364.8347	0.0	+	37	verb	phrase	3	14	match	rouler	4	1	y	0.98658
364.7718	0.0	[response]	37	verb	phrase	3	15	match	rouler	4	1	y	0.98658
366.1841	0.0	+	38	verb	list	4	1	match	rouge	5	1	y	0.84998
366.7339	0.2	tbnjdm	38	verb	list	4	2	match	rouge	5	1	y	0.84998
366.9505	0.0	+	38	verb	list	4	3	match	rouge	5	1	y	0.84998
367.3503	0.2	luc	38	verb	list	4	4	match	rouge	5	1	y	0.84998
367.5502	0.0	+	38	verb	list	4	5	match	rouge	5	1	y	0.84998
367.95	0.2	mon	38	verb	list	4	6	match	rouge	5	1	y	0.84998
368.1499	0.0	+	38	verb	list	4	7	match	rouge	5	1	y	0.84998
368.5497	0.2	plonger	38	verb	list	4	8	match	rouge	5	1	y	0.84998
368.7497	0.0	+	38	verb	list	4	9	match	rouge	5	1	y	0.84998
369.1495	0.2	rouge	38	verb	list	4	10	match	rouge	5	1	y	0.84998
369.3494	0.0	+	38	verb	list	4	11	match	rouge	5	1	y	0.84998
369.7492	0.0	+	38	verb	list	4	12	match	rouge	5	1	y	0.84998
371.7483	0.0	ROUGE	38	verb	list	4	13	match	rouge	5	1	y	0.84998
372.6646	0.0	+	38	verb	list	4	14	match	rouge	5	1	y	0.84998
372.59830000000005	0.0	[response]	38	verb	list	4	15	match	rouge	5	1	y	0.84998
374.1473	0.0	+	39	noun	list	1	1	match	trop	5	1	y	2.3356
374.697	0.2	crwh	39	noun	list	1	2	match	trop	5	1	y	2.3356
374.8969	0.0	+	39	noun	list	1	3	match	trop	5	1	y	2.3356
375.2967	0.2	mqnx	39	noun	list	1	4	match	trop	5	1	y	2.3356
375.4967	0.0	+	39	noun	list	1	5	match	trop	5	1	y	2.3356
375.8965	0.2	gkpq	39	noun	list	1	6	match	trop	5	1	y	2.3356
376.0964	0.0	+	39	noun	list	1	7	match	trop	5	1	y	2.3356
376.4962	0.2	hfjwbdx	39	noun	list	1	8	match	trop	5	1	y	2.3356
376.6961	0.0	+	39	noun	list	1	9	match	trop	5	1	y	2.3356
377.096	0.2	trop	39	noun	list	1	10	match	trop	5	1	y	2.3356
377.2959	0.0	+	39	noun	list	1	11	match	trop	5	1	y	2.3356
377.6957	0.0	+	39	noun	list	1	12	match	trop	5	1	y	2.3356
379.6948	0.0	TROP	39	noun	list	1	13	match	trop	5	1	y	2.3356
382.0937	0.0	+	39	noun	list	1	14	match	trop	5	1	y	2.3356
382.0304	0.0	[response]	39	noun	list	1	15	match	trop	5	1	y	2.3356
382.1604	0.0	+	40	verb	phrase	3	1	match	vite	5	1	y	0.64675
382.6435	0.2	vpgkh	40	verb	phrase	3	2	match	vite	5	1	y	0.64675
382.8434	0.0	+	40	verb	phrase	3	3	match	vite	5	1	y	0.64675
383.2432	0.2	bcs	40	verb	phrase	3	4	match	vite	5	1	y	0.64675
383.4431	0.0	+	40	verb	phrase	3	5	match	vite	5	1	y	0.64675
383.843	0.2	peut	40	verb	phrase	3	6	match	vite	5	1	y	0.64675
384.0429	0.0	+	40	verb	phrase	3	7	match	vite	5	1	y	0.64675
384.4427	0.2	chasser	40	verb	phrase	3	8	match	vite	5	1	y	0.64675
384.6426	0.0	+	40	verb	phrase	3	9	match	vite	5	1	y	0.64675
385.0424	0.2	vite	40	verb	phrase	3	10	match	vite	5	1	y	0.64675
385.2424	0.0	+	40	verb	phrase	3	11	match	vite	5	1	y	0.64675
385.6422	0.0	+	40	verb	phrase	3	12	match	vite	5	1	y	0.64675
387.6413	0.0	VITE	40	verb	phrase	3	13	match	vite	5	1	y	0.64675
388.341	0.0	+	40	verb	phrase	3	14	match	vite	5	1	y	0.64675
388.288	0.0	[response]	40	verb	phrase	3	15	match	vite	5	1	y	0.64675
390.04019999999997	0.0	+	41	noun	list	1	1	match	moins	5	1	y	0.53617
390.59	0.2	brvs	41	noun	list	1	2	match	moins	5	1	y	0.53617
390.7899	0.0	+	41	noun	list	1	3	match	moins	5	1	y	0.53617
391.1897	0.2	jvbz	41	noun	list	1	4	match	moins	5	1	y	0.53617
391.3896	0.0	+	41	noun	list	1	5	match	moins	5	1	y	0.53617
391.7895	0.2	gkpq	41	noun	list	1	6	match	moins	5	1	y	0.53617
391.9894	0.0	+	41	noun	list	1	7	match	moins	5	1	y	0.53617
392.3892	0.2	jbtkcz	41	noun	list	1	8	match	moins	5	1	y	0.53617
392.5891	0.0	+	41	noun	list	1	9	match	moins	5	1	y	0.53617
392.9889	0.2	moins	41	noun	list	1	10	match	moins	5	1	y	0.53617
393.1888	0.0	+	41	noun	list	1	11	match	moins	5	1	y	0.53617
393.5887	0.0	+	41	noun	list	1	12	match	moins	5	1	y	0.53617
395.5878	0.0	MOINS	41	noun	list	1	13	match	moins	5	1	y	0.53617
396.1875	0.0	+	41	noun	list	1	14	match	moins	5	1	y	0.53617
396.1239	0.0	[response]	41	noun	list	1	15	match	moins	5	1	y	0.53617
397.9867	0.0	+	42	noun	list	1	1	nomatch	vite	-1	1	p	0.78973
398.5365	0.2	xrp	42	noun	list	1	2	nomatch	vite	-1	1	p	0.78973
398.7364	0.0	+	42	noun	list	1	3	nomatch	vite	-1	1	p	0.78973
399.1362	0.2	mfdt	42	noun	list	1	4	nomatch	vite	-1	1	p	0.78973
399.3361	0.0	+	42	noun	list	1	5	nomatch	vite	-1	1	p	0.78973
399.7359	0.2	vdfh	42	noun	list	1	6	nomatch	vite	-1	1	p	0.78973
399.9358	0.0	+	42	noun	list	1	7	nomatch	vite	-1	1	p	0.78973
400.3357	0.2	fqrxbkd	42	noun	list	1	8	nomatch	vite	-1	1	p	0.78973
400.5356	0.0	+	42	noun	list	1	9	nomatch	vite	-1	1	p	0.78973
400.9354	0.2	loin	42	noun	list	1	10	nomatch	vite	-1	1	p	0.78973
401.1353	0.0	+	42	noun	list	1	11	nomatch	vite	-1	1	p	0.78973
401.5351	0.0	+	42	noun	list	1	12	nomatch	vite	-1	1	p	0.78973
403.5343	0.0	VITE	42	noun	list	1	13	nomatch	vite	-1	1	p	0.78973
404.3839	0.0	+	42	noun	list	1	14	nomatch	vite	-1	1	p	0.78973
404.324	0.0	[response]	42	noun	list	1	15	nomatch	vite	-1	1	p	0.78973
413.9463	0.0	+	43	noun	phrase	4	1	nomatch	voilier	-1	1	p	1.053
414.4961	0.2	kmxgjpv	43	noun	phrase	4	2	nomatch	voilier	-1	1	p	1.053
414.69599999999997	0.0	+	43	noun	phrase	4	3	nomatch	voilier	-1	1	p	1.053
415.0958	0.2	avec	43	noun	phrase	4	4	nomatch	voilier	-1	1	p	1.053
415.2957	0.0	+	43	noun	phrase	4	5	nomatch	voilier	-1	1	p	1.053
415.6955	0.2	mon	43	noun	phrase	4	6	nomatch	voilier	-1	1	p	1.053
415.8954	0.0	+	43	noun	phrase	4	7	nomatch	voilier	-1	1	p	1.053
416.2953	0.2	grand	43	noun	phrase	4	8	nomatch	voilier	-1	1	p	1.053
416.4952	0.0	+	43	noun	phrase	4	9	nomatch	voilier	-1	1	p	1.053
416.895	0.2	casier	43	noun	phrase	4	10	nomatch	voilier	-1	1	p	1.053
417.0949	0.0	+	43	noun	phrase	4	11	nomatch	voilier	-1	1	p	1.053
417.49469999999997	0.0	+	43	noun	phrase	4	12	nomatch	voilier	-1	1	p	1.053
419.4939	0.0	VOILIER	43	noun	phrase	4	13	nomatch	voilier	-1	1	p	1.053
420.61	0.0	+	43	noun	phrase	4	14	nomatch	voilier	-1	1	p	1.053
420.5469	0.0	[response]	43	noun	phrase	4	15	nomatch	voilier	-1	1	p	1.053
421.8928	0.0	+	44	verb	phrase	2	1	nomatch	rouge	-1	1	p	0.76045
422.4425	0.2	swfvxpd	44	verb	phrase	2	2	nomatch	rouge	-1	1	p	0.76045
422.6425	0.0	+	44	verb	phrase	2	3	nomatch	rouge	-1	1	p	0.76045
423.0423	0.2	tnwf	44	verb	phrase	2	4	nomatch	rouge	-1	1	p	0.76045
423.24219999999997	0.0	+	44	verb	phrase	2	5	nomatch	rouge	-1	1	p	0.76045
423.642	0.2	kw	44	verb	phrase	2	6	nomatch	rouge	-1	1	p	0.76045
423.8419	0.0	+	44	verb	phrase	2	7	nomatch	rouge	-1	1	p	0.76045
424.2417	0.2	plonger	44	verb	phrase	2	8	nomatch	rouge	-1	1	p	0.76045
424.44169999999997	0.0	+	44	verb	phrase	2	9	nomatch	rouge	-1	1	p	0.76045
424.8415	0.2	tard	44	verb	phrase	2	10	nomatch	rouge	-1	1	p	0.76045
425.0414	0.0	+	44	verb	phrase	2	11	nomatch	rouge	-1	1	p	0.76045
425.4412	0.0	+	44	verb	phrase	2	12	nomatch	rouge	-1	1	p	0.76045
427.4403	0.0	ROUGE	44	verb	phrase	2	13	nomatch	rouge	-1	1	p	0.76045
428.2566	0.0	+	44	verb	phrase	2	14	nomatch	rouge	-1	1	p	0.76045
428.2008	0.0	[response]	44	verb	phrase	2	15	nomatch	rouge	-1	1	p	0.76045
437.8357	0.0	+	45	verb	phrase	4	1	nomatch	trop	-1	0	TIMEOUT	-1.0
438.3855	0.2	hpwz	45	verb	phrase	4	2	nomatch	trop	-1	0	TIMEOUT	-1.0
438.5854	0.0	+	45	verb	phrase	4	3	nomatch	trop	-1	0	TIMEOUT	-1.0
438.9852	0.2	paul	45	verb	phrase	4	4	nomatch	trop	-1	0	TIMEOUT	-1.0
439.1851	0.0	+	45	verb	phrase	4	5	nomatch	trop	-1	0	TIMEOUT	-1.0
439.585	0.2	doit	45	verb	phrase	4	6	nomatch	trop	-1	0	TIMEOUT	-1.0
439.7849	0.0	+	45	verb	phrase	4	7	nomatch	trop	-1	0	TIMEOUT	-1.0
440.1847	0.2	mieux	45	verb	phrase	4	8	nomatch	trop	-1	0	TIMEOUT	-1.0
440.3846	0.0	+	45	verb	phrase	4	9	nomatch	trop	-1	0	TIMEOUT	-1.0
440.7844	0.2	parader	45	verb	phrase	4	10	nomatch	trop	-1	0	TIMEOUT	-1.0
440.9848	0.0	+	45	verb	phrase	4	11	nomatch	trop	-1	0	TIMEOUT	-1.0
441.3842	0.0	+	45	verb	phrase	4	12	nomatch	trop	-1	0	TIMEOUT	-1.0
443.3999	0.0	TROP	45	verb	phrase	4	13	nomatch	trop	-1	0	TIMEOUT	-1.0
445.7989	0.0	+	46	verb	list	4	1	nomatch	noir	-1	1	p	0.78812
446.3986	0.2	hqtx	46	verb	list	4	2	nomatch	noir	-1	1	p	0.78812
446.5985	0.0	+	46	verb	list	4	3	nomatch	noir	-1	1	p	0.78812
446.9986	0.2	sans	46	verb	list	4	4	nomatch	noir	-1	1	p	0.78812
447.1983	0.0	+	46	verb	list	4	5	nomatch	noir	-1	1	p	0.78812
447.5981	0.2	va	46	verb	list	4	6	nomatch	noir	-1	1	p	0.78812
447.798	0.0	+	46	verb	list	4	7	nomatch	noir	-1	1	p	0.78812
448.1978	0.2	grand	46	verb	list	4	8	nomatch	noir	-1	1	p	0.78812
448.3977	0.0	+	46	verb	list	4	9	nomatch	noir	-1	1	p	0.78812
448.7975	0.2	plonger	46	verb	list	4	10	nomatch	noir	-1	1	p	0.78812
448.9975	0.0	+	46	verb	list	4	11	nomatch	noir	-1	1	p	0.78812
449.3973	0.0	+	46	verb	list	4	12	nomatch	noir	-1	1	p	0.78812
451.39639999999997	0.0	NOIR	46	verb	list	4	13	nomatch	noir	-1	1	p	0.78812
452.246	0.0	+	46	verb	list	4	14	nomatch	noir	-1	1	p	0.78812
452.1845	0.0	[response]	46	verb	list	4	15	nomatch	noir	-1	1	p	0.78812
453.7953	0.0	+	47	noun	phrase	4	1	match	son	3	1	y	0.91409
454.3451	0.2	vzkshn	47	noun	phrase	4	2	match	son	3	1	y	0.91409
454.545	0.0	+	47	noun	phrase	4	3	match	son	3	1	y	0.91409
454.9448	0.2	sur	47	noun	phrase	4	4	match	son	3	1	y	0.91409
455.1447	0.0	+	47	noun	phrase	4	5	match	son	3	1	y	0.91409
455.5446	0.2	son	47	noun	phrase	4	6	match	son	3	1	y	0.91409
455.7445	0.0	+	47	noun	phrase	4	7	match	son	3	1	y	0.91409
456.1443	0.2	vieux	47	noun	phrase	4	8	match	son	3	1	y	0.91409
456.3442	0.0	+	47	noun	phrase	4	9	match	son	3	1	y	0.91409
456.74399999999997	0.2	cendrier	47	noun	phrase	4	10	match	son	3	1	y	0.91409
456.9439	0.0	+	47	noun	phrase	4	11	match	son	3	1	y	0.91409
457.3438	0.0	+	47	noun	phrase	4	12	match	son	3	1	y	0.91409
459.3429	0.0	SON	47	noun	phrase	4	13	match	son	3	1	y	0.91409
460.3091	0.0	+	47	noun	phrase	4	14	match	son	3	1	y	0.91409
460.25700000000006	0.0	[response]	47	noun	phrase	4	15	match	son	3	1	y	0.91409
461.7418	0.0	+	48	verb	phrase	1	1	match	rouler	5	1	y	0.67076
462.2916	0.2	lmtsnz	48	verb	phrase	1	2	match	rouler	5	1	y	0.67076
462.4915	0.0	+	48	verb	phrase	1	3	match	rouler	5	1	y	0.67076
462.8913	0.2	bcs	48	verb	phrase	1	4	match	rouler	5	1	y	0.67076
463.09119999999996	0.0	+	48	verb	phrase	1	5	match	rouler	5	1	y	0.67076
463.49109999999996	0.2	vdfh	48	verb	phrase	1	6	match	rouler	5	1	y	0.67076
463.69089999999994	0.0	+	48	verb	phrase	1	7	match	rouler	5	1	y	0.67076
464.09079999999994	0.2	xchg	48	verb	phrase	1	8	match	rouler	5	1	y	0.67076
464.2908	0.0	+	48	verb	phrase	1	9	match	rouler	5	1	y	0.67076
464.69050000000004	0.2	rouler	48	verb	phrase	1	10	match	rouler	5	1	y	0.67076
464.8904	0.0	+	48	verb	phrase	1	11	match	rouler	5	1	y	0.67076
465.2902	0.0	+	48	verb	phrase	1	12	match	rouler	5	1	y	0.67076
467.2893	0.0	ROULER	48	verb	phrase	1	13	match	rouler	5	1	y	0.67076
468.02239999999995	0.0	+	48	verb	phrase	1	14	match	rouler	5	1	y	0.67076
467.9601	0.0	[response]	48	verb	phrase	1	15	match	rouler	5	1	y	0.67076
469.6883	0.0	+	49	verb	list	2	1	match	noir	5	1	y	0.65882
470.23799999999994	0.2	ctpjqf	49	verb	list	2	2	match	noir	5	1	y	0.65882
470.438	0.0	+	49	verb	list	2	3	match	noir	5	1	y	0.65882
470.8378	0.2	dgtf	49	verb	list	2	4	match	noir	5	1	y	0.65882
471.0377	0.0	+	49	verb	list	2	5	match	noir	5	1	y	0.65882
471.4375	0.2	gkpq	49	verb	list	2	6	match	noir	5	1	y	0.65882
471.63739999999996	0.0	+	49	verb	list	2	7	match	noir	5	1	y	0.65882
472.03729999999996	0.2	voyager	49	verb	list	2	8	match	noir	5	1	y	0.65882
472.23720000000003	0.0	+	49	verb	list	2	9	match	noir	5	1	y	0.65882
472.63699999999994	0.2	noir	49	verb	list	2	10	match	noir	5	1	y	0.65882
472.8369	0.0	+	49	verb	list	2	11	match	noir	5	1	y	0.65882
473.23670000000004	0.0	+	49	verb	list	2	12	match	noir	5	1	y	0.65882
475.23580000000004	0.0	NOIR	49	verb	list	2	13	match	noir	5	1	y	0.65882
475.95219999999995	0.0	+	49	verb	list	2	14	match	noir	5	1	y	0.65882
475.89469999999994	0.0	[response]	49	verb	list	2	15	match	noir	5	1	y	0.65882
477.63480000000004	0.0	+	50	noun	phrase	3	1	match	grand	4	1	y	0.72312
478.18449999999996	0.2	sgnzdfc	50	noun	phrase	3	2	match	grand	4	1	y	0.72312
478.3844	0.0	+	50	noun	phrase	3	3	match	grand	4	1	y	0.72312
478.78430000000003	0.2	wtx	50	noun	phrase	3	4	match	grand	4	1	y	0.72312
478.9842	0.0	+	50	noun	phrase	3	5	match	grand	4	1	y	0.72312
479.384	0.2	mon	50	noun	phrase	3	6	match	grand	4	1	y	0.72312
479.58389999999997	0.0	+	50	noun	phrase	3	7	match	grand	4	1	y	0.72312
480.0004	0.2	grand	50	noun	phrase	3	8	match	grand	4	1	y	0.72312
480.20029999999997	0.0	+	50	noun	phrase	3	9	match	grand	4	1	y	0.72312
480.6001	0.2	tablier	50	noun	phrase	3	10	match	grand	4	1	y	0.72312
480.79999999999995	0.0	+	50	noun	phrase	3	11	match	grand	4	1	y	0.72312
481.19989999999996	0.0	+	50	noun	phrase	3	12	match	grand	4	1	y	0.72312
483.19899999999996	0.0	GRAND	50	noun	phrase	3	13	match	grand	4	1	y	0.72312
483.98199999999997	0.0	+	50	noun	phrase	3	14	match	grand	4	1	y	0.72312
483.9221	0.0	[response]	50	noun	phrase	3	15	match	grand	4	1	y	0.72312
493.59439999999995	0.0	+	51	noun	list	1	1	nomatch	rocher	-1	1	p	1.2518
494.1441	0.2	lwbks	51	noun	list	1	2	nomatch	rocher	-1	1	p	1.2518
494.34400000000005	0.0	+	51	noun	list	1	3	nomatch	rocher	-1	1	p	1.2518
494.74389999999994	0.2	vdsk	51	noun	list	1	4	nomatch	rocher	-1	1	p	1.2518
494.9438	0.0	+	51	noun	list	1	5	nomatch	rocher	-1	1	p	1.2518
495.34360000000004	0.2	jwq	51	noun	list	1	6	nomatch	rocher	-1	1	p	1.2518
495.5435	0.0	+	51	noun	list	1	7	nomatch	rocher	-1	1	p	1.2518
495.9433	0.2	npjdrkfq	51	noun	list	1	8	nomatch	rocher	-1	1	p	1.2518
496.1432	0.0	+	51	noun	list	1	9	nomatch	rocher	-1	1	p	1.2518
496.5431	0.2	sablier	51	noun	list	1	10	nomatch	rocher	-1	1	p	1.2518
496.74299999999994	0.0	+	51	noun	list	1	11	nomatch	rocher	-1	1	p	1.2518
497.14279999999997	0.0	+	51	noun	list	1	12	nomatch	rocher	-1	1	p	1.2518
499.14189999999996	0.0	ROCHER	51	noun	list	1	13	nomatch	rocher	-1	1	p	1.2518
500.45799999999997	0.0	+	51	noun	list	1	14	nomatch	rocher	-1	1	p	1.2518
500.39369999999997	0.0	[response]	51	noun	list	1	15	nomatch	rocher	-1	1	p	1.2518
501.54089999999997	0.0	+	52	noun	list	1	1	nomatch	jade	-1	1	p	0.68263
502.0906	0.2	qdrpbst	52	noun	list	1	2	nomatch	jade	-1	1	p	0.68263
502.29049999999995	0.0	+	52	noun	list	1	3	nomatch	jade	-1	1	p	0.68263
502.6903	0.2	bldw	52	noun	list	1	4	nomatch	jade	-1	1	p	0.68263
502.8903	0.0	+	52	noun	list	1	5	nomatch	jade	-1	1	p	0.68263
503.29009999999994	0.2	vdfh	52	noun	list	1	6	nomatch	jade	-1	1	p	0.68263
503.49	0.0	+	52	noun	list	1	7	nomatch	jade	-1	1	p	0.68263
503.88980000000004	0.2	bsdln	52	noun	list	1	8	nomatch	jade	-1	1	p	0.68263
504.0897	0.0	+	52	noun	list	1	9	nomatch	jade	-1	1	p	0.68263
504.4895	0.2	cendrier	52	noun	list	1	10	nomatch	jade	-1	1	p	0.68263
504.68949999999995	0.0	+	52	noun	list	1	11	nomatch	jade	-1	1	p	0.68263
505.0893	0.0	+	52	noun	list	1	12	nomatch	jade	-1	1	p	0.68263
507.0884	0.0	JADE	52	noun	list	1	13	nomatch	jade	-1	1	p	0.68263
507.83809999999994	0.0	+	52	noun	list	1	14	nomatch	jade	-1	1	p	0.68263
507.77099999999996	0.0	[response]	52	noun	list	1	15	nomatch	jade	-1	1	p	0.68263
509.4873	0.0	+	53	verb	list	2	1	nomatch	mieux	-1	0	TIMEOUT	-1.0
510.0371	0.2	gjswfpc	53	verb	list	2	2	nomatch	mieux	-1	0	TIMEOUT	-1.0
510.23699999999997	0.0	+	53	verb	list	2	3	nomatch	mieux	-1	0	TIMEOUT	-1.0
510.6368	0.2	jdlv	53	verb	list	2	4	nomatch	mieux	-1	0	TIMEOUT	-1.0
510.83669999999995	0.0	+	53	verb	list	2	5	nomatch	mieux	-1	0	TIMEOUT	-1.0
511.23659999999995	0.2	jwq	53	verb	list	2	6	nomatch	mieux	-1	0	TIMEOUT	-1.0
511.4365	0.0	+	53	verb	list	2	7	nomatch	mieux	-1	0	TIMEOUT	-1.0
511.83629999999994	0.2	chasser	53	verb	list	2	8	nomatch	mieux	-1	0	TIMEOUT	-1.0
512.0362	0.0	+	53	verb	list	2	9	nomatch	mieux	-1	0	TIMEOUT	-1.0
512.436	0.2	blanc	53	verb	list	2	10	nomatch	mieux	-1	0	TIMEOUT	-1.0
512.6359	0.0	+	53	verb	list	2	11	nomatch	mieux	-1	0	TIMEOUT	-1.0
513.0358	0.0	+	53	verb	list	2	12	nomatch	mieux	-1	0	TIMEOUT	-1.0
515.0349	0.0	MIEUX	53	verb	list	2	13	nomatch	mieux	-1	0	TIMEOUT	-1.0
517.4505	0.0	+	54	verb	phrase	1	1	nomatch	cendrier	-1	0	y	1.31
518.0502	0.2	dsklcq	54	verb	phrase	1	2	nomatch	cendrier	-1	0	y	1.31
518.2501	0.0	+	54	verb	phrase	1	3	nomatch	cendrier	-1	0	y	1.31
518.6499	0.2	dgtf	54	verb	phrase	1	4	nomatch	cendrier	-1	0	y	1.31
518.8499	0.0	+	54	verb	phrase	1	5	nomatch	cendrier	-1	0	y	1.31
519.2498	0.2	vdfh	54	verb	phrase	1	6	nomatch	cendrier	-1	0	y	1.31
519.4496	0.0	+	54	verb	phrase	1	7	nomatch	cendrier	-1	0	y	1.31
519.8494	0.2	txwfg	54	verb	phrase	1	8	nomatch	cendrier	-1	0	y	1.31
520.0493	0.0	+	54	verb	phrase	1	9	nomatch	cendrier	-1	0	y	1.31
520.4491	0.2	jongler	54	verb	phrase	1	10	nomatch	cendrier	-1	0	y	1.31
520.6491	0.0	+	54	verb	phrase	1	11	nomatch	cendrier	-1	0	y	1.31
521.0489	0.0	+	54	verb	phrase	1	12	nomatch	cendrier	-1	0	y	1.31
523.048	0.0	CENDRIER	54	verb	phrase	1	13	nomatch	cendrier	-1	0	y	1.31
524.4141	0.0	+	54	verb	phrase	1	14	nomatch	cendrier	-1	0	y	1.31
524.358	0.0	[response]	54	verb	phrase	1	15	nomatch	cendrier	-1	0	y	1.31
525.4469	0.0	+	55	verb	phrase	4	1	match	plonger	5	1	y	0.72704
525.9967	0.2	hkmjd	55	verb	phrase	4	2	match	plonger	5	1	y	0.72704
526.1966	0.0	+	55	verb	phrase	4	3	match	plonger	5	1	y	0.72704
526.5964	0.2	jean	55	verb	phrase	4	4	match	plonger	5	1	y	0.72704
526.7963	0.0	+	55	verb	phrase	4	5	match	plonger	5	1	y	0.72704
527.1962	0.2	doit	55	verb	phrase	4	6	match	plonger	5	1	y	0.72704
527.3961	0.0	+	55	verb	phrase	4	7	match	plonger	5	1	y	0.72704
527.7959	0.2	trop	55	verb	phrase	4	8	match	plonger	5	1	y	0.72704
527.9958	0.0	+	55	verb	phrase	4	9	match	plonger	5	1	y	0.72704
528.3956	0.2	plonger	55	verb	phrase	4	10	match	plonger	5	1	y	0.72704
528.5955	0.0	+	55	verb	phrase	4	11	match	plonger	5	1	y	0.72704
528.9954	0.0	+	55	verb	phrase	4	12	match	plonger	5	1	y	0.72704
530.9945	0.0	PLONGER	55	verb	phrase	4	13	match	plonger	5	1	y	0.72704
531.7775	0.0	+	55	verb	phrase	4	14	match	plonger	5	1	y	0.72704
531.7215	0.0	[response]	55	verb	phrase	4	15	match	plonger	5	1	y	0.72704
533.3934	0.0	+	56	verb	list	1	1	match	blanc	5	1	y	0.56705
533.9432	0.2	zlwhmtq	56	verb	list	1	2	match	blanc	5	1	y	0.56705
534.1431	0.0	+	56	verb	list	1	3	match	blanc	5	1	y	0.56705
534.5429	0.2	jdlv	56	verb	list	1	4	match	blanc	5	1	y	0.56705
534.7428	0.0	+	56	verb	list	1	5	match	blanc	5	1	y	0.56705
535.1426	0.2	jvp	56	verb	list	1	6	match	blanc	5	1	y	0.56705
535.3426	0.0	+	56	verb	list	1	7	match	blanc	5	1	y	0.56705
535.7424	0.2	lrmsdpq	56	verb	list	1	8	match	blanc	5	1	y	0.56705
535.9423	0.0	+	56	verb	list	1	9	match	blanc	5	1	y	0.56705
536.3421	0.2	blanc	56	verb	list	1	10	match	blanc	5	1	y	0.56705
536.542	0.0	+	56	verb	list	1	11	match	blanc	5	1	y	0.56705
536.9418	0.0	+	56	verb	list	1	12	match	blanc	5	1	y	0.56705
538.941	0.0	BLANC	56	verb	list	1	13	match	blanc	5	1	y	0.56705
539.574	0.0	+	56	verb	list	1	14	match	blanc	5	1	y	0.56705
539.5080000000002	0.0	[response]	56	verb	list	1	15	match	blanc	5	1	y	0.56705
541.3399	0.0	+	57	verb	phrase	4	1	match	vite	5	1	y	0.7007300000000001
541.8897	0.2	jsxf	57	verb	phrase	4	2	match	vite	5	1	y	0.7007300000000001
542.0896	0.0	+	57	verb	phrase	4	3	match	vite	5	1	y	0.7007300000000001
542.4894	0.2	adam	57	verb	phrase	4	4	match	vite	5	1	y	0.7007300000000001
542.6893	0.0	+	57	verb	phrase	4	5	match	vite	5	1	y	0.7007300000000001
543.0891	0.2	peut	57	verb	phrase	4	6	match	vite	5	1	y	0.7007300000000001
543.289	0.0	+	57	verb	phrase	4	7	match	vite	5	1	y	0.7007300000000001
543.6889	0.2	nager	57	verb	phrase	4	8	match	vite	5	1	y	0.7007300000000001
543.8888	0.0	+	57	verb	phrase	4	9	match	vite	5	1	y	0.7007300000000001
544.2886	0.2	vite	57	verb	phrase	4	10	match	vite	5	1	y	0.7007300000000001
544.4885	0.0	+	57	verb	phrase	4	11	match	vite	5	1	y	0.7007300000000001
544.8883	0.0	+	57	verb	phrase	4	12	match	vite	5	1	y	0.7007300000000001
546.8874	0.0	VITE	57	verb	phrase	4	13	match	vite	5	1	y	0.7007300000000001
547.6538	0.0	+	57	verb	phrase	4	14	match	vite	5	1	y	0.7007300000000001
547.5882	0.0	[response]	57	verb	phrase	4	15	match	vite	5	1	y	0.7007300000000001
549.2864	0.0	+	58	verb	list	3	1	nomatch	luc	-1	1	p	0.7475900000000001
549.8361	0.2	pdbl	58	verb	list	3	2	nomatch	luc	-1	1	p	0.7475900000000001
550.0361	0.0	+	58	verb	list	3	3	nomatch	luc	-1	1	p	0.7475900000000001
550.4359	0.2	jvbz	58	verb	list	3	4	nomatch	luc	-1	1	p	0.7475900000000001
550.6358	0.0	+	58	verb	list	3	5	nomatch	luc	-1	1	p	0.7475900000000001
551.0356	0.2	son	58	verb	list	3	6	nomatch	luc	-1	1	p	0.7475900000000001
551.2355	0.0	+	58	verb	list	3	7	nomatch	luc	-1	1	p	0.7475900000000001
551.6353	0.2	danser	58	verb	list	3	8	nomatch	luc	-1	1	p	0.7475900000000001
551.8352	0.0	+	58	verb	list	3	9	nomatch	luc	-1	1	p	0.7475900000000001
552.2351	0.2	rouge	58	verb	list	3	10	nomatch	luc	-1	1	p	0.7475900000000001
552.435	0.0	+	58	verb	list	3	11	nomatch	luc	-1	1	p	0.7475900000000001
552.8348	0.0	+	58	verb	list	3	12	nomatch	luc	-1	1	p	0.7475900000000001
554.8339	0.0	LUC	58	verb	list	3	13	nomatch	luc	-1	1	p	0.7475900000000001
555.6336	0.0	+	58	verb	list	3	14	nomatch	luc	-1	1	p	0.7475900000000001
555.5815	0.0	[response]	58	verb	list	3	15	nomatch	luc	-1	1	p	0.7475900000000001
557.2495	0.0	+	59	noun	list	4	1	nomatch	tablier	-1	0	y	1.661
557.7993	0.2	hdfksq	59	noun	list	4	2	nomatch	tablier	-1	0	y	1.661
557.9992	0.0	+	59	noun	list	4	3	nomatch	tablier	-1	0	y	1.661
558.399	0.2	sous	59	noun	list	4	4	nomatch	tablier	-1	0	y	1.661
558.5989	0.0	+	59	noun	list	4	5	nomatch	tablier	-1	0	y	1.661
558.999	0.2	peut	59	noun	list	4	6	nomatch	tablier	-1	0	y	1.661
559.1987	0.0	+	59	noun	list	4	7	nomatch	tablier	-1	0	y	1.661
559.5985	0.2	sablier	59	noun	list	4	8	nomatch	tablier	-1	0	y	1.661
559.7984	0.0	+	59	noun	list	4	9	nomatch	tablier	-1	0	y	1.661
560.1982	0.2	vite	59	noun	list	4	10	nomatch	tablier	-1	0	y	1.661
560.3981	0.0	+	59	noun	list	4	11	nomatch	tablier	-1	0	y	1.661
560.798	0.0	+	59	noun	list	4	12	nomatch	tablier	-1	0	y	1.661
562.7971	0.0	TABLIER	59	noun	list	4	13	nomatch	tablier	-1	0	y	1.661
564.513	0.0	+	59	noun	list	4	14	nomatch	tablier	-1	0	y	1.661
564.458	0.0	[response]	59	noun	list	4	15	nomatch	tablier	-1	0	y	1.661
565.196	0.0	+	60	verb	list	2	1	match	petit	4	1	y	0.8044500000000001
565.7458	0.2	dkql	60	verb	list	2	2	match	petit	4	1	y	0.8044500000000001
565.9457	0.0	+	60	verb	list	2	3	match	petit	4	1	y	0.8044500000000001
566.3455	0.2	cfhm	60	verb	list	2	4	match	petit	4	1	y	0.8044500000000001
566.5454	0.0	+	60	verb	list	2	5	match	petit	4	1	y	0.8044500000000001
566.9452	0.2	kw	60	verb	list	2	6	match	petit	4	1	y	0.8044500000000001
567.1451	0.0	+	60	verb	list	2	7	match	petit	4	1	y	0.8044500000000001
567.545	0.2	petit	60	verb	list	2	8	match	petit	4	1	y	0.8044500000000001
567.7449	0.0	+	60	verb	list	2	9	match	petit	4	1	y	0.8044500000000001
568.1447	0.2	voyager	60	verb	list	2	10	match	petit	4	1	y	0.8044500000000001
568.3446	0.0	+	60	verb	list	2	11	match	petit	4	1	y	0.8044500000000001
568.7444	0.0	+	60	verb	list	2	12	match	petit	4	1	y	0.8044500000000001
570.7435	0.0	PETIT	60	verb	list	2	13	match	petit	4	1	y	0.8044500000000001
571.6098	0.0	+	60	verb	list	2	14	match	petit	4	1	y	0.8044500000000001
571.548	0.0	[response]	60	verb	list	2	15	match	petit	4	1	y	0.8044500000000001
581.1389	0.0	+	61	noun	list	3	1	nomatch	dans	-1	1	p	1.5886
581.6887	0.2	fbrmk	61	noun	list	3	2	nomatch	dans	-1	1	p	1.5886
581.8886	0.0	+	61	noun	list	3	3	nomatch	dans	-1	1	p	1.5886
582.2884	0.2	bldw	61	noun	list	3	4	nomatch	dans	-1	1	p	1.5886
582.4883	0.0	+	61	noun	list	3	5	nomatch	dans	-1	1	p	1.5886
582.8882	0.2	doit	61	noun	list	3	6	nomatch	dans	-1	1	p	1.5886
583.0880999999999	0.0	+	61	noun	list	3	7	nomatch	dans	-1	1	p	1.5886
583.4879	0.2	boîtier	61	noun	list	3	8	nomatch	dans	-1	1	p	1.5886
583.6878	0.0	+	61	noun	list	3	9	nomatch	dans	-1	1	p	1.5886
584.0876	0.2	tôt	61	noun	list	3	10	nomatch	dans	-1	1	p	1.5886
584.2875	0.0	+	61	noun	list	3	11	nomatch	dans	-1	1	p	1.5886
584.6874	0.0	+	61	noun	list	3	12	nomatch	dans	-1	1	p	1.5886
586.6865	0.0	DANS	61	noun	list	3	13	nomatch	dans	-1	1	p	1.5886
588.3357	0.0	+	61	noun	list	3	14	nomatch	dans	-1	1	p	1.5886
588.2751	0.0	[response]	61	noun	list	3	15	nomatch	dans	-1	1	p	1.5886
589.0854	0.0	+	62	verb	phrase	1	1	match	trop	5	1	y	0.89997
589.6351999999999	0.2	lwmrnh	62	verb	phrase	1	2	match	trop	5	1	y	0.89997
589.8351	0.0	+	62	verb	phrase	1	3	match	trop	5	1	y	0.89997
590.2349	0.2	jvbz	62	verb	phrase	1	4	match	trop	5	1	y	0.89997
590.4348	0.0	+	62	verb	phrase	1	5	match	trop	5	1	y	0.89997
590.8346	0.2	kw	62	verb	phrase	1	6	match	trop	5	1	y	0.89997
591.0346	0.0	+	62	verb	phrase	1	7	match	trop	5	1	y	0.89997
591.4344	0.2	pvrdkzg	62	verb	phrase	1	8	match	trop	5	1	y	0.89997
591.6342999999999	0.0	+	62	verb	phrase	1	9	match	trop	5	1	y	0.89997
592.0341	0.2	trop	62	verb	phrase	1	10	match	trop	5	1	y	0.89997
592.234	0.0	+	62	verb	phrase	1	11	match	trop	5	1	y	0.89997
592.6339	0.0	+	62	verb	phrase	1	12	match	trop	5	1	y	0.89997
594.6496	0.0	TROP	62	verb	phrase	1	13	match	trop	5	1	y	0.89997
595.6159	0.0	+	62	verb	phrase	1	14	match	trop	5	1	y	0.89997
595.5495999999999	0.0	[response]	62	verb	phrase	1	15	match	trop	5	1	y	0.89997
597.0486	0.0	+	63	noun	phrase	2	1	nomatch	tard	-1	1	p	0.89291
597.5983	0.2	vfxht	63	noun	phrase	2	2	nomatch	tard	-1	1	p	0.89291
597.7982	0.0	+	63	noun	phrase	2	3	nomatch	tard	-1	1	p	0.89291
598.198	0.2	cxgm	63	noun	phrase	2	4	nomatch	tard	-1	1	p	0.89291
598.398	0.0	+	63	noun	phrase	2	5	nomatch	tard	-1	1	p	0.89291
598.7977999999999	0.2	gkpq	63	noun	phrase	2	6	nomatch	tard	-1	1	p	0.89291
598.9977	0.0	+	63	noun	phrase	2	7	nomatch	tard	-1	1	p	0.89291
599.3975	0.2	boîtier	63	noun	phrase	2	8	nomatch	tard	-1	1	p	0.89291
599.5974	0.0	+	63	noun	phrase	2	9	nomatch	tard	-1	1	p	0.89291
599.9973	0.2	rouge	63	noun	phrase	2	10	nomatch	tard	-1	1	p	0.89291
600.1972	0.0	+	63	noun	phrase	2	11	nomatch	tard	-1	1	p	0.89291
600.597	0.0	+	63	noun	phrase	2	12	nomatch	tard	-1	1	p	0.89291
602.5961	0.0	TARD	63	noun	phrase	2	13	nomatch	tard	-1	1	p	0.89291
603.5457	0.0	+	63	noun	phrase	2	14	nomatch	tard	-1	1	p	0.89291
603.4890000000001	0.0	[response]	63	noun	phrase	2	15	nomatch	tard	-1	1	p	0.89291
604.995	0.0	+	64	verb	list	1	1	nomatch	vert	-1	1	p	0.78717
605.5448	0.2	fvjmzkh	64	verb	list	1	2	nomatch	vert	-1	1	p	0.78717
605.7447	0.0	+	64	verb	list	1	3	nomatch	vert	-1	1	p	0.78717
606.1445	0.2	jdlv	64	verb	list	1	4	nomatch	vert	-1	1	p	0.78717
606.3444	0.0	+	64	verb	list	1	5	nomatch	vert	-1	1	p	0.78717
606.7443	0.2	jwq	64	verb	list	1	6	nomatch	vert	-1	1	p	0.78717
606.9442	0.0	+	64	verb	list	1	7	nomatch	vert	-1	1	p	0.78717
607.344	0.2	snpxtm	64	verb	list	1	8	nomatch	vert	-1	1	p	0.78717
607.5439	0.0	+	64	verb	list	1	9	nomatch	vert	-1	1	p	0.78717
607.9437	0.2	noir	64	verb	list	1	10	nomatch	vert	-1	1	p	0.78717
608.1436	0.0	+	64	verb	list	1	11	nomatch	vert	-1	1	p	0.78717
608.5435	0.0	+	64	verb	list	1	12	nomatch	vert	-1	1	p	0.78717
610.5426	0.0	VERT	64	verb	list	1	13	nomatch	vert	-1	1	p	0.78717
611.3922	0.0	+	64	verb	list	1	14	nomatch	vert	-1	1	p	0.78717
611.3298	0.0	[response]	64	verb	list	1	15	nomatch	vert	-1	1	p	0.78717
612.9415	0.0	+	65	verb	list	4	1	match	danser	5	1	y	0.5612700000000002
613.4913	0.2	lmtwj	65	verb	list	4	2	match	danser	5	1	y	0.5612700000000002
613.6912	0.0	+	65	verb	list	4	3	match	danser	5	1	y	0.5612700000000002
614.091	0.2	sur	65	verb	list	4	4	match	danser	5	1	y	0.5612700000000002
614.2909	0.0	+	65	verb	list	4	5	match	danser	5	1	y	0.5612700000000002
614.6908	0.2	peut	65	verb	list	4	6	match	danser	5	1	y	0.5612700000000002
614.8907	0.0	+	65	verb	list	4	7	match	danser	5	1	y	0.5612700000000002
615.2905	0.2	vieux	65	verb	list	4	8	match	danser	5	1	y	0.5612700000000002
615.4904	0.0	+	65	verb	list	4	9	match	danser	5	1	y	0.5612700000000002
615.8902	0.2	danser	65	verb	list	4	10	match	danser	5	1	y	0.5612700000000002
616.0901	0.0	+	65	verb	list	4	11	match	danser	5	1	y	0.5612700000000002
616.49	0.0	+	65	verb	list	4	12	match	danser	5	1	y	0.5612700000000002
618.4891	0.0	DANSER	65	verb	list	4	13	match	danser	5	1	y	0.5612700000000002
619.1055	0.0	+	65	verb	list	4	14	match	danser	5	1	y	0.5612700000000002
619.0503	0.0	[response]	65	verb	list	4	15	match	danser	5	1	y	0.5612700000000002
628.8845	0.0	+	66	verb	list	2	1	nomatch	plonger	-1	1	p	1.3356
629.4342	0.2	qpvl	66	verb	list	2	2	nomatch	plonger	-1	1	p	1.3356
629.6341	0.0	+	66	verb	list	2	3	nomatch	plonger	-1	1	p	1.3356
630.034	0.2	cxgm	66	verb	list	2	4	nomatch	plonger	-1	1	p	1.3356
630.2339	0.0	+	66	verb	list	2	5	nomatch	plonger	-1	1	p	1.3356
630.6504	0.2	kw	66	verb	list	2	6	nomatch	plonger	-1	1	p	1.3356
630.8503	0.0	+	66	verb	list	2	7	nomatch	plonger	-1	1	p	1.3356
631.2501	0.2	nouveau	66	verb	list	2	8	nomatch	plonger	-1	1	p	1.3356
631.45	0.0	+	66	verb	list	2	9	nomatch	plonger	-1	1	p	1.3356
631.8498	0.2	rouler	66	verb	list	2	10	nomatch	plonger	-1	1	p	1.3356
632.0497	0.0	+	66	verb	list	2	11	nomatch	plonger	-1	1	p	1.3356
632.4495	0.0	+	66	verb	list	2	12	nomatch	plonger	-1	1	p	1.3356
634.4487	0.0	PLONGER	66	verb	list	2	13	nomatch	plonger	-1	1	p	1.3356
635.8481	0.0	+	66	verb	list	2	14	nomatch	plonger	-1	1	p	1.3356
635.7843	0.0	[response]	66	verb	list	2	15	nomatch	plonger	-1	1	p	1.3356
644.8441	0.0	+	67	noun	phrase	1	1	match	grand	5	1	y	0.6452900000000001
645.3937999999999	0.2	zmj	67	noun	phrase	1	2	match	grand	5	1	y	0.6452900000000001
645.5937	0.0	+	67	noun	phrase	1	3	match	grand	5	1	y	0.6452900000000001
645.9936	0.2	wtx	67	noun	phrase	1	4	match	grand	5	1	y	0.6452900000000001
646.1935	0.0	+	67	noun	phrase	1	5	match	grand	5	1	y	0.6452900000000001
646.5933	0.2	jwq	67	noun	phrase	1	6	match	grand	5	1	y	0.6452900000000001
646.7932	0.0	+	67	noun	phrase	1	7	match	grand	5	1	y	0.6452900000000001
647.193	0.2	fqrxbkd	67	noun	phrase	1	8	match	grand	5	1	y	0.6452900000000001
647.3928999999999	0.0	+	67	noun	phrase	1	9	match	grand	5	1	y	0.6452900000000001
647.7927999999999	0.2	grand	67	noun	phrase	1	10	match	grand	5	1	y	0.6452900000000001
647.9927	0.0	+	67	noun	phrase	1	11	match	grand	5	1	y	0.6452900000000001
648.3925	0.0	+	67	noun	phrase	1	12	match	grand	5	1	y	0.6452900000000001
650.3916	0.0	GRAND	67	noun	phrase	1	13	match	grand	5	1	y	0.6452900000000001
651.0913	0.0	+	67	noun	phrase	1	14	match	grand	5	1	y	0.6452900000000001
651.0369000000001	0.0	[response]	67	noun	phrase	1	15	match	grand	5	1	y	0.6452900000000001
652.7906	0.0	+	68	verb	phrase	1	1	nomatch	jongler	-1	1	p	1.7822
653.3403	0.2	jlxm	68	verb	phrase	1	2	nomatch	jongler	-1	1	p	1.7822
653.5402	0.0	+	68	verb	phrase	1	3	nomatch	jongler	-1	1	p	1.7822
653.9399999999999	0.2	jdlv	68	verb	phrase	1	4	nomatch	jongler	-1	1	p	1.7822
654.14	0.0	+	68	verb	phrase	1	5	nomatch	jongler	-1	1	p	1.7822
654.5398	0.2	vdfh	68	verb	phrase	1	6	nomatch	jongler	-1	1	p	1.7822
654.7397	0.0	+	68	verb	phrase	1	7	nomatch	jongler	-1	1	p	1.7822
655.1395	0.2	cwmn	68	verb	phrase	1	8	nomatch	jongler	-1	1	p	1.7822
655.3394	0.0	+	68	verb	phrase	1	9	nomatch	jongler	-1	1	p	1.7822
655.7392	0.2	voyager	68	verb	phrase	1	10	nomatch	jongler	-1	1	p	1.7822
655.9392	0.0	+	68	verb	phrase	1	11	nomatch	jongler	-1	1	p	1.7822
656.3389999999999	0.0	+	68	verb	phrase	1	12	nomatch	jongler	-1	1	p	1.7822
658.3380999999999	0.0	JONGLER	68	verb	phrase	1	13	nomatch	jongler	-1	1	p	1.7822
660.1873	0.0	+	68	verb	phrase	1	14	nomatch	jongler	-1	1	p	1.7822
660.1203	0.0	[response]	68	verb	phrase	1	15	nomatch	jongler	-1	1	p	1.7822
660.7370999999999	0.0	+	69	verb	list	1	1	match	bleu	5	1	y	0.66521
661.2868	0.2	dchjvkz	69	verb	list	1	2	match	bleu	5	1	y	0.66521
661.4867	0.0	+	69	verb	list	1	3	match	bleu	5	1	y	0.66521
661.8865	0.2	jvbz	69	verb	list	1	4	match	bleu	5	1	y	0.66521
662.0864	0.0	+	69	verb	list	1	5	match	bleu	5	1	y	0.66521
662.4863	0.2	jvp	69	verb	list	1	6	match	bleu	5	1	y	0.66521
662.6865	0.0	+	69	verb	list	1	7	match	bleu	5	1	y	0.66521
663.086	0.2	vjdtclw	69	verb	list	1	8	match	bleu	5	1	y	0.66521
663.2859	0.0	+	69	verb	list	1	9	match	bleu	5	1	y	0.66521
663.6857	0.2	bleu	69	verb	list	1	10	match	bleu	5	1	y	0.66521
663.8856	0.0	+	69	verb	list	1	11	match	bleu	5	1	y	0.66521
664.2855	0.0	+	69	verb	list	1	12	match	bleu	5	1	y	0.66521
666.2846	0.0	BLEU	69	verb	list	1	13	match	bleu	5	1	y	0.66521
667.0176	0.0	+	69	verb	list	1	14	match	bleu	5	1	y	0.66521
666.9498	0.0	[response]	69	verb	list	1	15	match	bleu	5	1	y	0.66521
668.7002	0.0	+	70	verb	phrase	1	1	match	nager	5	1	y	0.4407
669.2499	0.2	wqp	70	verb	phrase	1	2	match	nager	5	1	y	0.4407
669.4498	0.0	+	70	verb	phrase	1	3	match	nager	5	1	y	0.4407
669.8497	0.2	mqnx	70	verb	phrase	1	4	match	nager	5	1	y	0.4407
670.0495999999999	0.0	+	70	verb	phrase	1	5	match	nager	5	1	y	0.4407
670.4494	0.2	kw	70	verb	phrase	1	6	match	nager	5	1	y	0.4407
670.6493	0.0	+	70	verb	phrase	1	7	match	nager	5	1	y	0.4407
671.0491	0.2	npjdrkfq	70	verb	phrase	1	8	match	nager	5	1	y	0.4407
671.249	0.0	+	70	verb	phrase	1	9	match	nager	5	1	y	0.4407
671.6489	0.2	nager	70	verb	phrase	1	10	match	nager	5	1	y	0.4407
671.8488	0.0	+	70	verb	phrase	1	11	match	nager	5	1	y	0.4407
672.2486	0.0	+	70	verb	phrase	1	12	match	nager	5	1	y	0.4407
674.2477	0.0	NAGER	70	verb	phrase	1	13	match	nager	5	1	y	0.4407
674.7975	0.0	+	70	verb	phrase	1	14	match	nager	5	1	y	0.4407
674.6884	0.0	[response]	70	verb	phrase	1	15	match	nager	5	1	y	0.4407
676.6467	0.0	+	71	noun	phrase	1	1	nomatch	bleu	-1	1	p	0.99947
677.1964	0.2	txhjzrl	71	noun	phrase	1	2	nomatch	bleu	-1	1	p	0.99947
677.3963	0.0	+	71	noun	phrase	1	3	nomatch	bleu	-1	1	p	0.99947
677.7962	0.2	cxgm	71	noun	phrase	1	4	nomatch	bleu	-1	1	p	0.99947
677.9961	0.0	+	71	noun	phrase	1	5	nomatch	bleu	-1	1	p	0.99947
678.3959	0.2	gkpq	71	noun	phrase	1	6	nomatch	bleu	-1	1	p	0.99947
678.5957999999999	0.0	+	71	noun	phrase	1	7	nomatch	bleu	-1	1	p	0.99947
678.9956	0.2	grtm	71	noun	phrase	1	8	nomatch	bleu	-1	1	p	0.99947
679.1955	0.0	+	71	noun	phrase	1	9	nomatch	bleu	-1	1	p	0.99947
679.5953	0.2	voilier	71	noun	phrase	1	10	nomatch	bleu	-1	1	p	0.99947
679.7953	0.0	+	71	noun	phrase	1	11	nomatch	bleu	-1	1	p	0.99947
680.1951	0.0	+	71	noun	phrase	1	12	nomatch	bleu	-1	1	p	0.99947
682.1942	0.0	BLEU	71	noun	phrase	1	13	nomatch	bleu	-1	1	p	0.99947
683.2604	0.0	+	71	noun	phrase	1	14	nomatch	bleu	-1	1	p	0.99947
683.1937	0.0	[response]	71	noun	phrase	1	15	nomatch	bleu	-1	1	p	0.99947
684.5931	0.0	+	72	verb	list	1	1	match	grand	5	1	y	1.5959
685.1428999999999	0.2	jzbrkw	72	verb	list	1	2	match	grand	5	1	y	1.5959
685.3428	0.0	+	72	verb	list	1	3	match	grand	5	1	y	1.5959
685.7426	0.2	dnmw	72	verb	list	1	4	match	grand	5	1	y	1.5959
685.9425	0.0	+	72	verb	list	1	5	match	grand	5	1	y	1.5959
686.3424	0.2	kw	72	verb	list	1	6	match	grand	5	1	y	1.5959
686.5423	0.0	+	72	verb	list	1	7	match	grand	5	1	y	1.5959
686.9421	0.2	qxlpftj	72	verb	list	1	8	match	grand	5	1	y	1.5959
687.1419999999999	0.0	+	72	verb	list	1	9	match	grand	5	1	y	1.5959
687.5418	0.2	grand	72	verb	list	1	10	match	grand	5	1	y	1.5959
687.7417	0.0	+	72	verb	list	1	11	match	grand	5	1	y	1.5959
688.1416	0.0	+	72	verb	list	1	12	match	grand	5	1	y	1.5959
690.1407	0.0	GRAND	72	verb	list	1	13	match	grand	5	1	y	1.5959
691.79	0.0	+	72	verb	list	1	14	match	grand	5	1	y	1.5959
691.7366	0.0	[response]	72	verb	list	1	15	match	grand	5	1	y	1.5959
692.5396	0.0	+	73	verb	list	1	1	nomatch	beau	-1	1	p	0.8241800000000001
693.0894	0.2	kprj	73	verb	list	1	2	nomatch	beau	-1	1	p	0.8241800000000001
693.2893	0.0	+	73	verb	list	1	3	nomatch	beau	-1	1	p	0.8241800000000001
693.6890999999999	0.2	mqnx	73	verb	list	1	4	nomatch	beau	-1	1	p	0.8241800000000001
693.889	0.0	+	73	verb	list	1	5	nomatch	beau	-1	1	p	0.8241800000000001
694.2888	0.2	jwq	73	verb	list	1	6	nomatch	beau	-1	1	p	0.8241800000000001
694.4888	0.0	+	73	verb	list	1	7	nomatch	beau	-1	1	p	0.8241800000000001
694.8886	0.2	scvhk	73	verb	list	1	8	nomatch	beau	-1	1	p	0.8241800000000001
695.0885	0.0	+	73	verb	list	1	9	nomatch	beau	-1	1	p	0.8241800000000001
695.4887	0.2	parader	73	verb	list	1	10	nomatch	beau	-1	1	p	0.8241800000000001
695.6881999999999	0.0	+	73	verb	list	1	11	nomatch	beau	-1	1	p	0.8241800000000001
696.088	0.0	+	73	verb	list	1	12	nomatch	beau	-1	1	p	0.8241800000000001
698.0871999999999	0.0	BEAU	73	verb	list	1	13	nomatch	beau	-1	1	p	0.8241800000000001
698.9701	0.0	+	73	verb	list	1	14	nomatch	beau	-1	1	p	0.8241800000000001
698.9113	0.0	[response]	73	verb	list	1	15	nomatch	beau	-1	1	p	0.8241800000000001
700.4861	0.0	+	74	verb	phrase	1	1	match	tard	5	1	y	0.78176
701.0359	0.2	dlvwc	74	verb	phrase	1	2	match	tard	5	1	y	0.78176
701.2358	0.0	+	74	verb	phrase	1	3	match	tard	5	1	y	0.78176
701.6356	0.2	dgtf	74	verb	phrase	1	4	match	tard	5	1	y	0.78176
701.8355	0.0	+	74	verb	phrase	1	5	match	tard	5	1	y	0.78176
702.2352999999999	0.2	qgfj	74	verb	phrase	1	6	match	tard	5	1	y	0.78176
702.4352	0.0	+	74	verb	phrase	1	7	match	tard	5	1	y	0.78176
702.8351	0.2	vjdtclw	74	verb	phrase	1	8	match	tard	5	1	y	0.78176
703.035	0.0	+	74	verb	phrase	1	9	match	tard	5	1	y	0.78176
703.4348	0.2	tard	74	verb	phrase	1	10	match	tard	5	1	y	0.78176
703.6347	0.0	+	74	verb	phrase	1	11	match	tard	5	1	y	0.78176
704.0345	0.0	+	74	verb	phrase	1	12	match	tard	5	1	y	0.78176
706.0503	0.0	TARD	74	verb	phrase	1	13	match	tard	5	1	y	0.78176
706.8999	0.0	+	74	verb	phrase	1	14	match	tard	5	1	y	0.78176
706.8321	0.0	[response]	74	verb	phrase	1	15	match	tard	5	1	y	0.78176
708.4492	0.0	+	75	verb	list	1	1	nomatch	nager	-1	1	p	0.6304700000000001
708.999	0.2	nfrb	75	verb	list	1	2	nomatch	nager	-1	1	p	0.6304700000000001
709.1989	0.0	+	75	verb	list	1	3	nomatch	nager	-1	1	p	0.6304700000000001
709.5987	0.2	bcs	75	verb	list	1	4	nomatch	nager	-1	1	p	0.6304700000000001
709.7986	0.0	+	75	verb	list	1	5	nomatch	nager	-1	1	p	0.6304700000000001
710.1985	0.2	gkpq	75	verb	list	1	6	nomatch	nager	-1	1	p	0.6304700000000001
710.3984	0.0	+	75	verb	list	1	7	nomatch	nager	-1	1	p	0.6304700000000001
710.7982	0.2	prwd	75	verb	list	1	8	nomatch	nager	-1	1	p	0.6304700000000001
710.9981	0.0	+	75	verb	list	1	9	nomatch	nager	-1	1	p	0.6304700000000001
711.3979	0.2	danser	75	verb	list	1	10	nomatch	nager	-1	1	p	0.6304700000000001
711.5978	0.0	+	75	verb	list	1	11	nomatch	nager	-1	1	p	0.6304700000000001
711.9977	0.0	+	75	verb	list	1	12	nomatch	nager	-1	1	p	0.6304700000000001
713.9968	0.0	NAGER	75	verb	list	1	13	nomatch	nager	-1	1	p	0.6304700000000001
714.6798	0.0	+	75	verb	list	1	14	nomatch	nager	-1	1	p	0.6304700000000001
714.6272	0.0	[response]	75	verb	list	1	15	nomatch	nager	-1	1	p	0.6304700000000001
724.3922	0.0	+	76	noun	list	1	1	match	ainsi	5	1	y	0.70031
724.9419	0.2	zksvmdx	76	noun	list	1	2	match	ainsi	5	1	y	0.70031
725.1418	0.0	+	76	noun	list	1	3	match	ainsi	5	1	y	0.70031
725.5417	0.2	bldw	76	noun	list	1	4	match	ainsi	5	1	y	0.70031
725.7417	0.0	+	76	noun	list	1	5	match	ainsi	5	1	y	0.70031
726.1414	0.2	kw	76	noun	list	1	6	match	ainsi	5	1	y	0.70031
726.3413	0.0	+	76	noun	list	1	7	match	ainsi	5	1	y	0.70031
726.7411	0.2	pnwxgms	76	noun	list	1	8	match	ainsi	5	1	y	0.70031
726.941	0.0	+	76	noun	list	1	9	match	ainsi	5	1	y	0.70031
727.3409	0.2	ainsi	76	noun	list	1	10	match	ainsi	5	1	y	0.70031
727.5408	0.0	+	76	noun	list	1	11	match	ainsi	5	1	y	0.70031
727.9406	0.0	+	76	noun	list	1	12	match	ainsi	5	1	y	0.70031
729.9397	0.0	AINSI	76	noun	list	1	13	match	ainsi	5	1	y	0.70031
730.706	0.0	+	76	noun	list	1	14	match	ainsi	5	1	y	0.70031
730.64	0.0	[response]	76	noun	list	1	15	match	ainsi	5	1	y	0.70031
732.3387	0.0	+	77	verb	phrase	2	1	nomatch	son	-1	1	p	1.2367
732.8884	0.2	kdrxtlb	77	verb	phrase	2	2	nomatch	son	-1	1	p	1.2367
733.0883	0.0	+	77	verb	phrase	2	3	nomatch	son	-1	1	p	1.2367
733.4881	0.2	jvbz	77	verb	phrase	2	4	nomatch	son	-1	1	p	1.2367
733.6881	0.0	+	77	verb	phrase	2	5	nomatch	son	-1	1	p	1.2367
734.0879	0.2	vdfh	77	verb	phrase	2	6	nomatch	son	-1	1	p	1.2367
734.2878	0.0	+	77	verb	phrase	2	7	nomatch	son	-1	1	p	1.2367
734.6876	0.2	beaucoup	77	verb	phrase	2	8	nomatch	son	-1	1	p	1.2367
734.8875	0.0	+	77	verb	phrase	2	9	nomatch	son	-1	1	p	1.2367
735.2873	0.2	jongler	77	verb	phrase	2	10	nomatch	son	-1	1	p	1.2367
735.4873	0.0	+	77	verb	phrase	2	11	nomatch	son	-1	1	p	1.2367
735.8871	0.0	+	77	verb	phrase	2	12	nomatch	son	-1	1	p	1.2367
737.8862	0.0	SON	77	verb	phrase	2	13	nomatch	son	-1	1	p	1.2367
739.1856	0.0	+	77	verb	phrase	2	14	nomatch	son	-1	1	p	1.2367
739.1229	0.0	[response]	77	verb	phrase	2	15	nomatch	son	-1	1	p	1.2367
740.2850999999999	0.0	+	78	noun	phrase	2	1	nomatch	cendrier	-1	1	p	1.16
740.8349	0.2	qlb	78	noun	phrase	2	2	nomatch	cendrier	-1	1	p	1.16
741.0348	0.0	+	78	noun	phrase	2	3	nomatch	cendrier	-1	1	p	1.16
741.4346	0.2	wtx	78	noun	phrase	2	4	nomatch	cendrier	-1	1	p	1.16
741.6345	0.0	+	78	noun	phrase	2	5	nomatch	cendrier	-1	1	p	1.16
742.0344	0.2	jwq	78	noun	phrase	2	6	nomatch	cendrier	-1	1	p	1.16
742.2343	0.0	+	78	noun	phrase	2	7	nomatch	cendrier	-1	1	p	1.16
742.6341	0.2	vieux	78	noun	phrase	2	8	nomatch	cendrier	-1	1	p	1.16
742.834	0.0	+	78	noun	phrase	2	9	nomatch	cendrier	-1	1	p	1.16
743.2338	0.2	sablier	78	noun	phrase	2	10	nomatch	cendrier	-1	1	p	1.16
743.4504	0.0	+	78	noun	phrase	2	11	nomatch	cendrier	-1	1	p	1.16
743.8502	0.0	+	78	noun	phrase	2	12	nomatch	cendrier	-1	1	p	1.16
745.8493	0.0	CENDRIER	78	noun	phrase	2	13	nomatch	cendrier	-1	1	p	1.16
747.0655	0.0	+	78	noun	phrase	2	14	nomatch	cendrier	-1	1	p	1.16
747.0092999999999	0.0	[response]	78	noun	phrase	2	15	nomatch	cendrier	-1	1	p	1.16
748.2483	0.0	+	79	verb	list	1	1	nomatch	clavier	-1	1	p	0.9611
748.798	0.2	xpsnt	79	verb	list	1	2	nomatch	clavier	-1	1	p	0.9611
748.9979	0.0	+	79	verb	list	1	3	nomatch	clavier	-1	1	p	0.9611
749.3978	0.2	tnwf	79	verb	list	1	4	nomatch	clavier	-1	1	p	0.9611
749.5977	0.0	+	79	verb	list	1	5	nomatch	clavier	-1	1	p	0.9611
749.9975	0.2	jvp	79	verb	list	1	6	nomatch	clavier	-1	1	p	0.9611
750.1974	0.0	+	79	verb	list	1	7	nomatch	clavier	-1	1	p	0.9611
750.5972	0.2	twcs	79	verb	list	1	8	nomatch	clavier	-1	1	p	0.9611
750.7972	0.0	+	79	verb	list	1	9	nomatch	clavier	-1	1	p	0.9611
751.197	0.2	jongler	79	verb	list	1	10	nomatch	clavier	-1	1	p	0.9611
751.3969	0.0	+	79	verb	list	1	11	nomatch	clavier	-1	1	p	0.9611
751.7967	0.0	+	79	verb	list	1	12	nomatch	clavier	-1	1	p	0.9611
753.7958	0.0	CLAVIER	79	verb	list	1	13	nomatch	clavier	-1	1	p	0.9611
754.812	0.0	+	79	verb	list	1	14	nomatch	clavier	-1	1	p	0.9611
754.7569	0.0	[response]	79	verb	list	1	15	nomatch	clavier	-1	1	p	0.9611
756.1948	0.0	+	80	verb	phrase	2	1	match	voyager	5	1	y	0.51539
756.7445	0.2	fpbcdk	80	verb	phrase	2	2	match	voyager	5	1	y	0.51539
756.9444	0.0	+	80	verb	phrase	2	3	match	voyager	5	1	y	0.51539
757.3442	0.2	jdlv	80	verb	phrase	2	4	match	voyager	5	1	y	0.51539
757.5442	0.0	+	80	verb	phrase	2	5	match	voyager	5	1	y	0.51539
757.944	0.2	qgfj	80	verb	phrase	2	6	match	voyager	5	1	y	0.51539
758.1439	0.0	+	80	verb	phrase	2	7	match	voyager	5	1	y	0.51539
758.5437	0.2	moins	80	verb	phrase	2	8	match	voyager	5	1	y	0.51539
758.7436	0.0	+	80	verb	phrase	2	9	match	voyager	5	1	y	0.51539
759.1434	0.2	voyager	80	verb	phrase	2	10	match	voyager	5	1	y	0.51539
759.3434	0.0	+	80	verb	phrase	2	11	match	voyager	5	1	y	0.51539
759.7432	0.0	+	80	verb	phrase	2	12	match	voyager	5	1	y	0.51539
761.7423	0.0	VOYAGER	80	verb	phrase	2	13	match	voyager	5	1	y	0.51539
762.3254	0.0	+	80	verb	phrase	2	14	match	voyager	5	1	y	0.51539
764.1412	0.0	+	80	verb	phrase	2	15	match	voyager	5	1	y	0.51539
765.0075	0.0	+	80	verb	phrase	2	16	match	voyager	5	1	y	0.51539
765.1075	0.0	+	80	verb	phrase	2	17	match	voyager	5	1	y	0.51539
766.5069	0.0	+	80	verb	phrase	2	18	match	voyager	5	1	y	0.51539
766.6068	0.0	+	80	verb	phrase	2	19	match	voyager	5	1	y	0.51539
768.0062	0.0	+	80	verb	phrase	2	20	match	voyager	5	1	y	0.51539
768.1061	0.0	+	80	verb	phrase	2	21	match	voyager	5	1	y	0.51539
769.5055	0.0	+	80	verb	phrase	2	22	match	voyager	5	1	y	0.51539
769.6055	0.0	+	80	verb	phrase	2	23	match	voyager	5	1	y	0.51539
771.0216	0.0	+	80	verb	phrase	2	24	match	voyager	5	1	y	0.51539
771.1215	0.0	+	80	verb	phrase	2	25	match	voyager	5	1	y	0.51539
772.5209	0.0	+	80	verb	phrase	2	26	match	voyager	5	1	y	0.51539
772.6208	0.0	+	80	verb	phrase	2	27	match	voyager	5	1	y	0.51539
774.0202	0.0	+	80	verb	phrase	2	28	match	voyager	5	1	y	0.51539
774.1201	0.0	+	80	verb	phrase	2	29	match	voyager	5	1	y	0.51539
775.5029	0.0	+	80	verb	phrase	2	30	match	voyager	5	1	y	0.51539
775.6028	0.0	+	80	verb	phrase	2	31	match	voyager	5	1	y	0.51539
777.0189	0.0	+	80	verb	phrase	2	32	match	voyager	5	1	y	0.51539
777.1188	0.0	+	80	verb	phrase	2	33	match	voyager	5	1	y	0.51539
778.5182	0.0	+	80	verb	phrase	2	34	match	voyager	5	1	y	0.51539
778.6182	0.0	+	80	verb	phrase	2	35	match	voyager	5	1	y	0.51539
783.3994	0.0	+	80	verb	phrase	2	36	match	voyager	5	1	y	0.51539
762.2577000000001	0.0	[response]	80	verb	phrase	2	37	match	voyager	5	1	y	0.51539
