onset	duration	stim	trial_number	trial_type	trial_structure	trial_length	sequential_position	probe_type	probe	probe_position	response_correct	response_key	response_time
0.05460000000000065	0.0	+	1	noun	phrase	3	1	match	mon	3	1	y	0.68335
0.5379000000000005	0.2	znkspd	1	noun	phrase	3	2	match	mon	3	1	y	0.68335
0.7378999999999962	0.0	+	1	noun	phrase	3	3	match	mon	3	1	y	0.68335
1.137900000000002	0.2	lnfq	1	noun	phrase	3	4	match	mon	3	1	y	0.68335
1.3378999999999976	0.0	+	1	noun	phrase	3	5	match	mon	3	1	y	0.68335
1.7378999999999962	0.2	mon	1	noun	phrase	3	6	match	mon	3	1	y	0.68335
1.9377999999999957	0.0	+	1	noun	phrase	3	7	match	mon	3	1	y	0.68335
2.3378000000000014	0.2	sablier	1	noun	phrase	3	8	match	mon	3	1	y	0.68335
2.537799999999997	0.0	+	1	noun	phrase	3	9	match	mon	3	1	y	0.68335
2.9377999999999957	0.2	rouge	1	noun	phrase	3	10	match	mon	3	1	y	0.68335
3.1377000000000024	0.0	+	1	noun	phrase	3	11	match	mon	3	1	y	0.68335
3.537700000000001	0.0	+	1	noun	phrase	3	12	match	mon	3	1	y	0.68335
5.537599999999998	0.0	MON	1	noun	phrase	3	13	match	mon	3	1	y	0.68335
6.287499999999994	0.0	+	1	noun	phrase	3	14	match	mon	3	1	y	0.68335
6.2209	0.0	[response]	1	noun	phrase	3	15	match	mon	3	1	y	0.68335
7.937399999999997	0.0	+	2	noun	phrase	1	1	match	noir	5	1	y	0.5230500000000001
8.487300000000005	0.2	vqgtdzf	2	noun	phrase	1	2	match	noir	5	1	y	0.5230500000000001
8.687299999999993	0.0	+	2	noun	phrase	1	3	match	noir	5	1	y	0.5230500000000001
9.087299999999999	0.2	fhsq	2	noun	phrase	1	4	match	noir	5	1	y	0.5230500000000001
9.287300000000002	0.0	+	2	noun	phrase	1	5	match	noir	5	1	y	0.5230500000000001
9.687200000000004	0.2	mwvt	2	noun	phrase	1	6	match	noir	5	1	y	0.5230500000000001
9.887199999999993	0.0	+	2	noun	phrase	1	7	match	noir	5	1	y	0.5230500000000001
10.287199999999999	0.2	rtbdvcn	2	noun	phrase	1	8	match	noir	5	1	y	0.5230500000000001
10.487200000000001	0.0	+	2	noun	phrase	1	9	match	noir	5	1	y	0.5230500000000001
10.887100000000004	0.2	noir	2	noun	phrase	1	10	match	noir	5	1	y	0.5230500000000001
11.087099999999992	0.0	+	2	noun	phrase	1	11	match	noir	5	1	y	0.5230500000000001
11.487099999999998	0.0	+	2	noun	phrase	1	12	match	noir	5	1	y	0.5230500000000001
13.486900000000006	0.0	NOIR	2	noun	phrase	1	13	match	noir	5	1	y	0.5230500000000001
14.0702	0.0	+	2	noun	phrase	1	14	match	noir	5	1	y	0.5230500000000001
14.01000000000002	0.0	[response]	2	noun	phrase	1	15	match	noir	5	1	y	0.5230500000000001
15.886799999999994	0.0	+	3	noun	list	1	1	nomatch	peut	-1	1	p	1.1004
16.436700000000002	0.2	rcmn	3	noun	list	1	2	nomatch	peut	-1	1	p	1.1004
16.636700000000005	0.0	+	3	noun	list	1	3	nomatch	peut	-1	1	p	1.1004
17.036699999999996	0.2	mrzd	3	noun	list	1	4	nomatch	peut	-1	1	p	1.1004
17.2367	0.0	+	3	noun	list	1	5	nomatch	peut	-1	1	p	1.1004
17.6366	0.2	hkq	3	noun	list	1	6	nomatch	peut	-1	1	p	1.1004
17.836600000000004	0.0	+	3	noun	list	1	7	nomatch	peut	-1	1	p	1.1004
18.236599999999996	0.2	vjmqxk	3	noun	list	1	8	nomatch	peut	-1	1	p	1.1004
18.4366	0.0	+	3	noun	list	1	9	nomatch	peut	-1	1	p	1.1004
18.8365	0.2	plus	3	noun	list	1	10	nomatch	peut	-1	1	p	1.1004
19.036500000000004	0.0	+	3	noun	list	1	11	nomatch	peut	-1	1	p	1.1004
19.436499999999995	0.0	+	3	noun	list	1	12	nomatch	peut	-1	1	p	1.1004
21.436300000000003	0.0	PEUT	3	noun	list	1	13	nomatch	peut	-1	1	p	1.1004
22.602900000000005	0.0	+	3	noun	list	1	14	nomatch	peut	-1	1	p	1.1004
22.536699999999996	0.0	[response]	3	noun	list	1	15	nomatch	peut	-1	1	p	1.1004
23.836100000000002	0.0	+	4	verb	phrase	2	1	match	galoper	4	1	y	0.58628
24.3861	0.2	sthjrqx	4	verb	phrase	2	2	match	galoper	4	1	y	0.58628
24.586100000000002	0.0	+	4	verb	phrase	2	3	match	galoper	4	1	y	0.58628
24.986099999999993	0.2	frjv	4	verb	phrase	2	4	match	galoper	4	1	y	0.58628
25.185999999999993	0.0	+	4	verb	phrase	2	5	match	galoper	4	1	y	0.58628
25.586100000000002	0.2	lnfq	4	verb	phrase	2	6	match	galoper	4	1	y	0.58628
25.786	0.0	+	4	verb	phrase	2	7	match	galoper	4	1	y	0.58628
26.185999999999993	0.2	galoper	4	verb	phrase	2	8	match	galoper	4	1	y	0.58628
26.385999999999996	0.0	+	4	verb	phrase	2	9	match	galoper	4	1	y	0.58628
26.785899999999998	0.2	ainsi	4	verb	phrase	2	10	match	galoper	4	1	y	0.58628
26.9859	0.0	+	4	verb	phrase	2	11	match	galoper	4	1	y	0.58628
27.385899999999992	0.0	+	4	verb	phrase	2	12	match	galoper	4	1	y	0.58628
29.3857	0.0	GALOPER	4	verb	phrase	2	13	match	galoper	4	1	y	0.58628
30.035700000000006	0.0	+	4	verb	phrase	2	14	match	galoper	4	1	y	0.58628
29.971999999999994	0.0	[response]	4	verb	phrase	2	15	match	galoper	4	1	y	0.58628
31.7855	0.0	+	5	noun	phrase	1	1	match	bleu	5	1	y	0.53983
32.335499999999996	0.2	lrfhp	5	noun	phrase	1	2	match	bleu	5	1	y	0.53983
32.5355	0.0	+	5	noun	phrase	1	3	match	bleu	5	1	y	0.53983
32.935500000000005	0.2	chdk	5	noun	phrase	1	4	match	bleu	5	1	y	0.53983
33.135400000000004	0.0	+	5	noun	phrase	1	5	match	bleu	5	1	y	0.53983
33.535399999999996	0.2	hkq	5	noun	phrase	1	6	match	bleu	5	1	y	0.53983
33.7354	0.0	+	5	noun	phrase	1	7	match	bleu	5	1	y	0.53983
34.135400000000004	0.2	psmcxl	5	noun	phrase	1	8	match	bleu	5	1	y	0.53983
34.335300000000004	0.0	+	5	noun	phrase	1	9	match	bleu	5	1	y	0.53983
34.735299999999995	0.2	bleu	5	noun	phrase	1	10	match	bleu	5	1	y	0.53983
34.9353	0.0	+	5	noun	phrase	1	11	match	bleu	5	1	y	0.53983
35.335300000000004	0.0	+	5	noun	phrase	1	12	match	bleu	5	1	y	0.53983
37.3351	0.0	BLEU	5	noun	phrase	1	13	match	bleu	5	1	y	0.53983
37.935100000000006	0.0	+	5	noun	phrase	1	14	match	bleu	5	1	y	0.53983
37.8749	0.0	[response]	5	noun	phrase	1	15	match	bleu	5	1	y	0.53983
39.734899999999996	0.0	+	6	verb	phrase	4	1	match	moins	4	1	y	0.8426700000000001
40.28489999999999	0.2	krlhd	6	verb	phrase	4	2	match	moins	4	1	y	0.8426700000000001
40.484899999999996	0.0	+	6	verb	phrase	4	3	match	moins	4	1	y	0.8426700000000001
40.8849	0.2	paul	6	verb	phrase	4	4	match	moins	4	1	y	0.8426700000000001
41.0848	0.0	+	6	verb	phrase	4	5	match	moins	4	1	y	0.8426700000000001
41.484899999999996	0.2	doit	6	verb	phrase	4	6	match	moins	4	1	y	0.8426700000000001
41.6849	0.0	+	6	verb	phrase	4	7	match	moins	4	1	y	0.8426700000000001
42.1014	0.2	moins	6	verb	phrase	4	8	match	moins	4	1	y	0.8426700000000001
42.3014	0.0	+	6	verb	phrase	4	9	match	moins	4	1	y	0.8426700000000001
42.702	0.2	plonger	6	verb	phrase	4	10	match	moins	4	1	y	0.8426700000000001
42.901399999999995	0.0	+	6	verb	phrase	4	11	match	moins	4	1	y	0.8426700000000001
43.3013	0.0	+	6	verb	phrase	4	12	match	moins	4	1	y	0.8426700000000001
45.301199999999994	0.0	MOINS	6	verb	phrase	4	13	match	moins	4	1	y	0.8426700000000001
46.2011	0.0	+	6	verb	phrase	4	14	match	moins	4	1	y	0.8426700000000001
46.1438	0.0	[response]	6	verb	phrase	4	15	match	moins	4	1	y	0.8426700000000001
47.70099999999999	0.0	+	7	noun	list	1	1	match	mieux	5	1	y	0.4789
48.2509	0.2	dnhf	7	noun	list	1	2	match	mieux	5	1	y	0.4789
48.450900000000004	0.0	+	7	noun	list	1	3	match	mieux	5	1	y	0.4789
48.850899999999996	0.2	mrzd	7	noun	list	1	4	match	mieux	5	1	y	0.4789
49.0509	0.0	+	7	noun	list	1	5	match	mieux	5	1	y	0.4789
49.450900000000004	0.2	hkq	7	noun	list	1	6	match	mieux	5	1	y	0.4789
49.650800000000004	0.0	+	7	noun	list	1	7	match	mieux	5	1	y	0.4789
50.050799999999995	0.2	qdpbcrgw	7	noun	list	1	8	match	mieux	5	1	y	0.4789
50.2508	0.0	+	7	noun	list	1	9	match	mieux	5	1	y	0.4789
50.650800000000004	0.2	mieux	7	noun	list	1	10	match	mieux	5	1	y	0.4789
50.8507	0.0	+	7	noun	list	1	11	match	mieux	5	1	y	0.4789
51.250699999999995	0.0	+	7	noun	list	1	12	match	mieux	5	1	y	0.4789
53.250600000000006	0.0	MIEUX	7	noun	list	1	13	match	mieux	5	1	y	0.4789
53.784000000000006	0.0	+	7	noun	list	1	14	match	mieux	5	1	y	0.4789
53.7295	0.0	[response]	7	noun	list	1	15	match	mieux	5	1	y	0.4789
55.650400000000005	0.0	+	8	noun	list	2	1	nomatch	rocher	-1	1	p	0.9493
56.2003	0.2	sxqd	8	noun	list	2	2	nomatch	rocher	-1	1	p	0.9493
56.4003	0.0	+	8	noun	list	2	3	nomatch	rocher	-1	1	p	0.9493
56.80029999999999	0.2	xsh	8	noun	list	2	4	nomatch	rocher	-1	1	p	0.9493
57.000299999999996	0.0	+	8	noun	list	2	5	nomatch	rocher	-1	1	p	0.9493
57.4002	0.2	qgkm	8	noun	list	2	6	nomatch	rocher	-1	1	p	0.9493
57.6002	0.0	+	8	noun	list	2	7	nomatch	rocher	-1	1	p	0.9493
58.00019999999999	0.2	casier	8	noun	list	2	8	nomatch	rocher	-1	1	p	0.9493
58.200199999999995	0.0	+	8	noun	list	2	9	nomatch	rocher	-1	1	p	0.9493
58.6001	0.2	ainsi	8	noun	list	2	10	nomatch	rocher	-1	1	p	0.9493
58.8001	0.0	+	8	noun	list	2	11	nomatch	rocher	-1	1	p	0.9493
59.200100000000006	0.0	+	8	noun	list	2	12	nomatch	rocher	-1	1	p	0.9493
61.1999	0.0	ROCHER	8	noun	list	2	13	nomatch	rocher	-1	1	p	0.9493
62.216499999999996	0.0	+	8	noun	list	2	14	nomatch	rocher	-1	1	p	0.9493
62.14919999999999	0.0	[response]	8	noun	list	2	15	nomatch	rocher	-1	1	p	0.9493
63.5998	0.0	+	9	noun	phrase	4	1	nomatch	avec	-1	1	p	0.9346000000000001
64.1497	0.2	bpzv	9	noun	phrase	4	2	nomatch	avec	-1	1	p	0.9346000000000001
64.3497	0.0	+	9	noun	phrase	4	3	nomatch	avec	-1	1	p	0.9346000000000001
64.7497	0.2	sur	9	noun	phrase	4	4	nomatch	avec	-1	1	p	0.9346000000000001
64.94969999999999	0.0	+	9	noun	phrase	4	5	nomatch	avec	-1	1	p	0.9346000000000001
65.3496	0.2	leur	9	noun	phrase	4	6	nomatch	avec	-1	1	p	0.9346000000000001
65.5496	0.0	+	9	noun	phrase	4	7	nomatch	avec	-1	1	p	0.9346000000000001
65.9496	0.2	vieux	9	noun	phrase	4	8	nomatch	avec	-1	1	p	0.9346000000000001
66.14959999999999	0.0	+	9	noun	phrase	4	9	nomatch	avec	-1	1	p	0.9346000000000001
66.5495	0.2	sablier	9	noun	phrase	4	10	nomatch	avec	-1	1	p	0.9346000000000001
66.7495	0.0	+	9	noun	phrase	4	11	nomatch	avec	-1	1	p	0.9346000000000001
67.1495	0.0	+	9	noun	phrase	4	12	nomatch	avec	-1	1	p	0.9346000000000001
69.1493	0.0	AVEC	9	noun	phrase	4	13	nomatch	avec	-1	1	p	0.9346000000000001
70.1493	0.0	+	9	noun	phrase	4	14	nomatch	avec	-1	1	p	0.9346000000000001
70.08390000000001	0.0	[response]	9	noun	phrase	4	15	nomatch	avec	-1	1	p	0.9346000000000001
71.5491	0.0	+	10	verb	phrase	3	1	nomatch	vite	-1	1	p	0.73887
72.0991	0.2	zhspvcd	10	verb	phrase	3	2	nomatch	vite	-1	1	p	0.73887
72.2991	0.0	+	10	verb	phrase	3	3	nomatch	vite	-1	1	p	0.73887
72.6991	0.2	frjv	10	verb	phrase	3	4	nomatch	vite	-1	1	p	0.73887
72.89899999999999	0.0	+	10	verb	phrase	3	5	nomatch	vite	-1	1	p	0.73887
73.29899999999999	0.2	peut	10	verb	phrase	3	6	nomatch	vite	-1	1	p	0.73887
73.49900000000001	0.0	+	10	verb	phrase	3	7	nomatch	vite	-1	1	p	0.73887
73.89899999999999	0.2	chasser	10	verb	phrase	3	8	nomatch	vite	-1	1	p	0.73887
74.099	0.0	+	10	verb	phrase	3	9	nomatch	vite	-1	1	p	0.73887
74.4989	0.2	tôt	10	verb	phrase	3	10	nomatch	vite	-1	1	p	0.73887
74.6989	0.0	+	10	verb	phrase	3	11	nomatch	vite	-1	1	p	0.73887
75.0989	0.0	+	10	verb	phrase	3	12	nomatch	vite	-1	1	p	0.73887
77.0987	0.0	VITE	10	verb	phrase	3	13	nomatch	vite	-1	1	p	0.73887
77.8987	0.0	+	10	verb	phrase	3	14	nomatch	vite	-1	1	p	0.73887
77.8376	0.0	[response]	10	verb	phrase	3	15	nomatch	vite	-1	1	p	0.73887
79.49849999999999	0.0	+	11	noun	list	4	1	nomatch	grenier	-1	1	p	0.69466
80.0485	0.2	tfsbvq	11	noun	list	4	2	nomatch	grenier	-1	1	p	0.69466
80.24849999999999	0.0	+	11	noun	list	4	3	nomatch	grenier	-1	1	p	0.69466
80.6485	0.2	luc	11	noun	list	4	4	nomatch	grenier	-1	1	p	0.69466
80.84840000000001	0.0	+	11	noun	list	4	5	nomatch	grenier	-1	1	p	0.69466
81.24839999999999	0.2	son	11	noun	list	4	6	nomatch	grenier	-1	1	p	0.69466
81.4484	0.0	+	11	noun	list	4	7	nomatch	grenier	-1	1	p	0.69466
81.84840000000001	0.2	plus	11	noun	list	4	8	nomatch	grenier	-1	1	p	0.69466
82.0483	0.0	+	11	noun	list	4	9	nomatch	grenier	-1	1	p	0.69466
82.4483	0.2	casier	11	noun	list	4	10	nomatch	grenier	-1	1	p	0.69466
82.64829999999999	0.0	+	11	noun	list	4	11	nomatch	grenier	-1	1	p	0.69466
83.0483	0.0	+	11	noun	list	4	12	nomatch	grenier	-1	1	p	0.69466
85.04809999999999	0.0	GRENIER	11	noun	list	4	13	nomatch	grenier	-1	1	p	0.69466
85.79809999999999	0.0	+	11	noun	list	4	14	nomatch	grenier	-1	1	p	0.69466
85.7428	0.0	[response]	11	noun	list	4	15	nomatch	grenier	-1	1	p	0.69466
87.44789999999999	0.0	+	12	verb	list	3	1	match	mon	3	1	y	0.70988
87.9979	0.2	tzv	12	verb	list	3	2	match	mon	3	1	y	0.70988
88.19789999999999	0.0	+	12	verb	list	3	3	match	mon	3	1	y	0.70988
88.59779999999999	0.2	xfct	12	verb	list	3	4	match	mon	3	1	y	0.70988
88.79780000000001	0.0	+	12	verb	list	3	5	match	mon	3	1	y	0.70988
89.19779999999999	0.2	mon	12	verb	list	3	6	match	mon	3	1	y	0.70988
89.3978	0.0	+	12	verb	list	3	7	match	mon	3	1	y	0.70988
89.79780000000001	0.2	galoper	12	verb	list	3	8	match	mon	3	1	y	0.70988
89.9977	0.0	+	12	verb	list	3	9	match	mon	3	1	y	0.70988
90.3977	0.2	rouge	12	verb	list	3	10	match	mon	3	1	y	0.70988
90.59769999999999	0.0	+	12	verb	list	3	11	match	mon	3	1	y	0.70988
90.9977	0.0	+	12	verb	list	3	12	match	mon	3	1	y	0.70988
92.99749999999999	0.0	MON	12	verb	list	3	13	match	mon	3	1	y	0.70988
93.7641	0.0	+	12	verb	list	3	14	match	mon	3	1	y	0.70988
93.70740000000002	0.0	[response]	12	verb	list	3	15	match	mon	3	1	y	0.70988
127.39489999999999	0.0	+	13	noun	list	2	1	match	beaucoup	4	1	y	0.6676900000000001
127.9448	0.2	wfn	13	noun	list	2	2	match	beaucoup	4	1	y	0.6676900000000001
128.14479999999998	0.0	+	13	noun	list	2	3	match	beaucoup	4	1	y	0.6676900000000001
128.5448	0.2	jkvt	13	noun	list	2	4	match	beaucoup	4	1	y	0.6676900000000001
128.7448	0.0	+	13	noun	list	2	5	match	beaucoup	4	1	y	0.6676900000000001
129.1447	0.2	mwvt	13	noun	list	2	6	match	beaucoup	4	1	y	0.6676900000000001
129.3447	0.0	+	13	noun	list	2	7	match	beaucoup	4	1	y	0.6676900000000001
129.74470000000002	0.2	beaucoup	13	noun	list	2	8	match	beaucoup	4	1	y	0.6676900000000001
129.9447	0.0	+	13	noun	list	2	9	match	beaucoup	4	1	y	0.6676900000000001
130.3446	0.2	boîtier	13	noun	list	2	10	match	beaucoup	4	1	y	0.6676900000000001
130.5446	0.0	+	13	noun	list	2	11	match	beaucoup	4	1	y	0.6676900000000001
130.94459999999998	0.0	+	13	noun	list	2	12	match	beaucoup	4	1	y	0.6676900000000001
132.94439999999997	0.0	BEAUCOUP	13	noun	list	2	13	match	beaucoup	4	1	y	0.6676900000000001
133.67770000000002	0.0	+	13	noun	list	2	14	match	beaucoup	4	1	y	0.6676900000000001
133.6121	0.0	[response]	13	noun	list	2	15	match	beaucoup	4	1	y	0.6676900000000001
135.3442	0.0	+	14	noun	phrase	3	1	nomatch	mon	-1	1	p	1.5347000000000002
135.8942	0.2	pbhg	14	noun	phrase	3	2	nomatch	mon	-1	1	p	1.5347000000000002
136.0942	0.0	+	14	noun	phrase	3	3	nomatch	mon	-1	1	p	1.5347000000000002
136.49419999999998	0.2	fhsq	14	noun	phrase	3	4	nomatch	mon	-1	1	p	1.5347000000000002
136.6941	0.0	+	14	noun	phrase	3	5	nomatch	mon	-1	1	p	1.5347000000000002
137.09410000000003	0.2	son	14	noun	phrase	3	6	nomatch	mon	-1	1	p	1.5347000000000002
137.29410000000001	0.0	+	14	noun	phrase	3	7	nomatch	mon	-1	1	p	1.5347000000000002
137.6941	0.2	tablier	14	noun	phrase	3	8	nomatch	mon	-1	1	p	1.5347000000000002
137.89409999999998	0.0	+	14	noun	phrase	3	9	nomatch	mon	-1	1	p	1.5347000000000002
138.29399999999998	0.2	blanc	14	noun	phrase	3	10	nomatch	mon	-1	1	p	1.5347000000000002
138.49399999999997	0.0	+	14	noun	phrase	3	11	nomatch	mon	-1	1	p	1.5347000000000002
138.894	0.0	+	14	noun	phrase	3	12	nomatch	mon	-1	1	p	1.5347000000000002
140.8938	0.0	MON	14	noun	phrase	3	13	nomatch	mon	-1	1	p	1.5347000000000002
142.4937	0.0	+	14	noun	phrase	3	14	nomatch	mon	-1	1	p	1.5347000000000002
142.42850000000004	0.0	[response]	14	noun	phrase	3	15	nomatch	mon	-1	1	p	1.5347000000000002
151.293	0.0	+	15	verb	list	1	1	nomatch	ainsi	-1	1	p	0.5962
151.84300000000002	0.2	mlj	15	verb	list	1	2	nomatch	ainsi	-1	1	p	0.5962
152.043	0.0	+	15	verb	list	1	3	nomatch	ainsi	-1	1	p	0.5962
152.4429	0.2	frjv	15	verb	list	1	4	nomatch	ainsi	-1	1	p	0.5962
152.6429	0.0	+	15	verb	list	1	5	nomatch	ainsi	-1	1	p	0.5962
153.04289999999997	0.2	hkq	15	verb	list	1	6	nomatch	ainsi	-1	1	p	0.5962
153.24290000000002	0.0	+	15	verb	list	1	7	nomatch	ainsi	-1	1	p	0.5962
153.64280000000002	0.2	mjzbs	15	verb	list	1	8	nomatch	ainsi	-1	1	p	0.5962
153.8428	0.0	+	15	verb	list	1	9	nomatch	ainsi	-1	1	p	0.5962
154.2428	0.2	galoper	15	verb	list	1	10	nomatch	ainsi	-1	1	p	0.5962
154.44279999999998	0.0	+	15	verb	list	1	11	nomatch	ainsi	-1	1	p	0.5962
154.84269999999998	0.0	+	15	verb	list	1	12	nomatch	ainsi	-1	1	p	0.5962
156.8426	0.0	AINSI	15	verb	list	1	13	nomatch	ainsi	-1	1	p	0.5962
157.50920000000002	0.0	+	15	verb	list	1	14	nomatch	ainsi	-1	1	p	0.5962
157.43880000000001	0.0	[response]	15	verb	list	1	15	nomatch	ainsi	-1	1	p	0.5962
159.24239999999998	0.0	+	16	noun	phrase	4	1	nomatch	tablier	-1	1	p	0.87226
159.7924	0.2	fmdgp	16	noun	phrase	4	2	nomatch	tablier	-1	1	p	0.87226
159.99239999999998	0.0	+	16	noun	phrase	4	3	nomatch	tablier	-1	1	p	0.87226
160.39229999999998	0.2	vers	16	noun	phrase	4	4	nomatch	tablier	-1	1	p	0.87226
160.59230000000002	0.0	+	16	noun	phrase	4	5	nomatch	tablier	-1	1	p	0.87226
160.9923	0.2	leur	16	noun	phrase	4	6	nomatch	tablier	-1	1	p	0.87226
161.1923	0.0	+	16	noun	phrase	4	7	nomatch	tablier	-1	1	p	0.87226
161.5922	0.2	clavier	16	noun	phrase	4	8	nomatch	tablier	-1	1	p	0.87226
161.79219999999998	0.0	+	16	noun	phrase	4	9	nomatch	tablier	-1	1	p	0.87226
162.1922	0.2	vert	16	noun	phrase	4	10	nomatch	tablier	-1	1	p	0.87226
162.3922	0.0	+	16	noun	phrase	4	11	nomatch	tablier	-1	1	p	0.87226
162.7921	0.0	+	16	noun	phrase	4	12	nomatch	tablier	-1	1	p	0.87226
164.79199999999997	0.0	TABLIER	16	noun	phrase	4	13	nomatch	tablier	-1	1	p	0.87226
165.72519999999997	0.0	+	16	noun	phrase	4	14	nomatch	tablier	-1	1	p	0.87226
165.66420000000005	0.0	[response]	16	noun	phrase	4	15	nomatch	tablier	-1	1	p	0.87226
167.1918	0.0	+	17	noun	list	1	1	nomatch	loin	-1	1	p	0.56323
167.7418	0.2	pxqnwjz	17	noun	list	1	2	nomatch	loin	-1	1	p	0.56323
167.94170000000003	0.0	+	17	noun	list	1	3	nomatch	loin	-1	1	p	0.56323
168.3417	0.2	ngcx	17	noun	list	1	4	nomatch	loin	-1	1	p	0.56323
168.5417	0.0	+	17	noun	list	1	5	nomatch	loin	-1	1	p	0.56323
168.94170000000003	0.2	ms	17	noun	list	1	6	nomatch	loin	-1	1	p	0.56323
169.14170000000001	0.0	+	17	noun	list	1	7	nomatch	loin	-1	1	p	0.56323
169.54160000000002	0.2	drlbmhz	17	noun	list	1	8	nomatch	loin	-1	1	p	0.56323
169.7416	0.0	+	17	noun	list	1	9	nomatch	loin	-1	1	p	0.56323
170.14159999999998	0.2	tard	17	noun	list	1	10	nomatch	loin	-1	1	p	0.56323
170.34159999999997	0.0	+	17	noun	list	1	11	nomatch	loin	-1	1	p	0.56323
170.74149999999997	0.0	+	17	noun	list	1	12	nomatch	loin	-1	1	p	0.56323
172.7414	0.0	LOIN	17	noun	list	1	13	nomatch	loin	-1	1	p	0.56323
173.3746	0.0	+	17	noun	list	1	14	nomatch	loin	-1	1	p	0.56323
173.3046	0.0	[response]	17	noun	list	1	15	nomatch	loin	-1	1	p	0.56323
183.1406	0.0	+	18	noun	phrase	4	1	match	sous	2	1	y	0.74518
183.6905	0.2	vmfj	18	noun	phrase	4	2	match	sous	2	1	y	0.74518
183.89049999999997	0.0	+	18	noun	phrase	4	3	match	sous	2	1	y	0.74518
184.2905	0.2	sous	18	noun	phrase	4	4	match	sous	2	1	y	0.74518
184.4905	0.0	+	18	noun	phrase	4	5	match	sous	2	1	y	0.74518
184.8904	0.2	son	18	noun	phrase	4	6	match	sous	2	1	y	0.74518
185.0904	0.0	+	18	noun	phrase	4	7	match	sous	2	1	y	0.74518
185.49040000000002	0.2	rocher	18	noun	phrase	4	8	match	sous	2	1	y	0.74518
185.6904	0.0	+	18	noun	phrase	4	9	match	sous	2	1	y	0.74518
186.0903	0.2	bleu	18	noun	phrase	4	10	match	sous	2	1	y	0.74518
186.2903	0.0	+	18	noun	phrase	4	11	match	sous	2	1	y	0.74518
186.69029999999998	0.0	+	18	noun	phrase	4	12	match	sous	2	1	y	0.74518
188.69009999999997	0.0	SOUS	18	noun	phrase	4	13	match	sous	2	1	y	0.74518
189.49009999999998	0.0	+	18	noun	phrase	4	14	match	sous	2	1	y	0.74518
189.43529999999998	0.0	[response]	18	noun	phrase	4	15	match	sous	2	1	y	0.74518
191.08999999999997	0.0	+	19	noun	phrase	2	1	match	casier	5	1	y	0.73859
191.6399	0.2	mnrk	19	noun	phrase	2	2	match	casier	5	1	y	0.73859
191.8399	0.0	+	19	noun	phrase	2	3	match	casier	5	1	y	0.73859
192.23989999999998	0.2	dtnl	19	noun	phrase	2	4	match	casier	5	1	y	0.73859
192.43990000000002	0.0	+	19	noun	phrase	2	5	match	casier	5	1	y	0.73859
192.83980000000003	0.2	hkq	19	noun	phrase	2	6	match	casier	5	1	y	0.73859
193.0398	0.0	+	19	noun	phrase	2	7	match	casier	5	1	y	0.73859
193.4398	0.2	vieux	19	noun	phrase	2	8	match	casier	5	1	y	0.73859
193.63979999999998	0.0	+	19	noun	phrase	2	9	match	casier	5	1	y	0.73859
194.03969999999998	0.2	casier	19	noun	phrase	2	10	match	casier	5	1	y	0.73859
194.23970000000003	0.0	+	19	noun	phrase	2	11	match	casier	5	1	y	0.73859
194.6397	0.0	+	19	noun	phrase	2	12	match	casier	5	1	y	0.73859
196.6395	0.0	CASIER	19	noun	phrase	2	13	match	casier	5	1	y	0.73859
197.4395	0.0	+	19	noun	phrase	2	14	match	casier	5	1	y	0.73859
197.37810000000002	0.0	[response]	19	noun	phrase	2	15	match	casier	5	1	y	0.73859
199.03930000000003	0.0	+	20	noun	list	2	1	nomatch	mieux	-1	1	p	0.643
199.58930000000004	0.2	svb	20	noun	list	2	2	nomatch	mieux	-1	1	p	0.643
199.78930000000003	0.0	+	20	noun	list	2	3	nomatch	mieux	-1	1	p	0.643
200.1893	0.2	lnfq	20	noun	list	2	4	nomatch	mieux	-1	1	p	0.643
200.38920000000002	0.0	+	20	noun	list	2	5	nomatch	mieux	-1	1	p	0.643
200.7892	0.2	ms	20	noun	list	2	6	nomatch	mieux	-1	1	p	0.643
200.98920000000004	0.0	+	20	noun	list	2	7	nomatch	mieux	-1	1	p	0.643
201.38920000000002	0.2	tablier	20	noun	list	2	8	nomatch	mieux	-1	1	p	0.643
201.5892	0.0	+	20	noun	list	2	9	nomatch	mieux	-1	1	p	0.643
201.9891	0.2	tard	20	noun	list	2	10	nomatch	mieux	-1	1	p	0.643
202.1891	0.0	+	20	noun	list	2	11	nomatch	mieux	-1	1	p	0.643
202.58910000000003	0.0	+	20	noun	list	2	12	nomatch	mieux	-1	1	p	0.643
204.58890000000002	0.0	MIEUX	20	noun	list	2	13	nomatch	mieux	-1	1	p	0.643
205.2889	0.0	+	20	noun	list	2	14	nomatch	mieux	-1	1	p	0.643
205.2319	0.0	[response]	20	noun	list	2	15	nomatch	mieux	-1	1	p	0.643
206.9887	0.0	+	21	noun	phrase	1	1	nomatch	doit	-1	1	p	0.77288
207.5387	0.2	xlbhv	21	noun	phrase	1	2	nomatch	doit	-1	1	p	0.77288
207.7387	0.0	+	21	noun	phrase	1	3	nomatch	doit	-1	1	p	0.77288
208.1386	0.2	chdk	21	noun	phrase	1	4	nomatch	doit	-1	1	p	0.77288
208.33859999999999	0.0	+	21	noun	phrase	1	5	nomatch	doit	-1	1	p	0.77288
208.73860000000002	0.2	psl	21	noun	phrase	1	6	nomatch	doit	-1	1	p	0.77288
208.9386	0.0	+	21	noun	phrase	1	7	nomatch	doit	-1	1	p	0.77288
209.33859999999999	0.2	rtbdvcn	21	noun	phrase	1	8	nomatch	doit	-1	1	p	0.77288
209.5385	0.0	+	21	noun	phrase	1	9	nomatch	doit	-1	1	p	0.77288
209.93850000000003	0.2	grand	21	noun	phrase	1	10	nomatch	doit	-1	1	p	0.77288
210.13850000000002	0.0	+	21	noun	phrase	1	11	nomatch	doit	-1	1	p	0.77288
210.5385	0.0	+	21	noun	phrase	1	12	nomatch	doit	-1	1	p	0.77288
212.5383	0.0	DOIT	21	noun	phrase	1	13	nomatch	doit	-1	1	p	0.77288
213.3716	0.0	+	21	noun	phrase	1	14	nomatch	doit	-1	1	p	0.77288
213.31119999999999	0.0	[response]	21	noun	phrase	1	15	nomatch	doit	-1	1	p	0.77288
214.93810000000002	0.0	+	22	noun	phrase	1	1	nomatch	mon	-1	1	p	0.52471
215.48810000000003	0.2	rxgqbm	22	noun	phrase	1	2	nomatch	mon	-1	1	p	0.52471
215.68810000000002	0.0	+	22	noun	phrase	1	3	nomatch	mon	-1	1	p	0.52471
216.08800000000002	0.2	dtnl	22	noun	phrase	1	4	nomatch	mon	-1	1	p	0.52471
216.288	0.0	+	22	noun	phrase	1	5	nomatch	mon	-1	1	p	0.52471
216.688	0.2	hkq	22	noun	phrase	1	6	nomatch	mon	-1	1	p	0.52471
216.88800000000003	0.0	+	22	noun	phrase	1	7	nomatch	mon	-1	1	p	0.52471
217.28790000000004	0.2	vfsdzlm	22	noun	phrase	1	8	nomatch	mon	-1	1	p	0.52471
217.48790000000002	0.0	+	22	noun	phrase	1	9	nomatch	mon	-1	1	p	0.52471
217.8879	0.2	vieux	22	noun	phrase	1	10	nomatch	mon	-1	1	p	0.52471
218.0879	0.0	+	22	noun	phrase	1	11	nomatch	mon	-1	1	p	0.52471
218.48790000000002	0.0	+	22	noun	phrase	1	12	nomatch	mon	-1	1	p	0.52471
220.48770000000002	0.0	MON	22	noun	phrase	1	13	nomatch	mon	-1	1	p	0.52471
221.07100000000003	0.0	+	22	noun	phrase	1	14	nomatch	mon	-1	1	p	0.52471
221.0124	0.0	[response]	22	noun	phrase	1	15	nomatch	mon	-1	1	p	0.52471
222.8875	0.0	+	23	verb	list	1	1	nomatch	boîtier	-1	1	p	0.69462
223.4375	0.2	vjlcz	23	verb	list	1	2	nomatch	boîtier	-1	1	p	0.69462
223.6375	0.0	+	23	verb	list	1	3	nomatch	boîtier	-1	1	p	0.69462
224.0374	0.2	xfct	23	verb	list	1	4	nomatch	boîtier	-1	1	p	0.69462
224.23740000000004	0.0	+	23	verb	list	1	5	nomatch	boîtier	-1	1	p	0.69462
224.6374	0.2	psl	23	verb	list	1	6	nomatch	boîtier	-1	1	p	0.69462
224.8374	0.0	+	23	verb	list	1	7	nomatch	boîtier	-1	1	p	0.69462
225.2373	0.2	kbmnvdp	23	verb	list	1	8	nomatch	boîtier	-1	1	p	0.69462
225.4373	0.0	+	23	verb	list	1	9	nomatch	boîtier	-1	1	p	0.69462
225.83730000000003	0.2	bleu	23	verb	list	1	10	nomatch	boîtier	-1	1	p	0.69462
226.03730000000002	0.0	+	23	verb	list	1	11	nomatch	boîtier	-1	1	p	0.69462
226.43720000000002	0.0	+	23	verb	list	1	12	nomatch	boîtier	-1	1	p	0.69462
228.4371	0.0	BOÎTIER	23	verb	list	1	13	nomatch	boîtier	-1	1	p	0.69462
229.187	0.0	+	23	verb	list	1	14	nomatch	boîtier	-1	1	p	0.69462
229.13170000000002	0.0	[response]	23	verb	list	1	15	nomatch	boîtier	-1	1	p	0.69462
230.8369	0.0	+	24	noun	list	3	1	nomatch	vieux	-1	1	p	0.78045
231.38690000000003	0.2	hlcb	24	noun	list	3	2	nomatch	vieux	-1	1	p	0.78045
231.58680000000004	0.0	+	24	noun	list	3	3	nomatch	vieux	-1	1	p	0.78045
231.98680000000002	0.2	jkvt	24	noun	list	3	4	nomatch	vieux	-1	1	p	0.78045
232.1868	0.0	+	24	noun	list	3	5	nomatch	vieux	-1	1	p	0.78045
232.58680000000004	0.2	son	24	noun	list	3	6	nomatch	vieux	-1	1	p	0.78045
232.78680000000003	0.0	+	24	noun	list	3	7	nomatch	vieux	-1	1	p	0.78045
233.18670000000003	0.2	mieux	24	noun	list	3	8	nomatch	vieux	-1	1	p	0.78045
233.38670000000002	0.0	+	24	noun	list	3	9	nomatch	vieux	-1	1	p	0.78045
233.7867	0.2	casier	24	noun	list	3	10	nomatch	vieux	-1	1	p	0.78045
233.98670000000004	0.0	+	24	noun	list	3	11	nomatch	vieux	-1	1	p	0.78045
234.3866	0.0	+	24	noun	list	3	12	nomatch	vieux	-1	1	p	0.78045
236.3865	0.0	VIEUX	24	noun	list	3	13	nomatch	vieux	-1	1	p	0.78045
237.2364	0.0	+	24	noun	list	3	14	nomatch	vieux	-1	1	p	0.78045
237.1669	0.0	[response]	24	noun	list	3	15	nomatch	vieux	-1	1	p	0.78045
238.78630000000004	0.0	+	25	verb	phrase	1	1	match	loin	5	1	y	0.6631
239.33620000000002	0.2	nckrf	25	verb	phrase	1	2	match	loin	5	1	y	0.6631
239.5362	0.0	+	25	verb	phrase	1	3	match	loin	5	1	y	0.6631
239.93619999999999	0.2	mrzd	25	verb	phrase	1	4	match	loin	5	1	y	0.6631
240.13620000000003	0.0	+	25	verb	phrase	1	5	match	loin	5	1	y	0.6631
240.5362	0.2	lnfq	25	verb	phrase	1	6	match	loin	5	1	y	0.6631
240.73610000000002	0.0	+	25	verb	phrase	1	7	match	loin	5	1	y	0.6631
241.1361	0.2	kbmnvdp	25	verb	phrase	1	8	match	loin	5	1	y	0.6631
241.3361	0.0	+	25	verb	phrase	1	9	match	loin	5	1	y	0.6631
241.73610000000002	0.2	loin	25	verb	phrase	1	10	match	loin	5	1	y	0.6631
241.93600000000004	0.0	+	25	verb	phrase	1	11	match	loin	5	1	y	0.6631
242.336	0.0	+	25	verb	phrase	1	12	match	loin	5	1	y	0.6631
244.33590000000004	0.0	LOIN	25	verb	phrase	1	13	match	loin	5	1	y	0.6631
245.0691	0.0	+	25	verb	phrase	1	14	match	loin	5	1	y	0.6631
244.99900000000002	0.0	[response]	25	verb	phrase	1	15	match	loin	5	1	y	0.6631
254.7351	0.0	+	26	noun	phrase	3	1	nomatch	doit	-1	1	p	0.71392
255.28500000000003	0.2	cbfwpvd	26	noun	phrase	3	2	nomatch	doit	-1	1	p	0.71392
255.485	0.0	+	26	noun	phrase	3	3	nomatch	doit	-1	1	p	0.71392
255.885	0.2	dtnl	26	noun	phrase	3	4	nomatch	doit	-1	1	p	0.71392
256.08500000000004	0.0	+	26	noun	phrase	3	5	nomatch	doit	-1	1	p	0.71392
256.485	0.2	mon	26	noun	phrase	3	6	nomatch	doit	-1	1	p	0.71392
256.6849	0.0	+	26	noun	phrase	3	7	nomatch	doit	-1	1	p	0.71392
257.0849	0.2	cendrier	26	noun	phrase	3	8	nomatch	doit	-1	1	p	0.71392
257.2849	0.0	+	26	noun	phrase	3	9	nomatch	doit	-1	1	p	0.71392
257.6849	0.2	vert	26	noun	phrase	3	10	nomatch	doit	-1	1	p	0.71392
257.8849	0.0	+	26	noun	phrase	3	11	nomatch	doit	-1	1	p	0.71392
258.2848	0.0	+	26	noun	phrase	3	12	nomatch	doit	-1	1	p	0.71392
260.3013	0.0	DOIT	26	noun	phrase	3	13	nomatch	doit	-1	1	p	0.71392
261.0846	0.0	+	26	noun	phrase	3	14	nomatch	doit	-1	1	p	0.71392
261.0152	0.0	[response]	26	noun	phrase	3	15	nomatch	doit	-1	1	p	0.71392
262.7011	0.0	+	27	noun	phrase	2	1	match	nouveau	4	1	y	0.67677
263.2511	0.2	dskf	27	noun	phrase	2	2	match	nouveau	4	1	y	0.67677
263.4511	0.0	+	27	noun	phrase	2	3	match	nouveau	4	1	y	0.67677
263.851	0.2	lnfq	27	noun	phrase	2	4	match	nouveau	4	1	y	0.67677
264.051	0.0	+	27	noun	phrase	2	5	match	nouveau	4	1	y	0.67677
264.451	0.2	hkq	27	noun	phrase	2	6	match	nouveau	4	1	y	0.67677
264.651	0.0	+	27	noun	phrase	2	7	match	nouveau	4	1	y	0.67677
265.0509	0.2	nouveau	27	noun	phrase	2	8	match	nouveau	4	1	y	0.67677
265.2509	0.0	+	27	noun	phrase	2	9	match	nouveau	4	1	y	0.67677
265.65090000000004	0.2	rocher	27	noun	phrase	2	10	match	nouveau	4	1	y	0.67677
265.8509	0.0	+	27	noun	phrase	2	11	match	nouveau	4	1	y	0.67677
266.2508	0.0	+	27	noun	phrase	2	12	match	nouveau	4	1	y	0.67677
268.2507	0.0	NOUVEAU	27	noun	phrase	2	13	match	nouveau	4	1	y	0.67677
268.98400000000004	0.0	+	27	noun	phrase	2	14	match	nouveau	4	1	y	0.67677
268.9275	0.0	[response]	27	noun	phrase	2	15	match	nouveau	4	1	y	0.67677
270.6505	0.0	+	28	verb	phrase	1	1	match	patiner	5	1	y	0.5494200000000001
271.20050000000003	0.2	pjrbtvx	28	verb	phrase	1	2	match	patiner	5	1	y	0.5494200000000001
271.4004	0.0	+	28	verb	phrase	1	3	match	patiner	5	1	y	0.5494200000000001
271.8004	0.2	kvlx	28	verb	phrase	1	4	match	patiner	5	1	y	0.5494200000000001
272.0004	0.0	+	28	verb	phrase	1	5	match	patiner	5	1	y	0.5494200000000001
272.4004	0.2	qgkm	28	verb	phrase	1	6	match	patiner	5	1	y	0.5494200000000001
272.60040000000004	0.0	+	28	verb	phrase	1	7	match	patiner	5	1	y	0.5494200000000001
273.00030000000004	0.2	sbxh	28	verb	phrase	1	8	match	patiner	5	1	y	0.5494200000000001
273.2003	0.0	+	28	verb	phrase	1	9	match	patiner	5	1	y	0.5494200000000001
273.6003	0.2	patiner	28	verb	phrase	1	10	match	patiner	5	1	y	0.5494200000000001
273.8003	0.0	+	28	verb	phrase	1	11	match	patiner	5	1	y	0.5494200000000001
274.2002	0.0	+	28	verb	phrase	1	12	match	patiner	5	1	y	0.5494200000000001
276.2001	0.0	PATINER	28	verb	phrase	1	13	match	patiner	5	1	y	0.5494200000000001
276.8167	0.0	+	28	verb	phrase	1	14	match	patiner	5	1	y	0.5494200000000001
276.7495	0.0	[response]	28	verb	phrase	1	15	match	patiner	5	1	y	0.5494200000000001
286.5993	0.0	+	29	verb	phrase	1	1	nomatch	chasser	-1	1	p	0.47428
287.1492	0.2	dlpvwkn	29	verb	phrase	1	2	nomatch	chasser	-1	1	p	0.47428
287.3492	0.0	+	29	verb	phrase	1	3	nomatch	chasser	-1	1	p	0.47428
287.74920000000003	0.2	kjs	29	verb	phrase	1	4	nomatch	chasser	-1	1	p	0.47428
287.9492	0.0	+	29	verb	phrase	1	5	nomatch	chasser	-1	1	p	0.47428
288.3491	0.2	ms	29	verb	phrase	1	6	nomatch	chasser	-1	1	p	0.47428
288.5491	0.0	+	29	verb	phrase	1	7	nomatch	chasser	-1	1	p	0.47428
288.9491	0.2	wkjvd	29	verb	phrase	1	8	nomatch	chasser	-1	1	p	0.47428
289.14910000000003	0.0	+	29	verb	phrase	1	9	nomatch	chasser	-1	1	p	0.47428
289.54900000000004	0.2	rouler	29	verb	phrase	1	10	nomatch	chasser	-1	1	p	0.47428
289.749	0.0	+	29	verb	phrase	1	11	nomatch	chasser	-1	1	p	0.47428
290.149	0.0	+	29	verb	phrase	1	12	nomatch	chasser	-1	1	p	0.47428
292.1488	0.0	CHASSER	29	verb	phrase	1	13	nomatch	chasser	-1	1	p	0.47428
292.6821	0.0	+	29	verb	phrase	1	14	nomatch	chasser	-1	1	p	0.47428
292.6231	0.0	[response]	29	verb	phrase	1	15	nomatch	chasser	-1	1	p	0.47428
294.5487	0.0	+	30	noun	list	1	1	nomatch	clavier	-1	1	p	0.6154
295.09860000000003	0.2	fzpgc	30	noun	list	1	2	nomatch	clavier	-1	1	p	0.6154
295.2986	0.0	+	30	noun	list	1	3	nomatch	clavier	-1	1	p	0.6154
295.6986	0.2	dtnl	30	noun	list	1	4	nomatch	clavier	-1	1	p	0.6154
295.8986	0.0	+	30	noun	list	1	5	nomatch	clavier	-1	1	p	0.6154
296.2985	0.2	lnfq	30	noun	list	1	6	nomatch	clavier	-1	1	p	0.6154
296.49850000000004	0.0	+	30	noun	list	1	7	nomatch	clavier	-1	1	p	0.6154
296.8985	0.2	sbxh	30	noun	list	1	8	nomatch	clavier	-1	1	p	0.6154
297.0985	0.0	+	30	noun	list	1	9	nomatch	clavier	-1	1	p	0.6154
297.4984	0.2	grenier	30	noun	list	1	10	nomatch	clavier	-1	1	p	0.6154
297.6984	0.0	+	30	noun	list	1	11	nomatch	clavier	-1	1	p	0.6154
298.0984	0.0	+	30	noun	list	1	12	nomatch	clavier	-1	1	p	0.6154
300.0982	0.0	CLAVIER	30	noun	list	1	13	nomatch	clavier	-1	1	p	0.6154
300.7815	0.0	+	30	noun	list	1	14	nomatch	clavier	-1	1	p	0.6154
300.7136	0.0	[response]	30	noun	list	1	15	nomatch	clavier	-1	1	p	0.6154
302.498	0.0	+	31	noun	list	4	1	match	peut	3	1	y	1.1926
303.048	0.2	nkxhstg	31	noun	list	4	2	match	peut	3	1	y	1.1926
303.248	0.0	+	31	noun	list	4	3	match	peut	3	1	y	1.1926
303.648	0.2	sans	31	noun	list	4	4	match	peut	3	1	y	1.1926
303.84790000000004	0.0	+	31	noun	list	4	5	match	peut	3	1	y	1.1926
304.2479	0.2	peut	31	noun	list	4	6	match	peut	3	1	y	1.1926
304.4479	0.0	+	31	noun	list	4	7	match	peut	3	1	y	1.1926
304.84790000000004	0.2	casier	31	noun	list	4	8	match	peut	3	1	y	1.1926
305.0479	0.0	+	31	noun	list	4	9	match	peut	3	1	y	1.1926
305.44780000000003	0.2	tôt	31	noun	list	4	10	match	peut	3	1	y	1.1926
305.6478	0.0	+	31	noun	list	4	11	match	peut	3	1	y	1.1926
306.0478	0.0	+	31	noun	list	4	12	match	peut	3	1	y	1.1926
308.0476	0.0	PEUT	31	noun	list	4	13	match	peut	3	1	y	1.1926
309.2975	0.0	+	31	noun	list	4	14	match	peut	3	1	y	1.1926
309.2402000000001	0.0	[response]	31	noun	list	4	15	match	peut	3	1	y	1.1926
310.4474	0.0	+	32	verb	list	4	1	match	vieux	4	1	y	1.0118
310.9974	0.2	gvpnm	32	verb	list	4	2	match	vieux	4	1	y	1.0118
311.1974	0.0	+	32	verb	list	4	3	match	vieux	4	1	y	1.0118
311.5974	0.2	dans	32	verb	list	4	4	match	vieux	4	1	y	1.0118
311.7973	0.0	+	32	verb	list	4	5	match	vieux	4	1	y	1.0118
312.19730000000004	0.2	va	32	verb	list	4	6	match	vieux	4	1	y	1.0118
312.39730000000003	0.0	+	32	verb	list	4	7	match	vieux	4	1	y	1.0118
312.7973	0.2	vieux	32	verb	list	4	8	match	vieux	4	1	y	1.0118
312.9972	0.0	+	32	verb	list	4	9	match	vieux	4	1	y	1.0118
313.3972	0.2	nager	32	verb	list	4	10	match	vieux	4	1	y	1.0118
313.5972	0.0	+	32	verb	list	4	11	match	vieux	4	1	y	1.0118
313.9972	0.0	+	32	verb	list	4	12	match	vieux	4	1	y	1.0118
315.997	0.0	VIEUX	32	verb	list	4	13	match	vieux	4	1	y	1.0118
317.0636	0.0	+	32	verb	list	4	14	match	vieux	4	1	y	1.0118
317.0088	0.0	[response]	32	verb	list	4	15	match	vieux	4	1	y	1.0118
318.39680000000004	0.0	+	33	verb	list	1	1	match	nouveau	5	1	y	0.44781
318.9468	0.2	jzp	33	verb	list	1	2	match	nouveau	5	1	y	0.44781
319.14680000000004	0.0	+	33	verb	list	1	3	match	nouveau	5	1	y	0.44781
319.5467	0.2	lnfq	33	verb	list	1	4	match	nouveau	5	1	y	0.44781
319.74670000000003	0.0	+	33	verb	list	1	5	match	nouveau	5	1	y	0.44781
320.1467	0.2	lnfq	33	verb	list	1	6	match	nouveau	5	1	y	0.44781
320.3467	0.0	+	33	verb	list	1	7	match	nouveau	5	1	y	0.44781
320.7466	0.2	ftxvqrb	33	verb	list	1	8	match	nouveau	5	1	y	0.44781
320.9466	0.0	+	33	verb	list	1	9	match	nouveau	5	1	y	0.44781
321.3466	0.2	nouveau	33	verb	list	1	10	match	nouveau	5	1	y	0.44781
321.5466	0.0	+	33	verb	list	1	11	match	nouveau	5	1	y	0.44781
321.9466	0.0	+	33	verb	list	1	12	match	nouveau	5	1	y	0.44781
323.94640000000004	0.0	NOUVEAU	33	verb	list	1	13	match	nouveau	5	1	y	0.44781
324.463	0.0	+	33	verb	list	1	14	match	nouveau	5	1	y	0.44781
324.39420000000007	0.0	[response]	33	verb	list	1	15	match	nouveau	5	1	y	0.44781
326.3462	0.0	+	34	verb	phrase	3	1	nomatch	bleu	-1	1	p	0.7934500000000001
326.8962	0.2	rvhqn	34	verb	phrase	3	2	nomatch	bleu	-1	1	p	0.7934500000000001
327.0962	0.0	+	34	verb	phrase	3	3	nomatch	bleu	-1	1	p	0.7934500000000001
327.4961	0.2	kvlx	34	verb	phrase	3	4	nomatch	bleu	-1	1	p	0.7934500000000001
327.6961	0.0	+	34	verb	phrase	3	5	nomatch	bleu	-1	1	p	0.7934500000000001
328.09610000000004	0.2	peut	34	verb	phrase	3	6	nomatch	bleu	-1	1	p	0.7934500000000001
328.2961	0.0	+	34	verb	phrase	3	7	nomatch	bleu	-1	1	p	0.7934500000000001
328.696	0.2	moins	34	verb	phrase	3	8	nomatch	bleu	-1	1	p	0.7934500000000001
328.896	0.0	+	34	verb	phrase	3	9	nomatch	bleu	-1	1	p	0.7934500000000001
329.296	0.2	chasser	34	verb	phrase	3	10	nomatch	bleu	-1	1	p	0.7934500000000001
329.49600000000004	0.0	+	34	verb	phrase	3	11	nomatch	bleu	-1	1	p	0.7934500000000001
329.89590000000004	0.0	+	34	verb	phrase	3	12	nomatch	bleu	-1	1	p	0.7934500000000001
331.8958	0.0	BLEU	34	verb	phrase	3	13	nomatch	bleu	-1	1	p	0.7934500000000001
332.7457	0.0	+	34	verb	phrase	3	14	nomatch	bleu	-1	1	p	0.7934500000000001
332.6892	0.0	[response]	34	verb	phrase	3	15	nomatch	bleu	-1	1	p	0.7934500000000001
334.29560000000004	0.0	+	35	noun	phrase	3	1	nomatch	grenier	-1	1	p	0.64182
334.8456	0.2	shtmxc	35	noun	phrase	3	2	nomatch	grenier	-1	1	p	0.64182
335.0455	0.0	+	35	noun	phrase	3	3	nomatch	grenier	-1	1	p	0.64182
335.44550000000004	0.2	xsh	35	noun	phrase	3	4	nomatch	grenier	-1	1	p	0.64182
335.6455	0.0	+	35	noun	phrase	3	5	nomatch	grenier	-1	1	p	0.64182
336.0455	0.2	mon	35	noun	phrase	3	6	nomatch	grenier	-1	1	p	0.64182
336.2455	0.0	+	35	noun	phrase	3	7	nomatch	grenier	-1	1	p	0.64182
336.6454	0.2	vieux	35	noun	phrase	3	8	nomatch	grenier	-1	1	p	0.64182
336.84540000000004	0.0	+	35	noun	phrase	3	9	nomatch	grenier	-1	1	p	0.64182
337.2454	0.2	boîtier	35	noun	phrase	3	10	nomatch	grenier	-1	1	p	0.64182
337.4454	0.0	+	35	noun	phrase	3	11	nomatch	grenier	-1	1	p	0.64182
337.8453	0.0	+	35	noun	phrase	3	12	nomatch	grenier	-1	1	p	0.64182
339.84520000000003	0.0	GRENIER	35	noun	phrase	3	13	nomatch	grenier	-1	1	p	0.64182
340.5451	0.0	+	35	noun	phrase	3	14	nomatch	grenier	-1	1	p	0.64182
340.487	0.0	[response]	35	noun	phrase	3	15	nomatch	grenier	-1	1	p	0.64182
342.245	0.0	+	36	verb	phrase	4	1	match	beaucoup	4	1	y	0.8142400000000001
342.79490000000004	0.2	wsk	36	verb	phrase	4	2	match	beaucoup	4	1	y	0.8142400000000001
342.99490000000003	0.0	+	36	verb	phrase	4	3	match	beaucoup	4	1	y	0.8142400000000001
343.3949	0.2	jean	36	verb	phrase	4	4	match	beaucoup	4	1	y	0.8142400000000001
343.5949	0.0	+	36	verb	phrase	4	5	match	beaucoup	4	1	y	0.8142400000000001
343.99490000000003	0.2	va	36	verb	phrase	4	6	match	beaucoup	4	1	y	0.8142400000000001
344.1948	0.0	+	36	verb	phrase	4	7	match	beaucoup	4	1	y	0.8142400000000001
344.5948	0.2	beaucoup	36	verb	phrase	4	8	match	beaucoup	4	1	y	0.8142400000000001
344.7948	0.0	+	36	verb	phrase	4	9	match	beaucoup	4	1	y	0.8142400000000001
345.1948	0.2	nager	36	verb	phrase	4	10	match	beaucoup	4	1	y	0.8142400000000001
345.39480000000003	0.0	+	36	verb	phrase	4	11	match	beaucoup	4	1	y	0.8142400000000001
345.79470000000003	0.0	+	36	verb	phrase	4	12	match	beaucoup	4	1	y	0.8142400000000001
347.7946	0.0	BEAUCOUP	36	verb	phrase	4	13	match	beaucoup	4	1	y	0.8142400000000001
348.6778	0.0	+	36	verb	phrase	4	14	match	beaucoup	4	1	y	0.8142400000000001
348.60880000000003	0.0	[response]	36	verb	phrase	4	15	match	beaucoup	4	1	y	0.8142400000000001
350.19440000000003	0.0	+	37	noun	phrase	1	1	nomatch	sans	-1	1	p	0.5391
350.7443	0.2	pwgjqn	37	noun	phrase	1	2	nomatch	sans	-1	1	p	0.5391
350.9443	0.0	+	37	noun	phrase	1	3	nomatch	sans	-1	1	p	0.5391
351.34430000000003	0.2	dtnl	37	noun	phrase	1	4	nomatch	sans	-1	1	p	0.5391
351.5443	0.0	+	37	noun	phrase	1	5	nomatch	sans	-1	1	p	0.5391
351.9442	0.2	hkq	37	noun	phrase	1	6	nomatch	sans	-1	1	p	0.5391
352.1442	0.0	+	37	noun	phrase	1	7	nomatch	sans	-1	1	p	0.5391
352.5442	0.2	gbnx	37	noun	phrase	1	8	nomatch	sans	-1	1	p	0.5391
352.74420000000003	0.0	+	37	noun	phrase	1	9	nomatch	sans	-1	1	p	0.5391
353.1442	0.2	sablier	37	noun	phrase	1	10	nomatch	sans	-1	1	p	0.5391
353.3441	0.0	+	37	noun	phrase	1	11	nomatch	sans	-1	1	p	0.5391
353.7441	0.0	+	37	noun	phrase	1	12	nomatch	sans	-1	1	p	0.5391
355.744	0.0	SANS	37	noun	phrase	1	13	nomatch	sans	-1	1	p	0.5391
356.3439	0.0	+	37	noun	phrase	1	14	nomatch	sans	-1	1	p	0.5391
356.283	0.0	[response]	37	noun	phrase	1	15	nomatch	sans	-1	1	p	0.5391
358.1438	0.0	+	38	noun	list	3	1	match	grenier	5	1	y	0.9609400000000001
358.69370000000004	0.2	ntwxvq	38	noun	list	3	2	match	grenier	5	1	y	0.9609400000000001
358.8937	0.0	+	38	noun	list	3	3	match	grenier	5	1	y	0.9609400000000001
359.2937	0.2	mrzd	38	noun	list	3	4	match	grenier	5	1	y	0.9609400000000001
359.4937	0.0	+	38	noun	list	3	5	match	grenier	5	1	y	0.9609400000000001
359.8936	0.2	leur	38	noun	list	3	6	match	grenier	5	1	y	0.9609400000000001
360.09360000000004	0.0	+	38	noun	list	3	7	match	grenier	5	1	y	0.9609400000000001
360.4936	0.2	mieux	38	noun	list	3	8	match	grenier	5	1	y	0.9609400000000001
360.6936	0.0	+	38	noun	list	3	9	match	grenier	5	1	y	0.9609400000000001
361.0935	0.2	grenier	38	noun	list	3	10	match	grenier	5	1	y	0.9609400000000001
361.2935	0.0	+	38	noun	list	3	11	match	grenier	5	1	y	0.9609400000000001
361.69350000000003	0.0	+	38	noun	list	3	12	match	grenier	5	1	y	0.9609400000000001
363.6933	0.0	GRENIER	38	noun	list	3	13	match	grenier	5	1	y	0.9609400000000001
364.7099	0.0	+	38	noun	list	3	14	match	grenier	5	1	y	0.9609400000000001
364.65430000000003	0.0	[response]	38	noun	list	3	15	match	grenier	5	1	y	0.9609400000000001
366.0931	0.0	+	39	verb	phrase	3	1	nomatch	clavier	-1	1	p	0.63914
366.6431	0.2	ksrhwg	39	verb	phrase	3	2	nomatch	clavier	-1	1	p	0.63914
366.8431	0.0	+	39	verb	phrase	3	3	nomatch	clavier	-1	1	p	0.63914
367.2431	0.2	jkvt	39	verb	phrase	3	4	nomatch	clavier	-1	1	p	0.63914
367.4431	0.0	+	39	verb	phrase	3	5	nomatch	clavier	-1	1	p	0.63914
367.843	0.2	va	39	verb	phrase	3	6	nomatch	clavier	-1	1	p	0.63914
368.043	0.0	+	39	verb	phrase	3	7	nomatch	clavier	-1	1	p	0.63914
368.44300000000004	0.2	voyager	39	verb	phrase	3	8	nomatch	clavier	-1	1	p	0.63914
368.64300000000003	0.0	+	39	verb	phrase	3	9	nomatch	clavier	-1	1	p	0.63914
369.04290000000003	0.2	tard	39	verb	phrase	3	10	nomatch	clavier	-1	1	p	0.63914
369.2429	0.0	+	39	verb	phrase	3	11	nomatch	clavier	-1	1	p	0.63914
369.6429	0.0	+	39	verb	phrase	3	12	nomatch	clavier	-1	1	p	0.63914
371.6427	0.0	CLAVIER	39	verb	phrase	3	13	nomatch	clavier	-1	1	p	0.63914
372.34270000000004	0.0	+	39	verb	phrase	3	14	nomatch	clavier	-1	1	p	0.63914
372.2819	0.0	[response]	39	verb	phrase	3	15	nomatch	clavier	-1	1	p	0.63914
374.0425	0.0	+	40	noun	list	3	1	nomatch	doit	-1	1	p	0.90451
374.59250000000003	0.2	tmvsnq	40	noun	list	3	2	nomatch	doit	-1	1	p	0.90451
374.7925	0.0	+	40	noun	list	3	3	nomatch	doit	-1	1	p	0.90451
375.1925	0.2	dtnl	40	noun	list	3	4	nomatch	doit	-1	1	p	0.90451
375.3924	0.0	+	40	noun	list	3	5	nomatch	doit	-1	1	p	0.90451
375.7924	0.2	peut	40	noun	list	3	6	nomatch	doit	-1	1	p	0.90451
375.99240000000003	0.0	+	40	noun	list	3	7	nomatch	doit	-1	1	p	0.90451
376.3924	0.2	sablier	40	noun	list	3	8	nomatch	doit	-1	1	p	0.90451
376.5924	0.0	+	40	noun	list	3	9	nomatch	doit	-1	1	p	0.90451
376.9923	0.2	ainsi	40	noun	list	3	10	nomatch	doit	-1	1	p	0.90451
377.1923	0.0	+	40	noun	list	3	11	nomatch	doit	-1	1	p	0.90451
377.5923	0.0	+	40	noun	list	3	12	nomatch	doit	-1	1	p	0.90451
379.5921	0.0	DOIT	40	noun	list	3	13	nomatch	doit	-1	1	p	0.90451
380.5587	0.0	+	40	noun	list	3	14	nomatch	doit	-1	1	p	0.90451
380.4966	0.0	[response]	40	noun	list	3	15	nomatch	doit	-1	1	p	0.90451
381.9919	0.0	+	41	verb	list	3	1	nomatch	mon	-1	1	p	0.66288
382.5419	0.2	rtlnsbx	41	verb	list	3	2	nomatch	mon	-1	1	p	0.66288
382.7419	0.0	+	41	verb	list	3	3	nomatch	mon	-1	1	p	0.66288
383.1418	0.2	cnjt	41	verb	list	3	4	nomatch	mon	-1	1	p	0.66288
383.34180000000003	0.0	+	41	verb	list	3	5	nomatch	mon	-1	1	p	0.66288
383.7418	0.2	son	41	verb	list	3	6	nomatch	mon	-1	1	p	0.66288
383.9418	0.0	+	41	verb	list	3	7	nomatch	mon	-1	1	p	0.66288
384.34180000000003	0.2	danser	41	verb	list	3	8	nomatch	mon	-1	1	p	0.66288
384.5417	0.0	+	41	verb	list	3	9	nomatch	mon	-1	1	p	0.66288
384.9417	0.2	bleu	41	verb	list	3	10	nomatch	mon	-1	1	p	0.66288
385.1417	0.0	+	41	verb	list	3	11	nomatch	mon	-1	1	p	0.66288
385.5417	0.0	+	41	verb	list	3	12	nomatch	mon	-1	1	p	0.66288
387.5415	0.0	MON	41	verb	list	3	13	nomatch	mon	-1	1	p	0.66288
388.2748	0.0	+	41	verb	list	3	14	nomatch	mon	-1	1	p	0.66288
388.2044000000001	0.0	[response]	41	verb	list	3	15	nomatch	mon	-1	1	p	0.66288
389.9413	0.0	+	42	noun	list	1	1	match	boîtier	5	1	y	0.7465900000000001
390.4913	0.2	sqn	42	noun	list	1	2	match	boîtier	5	1	y	0.7465900000000001
390.6913	0.0	+	42	noun	list	1	3	match	boîtier	5	1	y	0.7465900000000001
391.0912	0.2	kjs	42	noun	list	1	4	match	boîtier	5	1	y	0.7465900000000001
391.2912	0.0	+	42	noun	list	1	5	match	boîtier	5	1	y	0.7465900000000001
391.69120000000004	0.2	hkq	42	noun	list	1	6	match	boîtier	5	1	y	0.7465900000000001
391.8912	0.0	+	42	noun	list	1	7	match	boîtier	5	1	y	0.7465900000000001
392.29110000000003	0.2	hlrv	42	noun	list	1	8	match	boîtier	5	1	y	0.7465900000000001
392.4911	0.0	+	42	noun	list	1	9	match	boîtier	5	1	y	0.7465900000000001
392.8911	0.2	boîtier	42	noun	list	1	10	match	boîtier	5	1	y	0.7465900000000001
393.09110000000004	0.0	+	42	noun	list	1	11	match	boîtier	5	1	y	0.7465900000000001
393.491	0.0	+	42	noun	list	1	12	match	boîtier	5	1	y	0.7465900000000001
395.4909	0.0	BOÎTIER	42	noun	list	1	13	match	boîtier	5	1	y	0.7465900000000001
396.3075	0.0	+	42	noun	list	1	14	match	boîtier	5	1	y	0.7465900000000001
396.2375	0.0	[response]	42	noun	list	1	15	match	boîtier	5	1	y	0.7465900000000001
397.89070000000004	0.0	+	43	verb	list	1	1	nomatch	luc	-1	1	p	0.81183
398.4407	0.2	gzm	43	verb	list	1	2	nomatch	luc	-1	1	p	0.81183
398.6406	0.0	+	43	verb	list	1	3	nomatch	luc	-1	1	p	0.81183
399.04060000000004	0.2	fhsq	43	verb	list	1	4	nomatch	luc	-1	1	p	0.81183
399.24060000000003	0.0	+	43	verb	list	1	5	nomatch	luc	-1	1	p	0.81183
399.6406	0.2	ms	43	verb	list	1	6	nomatch	luc	-1	1	p	0.81183
399.8406	0.0	+	43	verb	list	1	7	nomatch	luc	-1	1	p	0.81183
400.2405	0.2	wjmkxng	43	verb	list	1	8	nomatch	luc	-1	1	p	0.81183
400.4405	0.0	+	43	verb	list	1	9	nomatch	luc	-1	1	p	0.81183
400.8405	0.2	vieux	43	verb	list	1	10	nomatch	luc	-1	1	p	0.81183
401.0405	0.0	+	43	verb	list	1	11	nomatch	luc	-1	1	p	0.81183
401.4404	0.0	+	43	verb	list	1	12	nomatch	luc	-1	1	p	0.81183
403.44030000000004	0.0	LUC	43	verb	list	1	13	nomatch	luc	-1	1	p	0.81183
404.30690000000004	0.0	+	43	verb	list	1	14	nomatch	luc	-1	1	p	0.81183
404.25210000000004	0.0	[response]	43	verb	list	1	15	nomatch	luc	-1	1	p	0.81183
413.8395	0.0	+	44	noun	list	1	1	nomatch	sablier	-1	1	p	0.91443
414.3894	0.2	gln	44	noun	list	1	2	nomatch	sablier	-1	1	p	0.91443
414.5894	0.0	+	44	noun	list	1	3	nomatch	sablier	-1	1	p	0.91443
414.9894	0.2	mrzd	44	noun	list	1	4	nomatch	sablier	-1	1	p	0.91443
415.18940000000003	0.0	+	44	noun	list	1	5	nomatch	sablier	-1	1	p	0.91443
415.58930000000004	0.2	mwvt	44	noun	list	1	6	nomatch	sablier	-1	1	p	0.91443
415.7893	0.0	+	44	noun	list	1	7	nomatch	sablier	-1	1	p	0.91443
416.1893	0.2	wjrvhplb	44	noun	list	1	8	nomatch	sablier	-1	1	p	0.91443
416.3893	0.0	+	44	noun	list	1	9	nomatch	sablier	-1	1	p	0.91443
416.7893	0.2	casier	44	noun	list	1	10	nomatch	sablier	-1	1	p	0.91443
416.98920000000004	0.0	+	44	noun	list	1	11	nomatch	sablier	-1	1	p	0.91443
417.3892	0.0	+	44	noun	list	1	12	nomatch	sablier	-1	1	p	0.91443
419.38910000000004	0.0	SABLIER	44	noun	list	1	13	nomatch	sablier	-1	1	p	0.91443
420.3723	0.0	+	44	noun	list	1	14	nomatch	sablier	-1	1	p	0.91443
420.3035	0.0	[response]	44	noun	list	1	15	nomatch	sablier	-1	1	p	0.91443
421.7889	0.0	+	45	noun	phrase	1	1	nomatch	vieux	-1	1	p	0.7575900000000001
422.3388	0.2	bwhlp	45	noun	phrase	1	2	nomatch	vieux	-1	1	p	0.7575900000000001
422.53880000000004	0.0	+	45	noun	phrase	1	3	nomatch	vieux	-1	1	p	0.7575900000000001
422.9388	0.2	ngcx	45	noun	phrase	1	4	nomatch	vieux	-1	1	p	0.7575900000000001
423.1388	0.0	+	45	noun	phrase	1	5	nomatch	vieux	-1	1	p	0.7575900000000001
423.5387	0.2	psl	45	noun	phrase	1	6	nomatch	vieux	-1	1	p	0.7575900000000001
423.7387	0.0	+	45	noun	phrase	1	7	nomatch	vieux	-1	1	p	0.7575900000000001
424.13870000000003	0.2	drlbmhz	45	noun	phrase	1	8	nomatch	vieux	-1	1	p	0.7575900000000001
424.3387	0.0	+	45	noun	phrase	1	9	nomatch	vieux	-1	1	p	0.7575900000000001
424.7386	0.2	grand	45	noun	phrase	1	10	nomatch	vieux	-1	1	p	0.7575900000000001
424.9386	0.0	+	45	noun	phrase	1	11	nomatch	vieux	-1	1	p	0.7575900000000001
425.3386	0.0	+	45	noun	phrase	1	12	nomatch	vieux	-1	1	p	0.7575900000000001
427.33840000000004	0.0	VIEUX	45	noun	phrase	1	13	nomatch	vieux	-1	1	p	0.7575900000000001
428.15500000000003	0.0	+	45	noun	phrase	1	14	nomatch	vieux	-1	1	p	0.7575900000000001
428.09600000000006	0.0	[response]	45	noun	phrase	1	15	nomatch	vieux	-1	1	p	0.7575900000000001
429.7382	0.0	+	46	verb	phrase	3	1	nomatch	leur	-1	1	p	0.90868
430.2882	0.2	vjckr	46	verb	phrase	3	2	nomatch	leur	-1	1	p	0.90868
430.4882	0.0	+	46	verb	phrase	3	3	nomatch	leur	-1	1	p	0.90868
430.88820000000004	0.2	mrzd	46	verb	phrase	3	4	nomatch	leur	-1	1	p	0.90868
431.08820000000003	0.0	+	46	verb	phrase	3	5	nomatch	leur	-1	1	p	0.90868
431.48810000000003	0.2	doit	46	verb	phrase	3	6	nomatch	leur	-1	1	p	0.90868
431.6881	0.0	+	46	verb	phrase	3	7	nomatch	leur	-1	1	p	0.90868
432.0881	0.2	patiner	46	verb	phrase	3	8	nomatch	leur	-1	1	p	0.90868
432.2881	0.0	+	46	verb	phrase	3	9	nomatch	leur	-1	1	p	0.90868
432.688	0.2	loin	46	verb	phrase	3	10	nomatch	leur	-1	1	p	0.90868
432.88800000000003	0.0	+	46	verb	phrase	3	11	nomatch	leur	-1	1	p	0.90868
433.288	0.0	+	46	verb	phrase	3	12	nomatch	leur	-1	1	p	0.90868
435.2878	0.0	LEUR	46	verb	phrase	3	13	nomatch	leur	-1	1	p	0.90868
436.25440000000003	0.0	+	46	verb	phrase	3	14	nomatch	leur	-1	1	p	0.90868
436.1965	0.0	[response]	46	verb	phrase	3	15	nomatch	leur	-1	1	p	0.90868
437.68760000000003	0.0	+	47	noun	list	2	1	match	ainsi	5	1	y	0.61309
438.2376	0.2	grfln	47	noun	list	2	2	match	ainsi	5	1	y	0.61309
438.43760000000003	0.0	+	47	noun	list	2	3	match	ainsi	5	1	y	0.61309
438.8376	0.2	dtnl	47	noun	list	2	4	match	ainsi	5	1	y	0.61309
439.0375	0.0	+	47	noun	list	2	5	match	ainsi	5	1	y	0.61309
439.4375	0.2	ms	47	noun	list	2	6	match	ainsi	5	1	y	0.61309
439.6375	0.0	+	47	noun	list	2	7	match	ainsi	5	1	y	0.61309
440.0375	0.2	clavier	47	noun	list	2	8	match	ainsi	5	1	y	0.61309
440.23740000000004	0.0	+	47	noun	list	2	9	match	ainsi	5	1	y	0.61309
440.6374	0.2	ainsi	47	noun	list	2	10	match	ainsi	5	1	y	0.61309
440.8374	0.0	+	47	noun	list	2	11	match	ainsi	5	1	y	0.61309
441.23740000000004	0.0	+	47	noun	list	2	12	match	ainsi	5	1	y	0.61309
443.23720000000003	0.0	AINSI	47	noun	list	2	13	match	ainsi	5	1	y	0.61309
443.9205	0.0	+	47	noun	list	2	14	match	ainsi	5	1	y	0.61309
443.8503	0.0	[response]	47	noun	list	2	15	match	ainsi	5	1	y	0.61309
445.637	0.0	+	48	noun	list	4	1	nomatch	son	-1	1	p	0.67721
446.187	0.2	qbtknl	48	noun	list	4	2	nomatch	son	-1	1	p	0.67721
446.387	0.0	+	48	noun	list	4	3	nomatch	son	-1	1	p	0.67721
446.7869	0.2	jean	48	noun	list	4	4	nomatch	son	-1	1	p	0.67721
446.9869	0.0	+	48	noun	list	4	5	nomatch	son	-1	1	p	0.67721
447.3869	0.2	mon	48	noun	list	4	6	nomatch	son	-1	1	p	0.67721
447.5869	0.0	+	48	noun	list	4	7	nomatch	son	-1	1	p	0.67721
447.9868	0.2	mieux	48	noun	list	4	8	nomatch	son	-1	1	p	0.67721
448.1868	0.0	+	48	noun	list	4	9	nomatch	son	-1	1	p	0.67721
448.58680000000004	0.2	tablier	48	noun	list	4	10	nomatch	son	-1	1	p	0.67721
448.7868	0.0	+	48	noun	list	4	11	nomatch	son	-1	1	p	0.67721
449.1868	0.0	+	48	noun	list	4	12	nomatch	son	-1	1	p	0.67721
451.1866	0.0	SON	48	noun	list	4	13	nomatch	son	-1	1	p	0.67721
451.91990000000004	0.0	+	48	noun	list	4	14	nomatch	son	-1	1	p	0.67721
451.8638	0.0	[response]	48	noun	list	4	15	nomatch	son	-1	1	p	0.67721
453.5864	0.0	+	49	noun	phrase	2	1	match	rouge	5	1	y	0.6177400000000001
454.13640000000004	0.2	pmrj	49	noun	phrase	2	2	match	rouge	5	1	y	0.6177400000000001
454.33639999999997	0.0	+	49	noun	phrase	2	3	match	rouge	5	1	y	0.6177400000000001
454.73629999999997	0.2	fjcz	49	noun	phrase	2	4	match	rouge	5	1	y	0.6177400000000001
454.9363	0.0	+	49	noun	phrase	2	5	match	rouge	5	1	y	0.6177400000000001
455.3363	0.2	mwvt	49	noun	phrase	2	6	match	rouge	5	1	y	0.6177400000000001
455.53630000000004	0.0	+	49	noun	phrase	2	7	match	rouge	5	1	y	0.6177400000000001
455.93620000000004	0.2	sablier	49	noun	phrase	2	8	match	rouge	5	1	y	0.6177400000000001
456.1362	0.0	+	49	noun	phrase	2	9	match	rouge	5	1	y	0.6177400000000001
456.53620000000006	0.2	rouge	49	noun	phrase	2	10	match	rouge	5	1	y	0.6177400000000001
456.7362	0.0	+	49	noun	phrase	2	11	match	rouge	5	1	y	0.6177400000000001
457.1361	0.0	+	49	noun	phrase	2	12	match	rouge	5	1	y	0.6177400000000001
459.136	0.0	ROUGE	49	noun	phrase	2	13	match	rouge	5	1	y	0.6177400000000001
459.81930000000006	0.0	+	49	noun	phrase	2	14	match	rouge	5	1	y	0.6177400000000001
459.75370000000004	0.0	[response]	49	noun	phrase	2	15	match	rouge	5	1	y	0.6177400000000001
461.53580000000005	0.0	+	50	verb	phrase	2	1	nomatch	danser	-1	1	p	0.53305
462.0858	0.2	mfgxlb	50	verb	phrase	2	2	nomatch	danser	-1	1	p	0.53305
462.28569999999996	0.0	+	50	verb	phrase	2	3	nomatch	danser	-1	1	p	0.53305
462.68570000000005	0.2	kvlx	50	verb	phrase	2	4	nomatch	danser	-1	1	p	0.53305
462.8857	0.0	+	50	verb	phrase	2	5	nomatch	danser	-1	1	p	0.53305
463.28569999999996	0.2	lnfq	50	verb	phrase	2	6	nomatch	danser	-1	1	p	0.53305
463.4857	0.0	+	50	verb	phrase	2	7	nomatch	danser	-1	1	p	0.53305
463.8856	0.2	plus	50	verb	phrase	2	8	nomatch	danser	-1	1	p	0.53305
464.08560000000006	0.0	+	50	verb	phrase	2	9	nomatch	danser	-1	1	p	0.53305
464.48560000000003	0.2	galoper	50	verb	phrase	2	10	nomatch	danser	-1	1	p	0.53305
464.68559999999997	0.0	+	50	verb	phrase	2	11	nomatch	danser	-1	1	p	0.53305
465.08549999999997	0.0	+	50	verb	phrase	2	12	nomatch	danser	-1	1	p	0.53305
467.0854	0.0	DANSER	50	verb	phrase	2	13	nomatch	danser	-1	1	p	0.53305
467.68530000000004	0.0	+	50	verb	phrase	2	14	nomatch	danser	-1	1	p	0.53305
467.6184	0.0	[response]	50	verb	phrase	2	15	nomatch	danser	-1	1	p	0.53305
469.4852	0.0	+	51	verb	phrase	4	1	nomatch	luc	-1	1	p	0.77031
470.0351	0.2	kqvc	51	verb	phrase	4	2	nomatch	luc	-1	1	p	0.77031
470.23510000000005	0.0	+	51	verb	phrase	4	3	nomatch	luc	-1	1	p	0.77031
470.6351	0.2	adam	51	verb	phrase	4	4	nomatch	luc	-1	1	p	0.77031
470.83510000000007	0.0	+	51	verb	phrase	4	5	nomatch	luc	-1	1	p	0.77031
471.23510000000005	0.2	doit	51	verb	phrase	4	6	nomatch	luc	-1	1	p	0.77031
471.435	0.0	+	51	verb	phrase	4	7	nomatch	luc	-1	1	p	0.77031
471.835	0.2	plonger	51	verb	phrase	4	8	nomatch	luc	-1	1	p	0.77031
472.035	0.0	+	51	verb	phrase	4	9	nomatch	luc	-1	1	p	0.77031
472.435	0.2	ainsi	51	verb	phrase	4	10	nomatch	luc	-1	1	p	0.77031
472.63500000000005	0.0	+	51	verb	phrase	4	11	nomatch	luc	-1	1	p	0.77031
473.03490000000005	0.0	+	51	verb	phrase	4	12	nomatch	luc	-1	1	p	0.77031
475.0514	0.0	LUC	51	verb	phrase	4	13	nomatch	luc	-1	1	p	0.77031
475.8847	0.0	+	51	verb	phrase	4	14	nomatch	luc	-1	1	p	0.77031
475.8217	0.0	[response]	51	verb	phrase	4	15	nomatch	luc	-1	1	p	0.77031
477.45120000000003	0.0	+	52	noun	phrase	4	1	nomatch	nouveau	-1	1	p	0.7473
478.0012	0.2	bxsmt	52	noun	phrase	4	2	nomatch	nouveau	-1	1	p	0.7473
478.20120000000003	0.0	+	52	noun	phrase	4	3	nomatch	nouveau	-1	1	p	0.7473
478.6012	0.2	sans	52	noun	phrase	4	4	nomatch	nouveau	-1	1	p	0.7473
478.80109999999996	0.0	+	52	noun	phrase	4	5	nomatch	nouveau	-1	1	p	0.7473
479.20110000000005	0.2	mon	52	noun	phrase	4	6	nomatch	nouveau	-1	1	p	0.7473
479.4011	0.0	+	52	noun	phrase	4	7	nomatch	nouveau	-1	1	p	0.7473
479.80109999999996	0.2	cendrier	52	noun	phrase	4	8	nomatch	nouveau	-1	1	p	0.7473
480.0011	0.0	+	52	noun	phrase	4	9	nomatch	nouveau	-1	1	p	0.7473
480.401	0.2	noir	52	noun	phrase	4	10	nomatch	nouveau	-1	1	p	0.7473
480.60100000000006	0.0	+	52	noun	phrase	4	11	nomatch	nouveau	-1	1	p	0.7473
481.00100000000003	0.0	+	52	noun	phrase	4	12	nomatch	nouveau	-1	1	p	0.7473
483.00079999999997	0.0	NOUVEAU	52	noun	phrase	4	13	nomatch	nouveau	-1	1	p	0.7473
483.81739999999996	0.0	+	52	noun	phrase	4	14	nomatch	nouveau	-1	1	p	0.7473
483.74809999999997	0.0	[response]	52	noun	phrase	4	15	nomatch	nouveau	-1	1	p	0.7473
493.40000000000003	0.0	+	53	verb	list	1	1	nomatch	son	-1	1	p	0.62105
493.95	0.2	twfrqbh	53	verb	list	1	2	nomatch	son	-1	1	p	0.62105
494.15000000000003	0.0	+	53	verb	list	1	3	nomatch	son	-1	1	p	0.62105
494.54990000000004	0.2	fhsq	53	verb	list	1	4	nomatch	son	-1	1	p	0.62105
494.74989999999997	0.0	+	53	verb	list	1	5	nomatch	son	-1	1	p	0.62105
495.14990000000006	0.2	ms	53	verb	list	1	6	nomatch	son	-1	1	p	0.62105
495.3499	0.0	+	53	verb	list	1	7	nomatch	son	-1	1	p	0.62105
495.7498	0.2	cmjwknr	53	verb	list	1	8	nomatch	son	-1	1	p	0.62105
495.94980000000004	0.0	+	53	verb	list	1	9	nomatch	son	-1	1	p	0.62105
496.3498	0.2	patiner	53	verb	list	1	10	nomatch	son	-1	1	p	0.62105
496.54980000000006	0.0	+	53	verb	list	1	11	nomatch	son	-1	1	p	0.62105
496.94970000000006	0.0	+	53	verb	list	1	12	nomatch	son	-1	1	p	0.62105
498.9496	0.0	SON	53	verb	list	1	13	nomatch	son	-1	1	p	0.62105
499.6329	0.0	+	53	verb	list	1	14	nomatch	son	-1	1	p	0.62105
499.57070000000004	0.0	[response]	53	verb	list	1	15	nomatch	son	-1	1	p	0.62105
501.3494	0.0	+	54	verb	phrase	4	1	match	paul	2	1	y	0.7223100000000001
501.89939999999996	0.2	rsdb	54	verb	phrase	4	2	match	paul	2	1	y	0.7223100000000001
502.0993	0.0	+	54	verb	phrase	4	3	match	paul	2	1	y	0.7223100000000001
502.4993	0.2	paul	54	verb	phrase	4	4	match	paul	2	1	y	0.7223100000000001
502.69930000000005	0.0	+	54	verb	phrase	4	5	match	paul	2	1	y	0.7223100000000001
503.0993	0.2	doit	54	verb	phrase	4	6	match	paul	2	1	y	0.7223100000000001
503.29929999999996	0.0	+	54	verb	phrase	4	7	match	paul	2	1	y	0.7223100000000001
503.69919999999996	0.2	rouler	54	verb	phrase	4	8	match	paul	2	1	y	0.7223100000000001
503.8992	0.0	+	54	verb	phrase	4	9	match	paul	2	1	y	0.7223100000000001
504.2992	0.2	tôt	54	verb	phrase	4	10	match	paul	2	1	y	0.7223100000000001
504.49920000000003	0.0	+	54	verb	phrase	4	11	match	paul	2	1	y	0.7223100000000001
504.89910000000003	0.0	+	54	verb	phrase	4	12	match	paul	2	1	y	0.7223100000000001
506.89900000000006	0.0	PAUL	54	verb	phrase	4	13	match	paul	2	1	y	0.7223100000000001
507.6822	0.0	+	54	verb	phrase	4	14	match	paul	2	1	y	0.7223100000000001
507.6213000000001	0.0	[response]	54	verb	phrase	4	15	match	paul	2	1	y	0.7223100000000001
509.29879999999997	0.0	+	55	verb	list	2	1	nomatch	galoper	-1	1	p	0.61938
509.84880000000004	0.2	wqjst	55	verb	list	2	2	nomatch	galoper	-1	1	p	0.61938
510.0487	0.0	+	55	verb	list	2	3	nomatch	galoper	-1	1	p	0.61938
510.4487	0.2	cnjt	55	verb	list	2	4	nomatch	galoper	-1	1	p	0.61938
510.6487	0.0	+	55	verb	list	2	5	nomatch	galoper	-1	1	p	0.61938
511.0487	0.2	mwvt	55	verb	list	2	6	nomatch	galoper	-1	1	p	0.61938
511.24860000000007	0.0	+	55	verb	list	2	7	nomatch	galoper	-1	1	p	0.61938
511.64860000000004	0.2	nager	55	verb	list	2	8	nomatch	galoper	-1	1	p	0.61938
511.8486	0.0	+	55	verb	list	2	9	nomatch	galoper	-1	1	p	0.61938
512.2486	0.2	vert	55	verb	list	2	10	nomatch	galoper	-1	1	p	0.61938
512.4485999999999	0.0	+	55	verb	list	2	11	nomatch	galoper	-1	1	p	0.61938
512.8485	0.0	+	55	verb	list	2	12	nomatch	galoper	-1	1	p	0.61938
514.8484	0.0	GALOPER	55	verb	list	2	13	nomatch	galoper	-1	1	p	0.61938
515.5315999999999	0.0	+	55	verb	list	2	14	nomatch	galoper	-1	1	p	0.61938
515.4677	0.0	[response]	55	verb	list	2	15	nomatch	galoper	-1	1	p	0.61938
517.2482	0.0	+	56	noun	phrase	1	1	nomatch	boîtier	-1	1	p	0.49969
517.7981	0.2	nzcx	56	noun	phrase	1	2	nomatch	boîtier	-1	1	p	0.49969
517.9980999999999	0.0	+	56	noun	phrase	1	3	nomatch	boîtier	-1	1	p	0.49969
518.3981	0.2	lnfq	56	noun	phrase	1	4	nomatch	boîtier	-1	1	p	0.49969
518.5980999999999	0.0	+	56	noun	phrase	1	5	nomatch	boîtier	-1	1	p	0.49969
518.9979999999999	0.2	psl	56	noun	phrase	1	6	nomatch	boîtier	-1	1	p	0.49969
519.198	0.0	+	56	noun	phrase	1	7	nomatch	boîtier	-1	1	p	0.49969
519.598	0.2	ljskz	56	noun	phrase	1	8	nomatch	boîtier	-1	1	p	0.49969
519.798	0.0	+	56	noun	phrase	1	9	nomatch	boîtier	-1	1	p	0.49969
520.198	0.2	casier	56	noun	phrase	1	10	nomatch	boîtier	-1	1	p	0.49969
520.3978999999999	0.0	+	56	noun	phrase	1	11	nomatch	boîtier	-1	1	p	0.49969
520.7978999999999	0.0	+	56	noun	phrase	1	12	nomatch	boîtier	-1	1	p	0.49969
522.7977999999999	0.0	BOÎTIER	56	noun	phrase	1	13	nomatch	boîtier	-1	1	p	0.49969
523.3643999999999	0.0	+	56	noun	phrase	1	14	nomatch	boîtier	-1	1	p	0.49969
523.2973999999999	0.0	[response]	56	noun	phrase	1	15	nomatch	boîtier	-1	1	p	0.49969
525.1976	0.0	+	57	noun	phrase	2	1	nomatch	sablier	-1	1	p	0.62948
525.7475	0.2	jdl	57	noun	phrase	2	2	nomatch	sablier	-1	1	p	0.62948
525.9475	0.0	+	57	noun	phrase	2	3	nomatch	sablier	-1	1	p	0.62948
526.3475	0.2	fhsq	57	noun	phrase	2	4	nomatch	sablier	-1	1	p	0.62948
526.5474999999999	0.0	+	57	noun	phrase	2	5	nomatch	sablier	-1	1	p	0.62948
526.9473999999999	0.2	hkq	57	noun	phrase	2	6	nomatch	sablier	-1	1	p	0.62948
527.1474	0.0	+	57	noun	phrase	2	7	nomatch	sablier	-1	1	p	0.62948
527.5473999999999	0.2	rocher	57	noun	phrase	2	8	nomatch	sablier	-1	1	p	0.62948
527.7474	0.0	+	57	noun	phrase	2	9	nomatch	sablier	-1	1	p	0.62948
528.1473	0.2	vert	57	noun	phrase	2	10	nomatch	sablier	-1	1	p	0.62948
528.3472999999999	0.0	+	57	noun	phrase	2	11	nomatch	sablier	-1	1	p	0.62948
528.7473	0.0	+	57	noun	phrase	2	12	nomatch	sablier	-1	1	p	0.62948
530.7470999999999	0.0	SABLIER	57	noun	phrase	2	13	nomatch	sablier	-1	1	p	0.62948
531.4471	0.0	+	57	noun	phrase	2	14	nomatch	sablier	-1	1	p	0.62948
531.3765999999999	0.0	[response]	57	noun	phrase	2	15	nomatch	sablier	-1	1	p	0.62948
541.1463	0.0	+	58	verb	list	1	1	nomatch	plonger	-1	1	p	0.62323
541.6963	0.2	zqpfv	58	verb	list	1	2	nomatch	plonger	-1	1	p	0.62323
541.8963	0.0	+	58	verb	list	1	3	nomatch	plonger	-1	1	p	0.62323
542.2963	0.2	kjs	58	verb	list	1	4	nomatch	plonger	-1	1	p	0.62323
542.4961999999999	0.0	+	58	verb	list	1	5	nomatch	plonger	-1	1	p	0.62323
542.8961999999999	0.2	mwvt	58	verb	list	1	6	nomatch	plonger	-1	1	p	0.62323
543.0962	0.0	+	58	verb	list	1	7	nomatch	plonger	-1	1	p	0.62323
543.4961999999999	0.2	ftqx	58	verb	list	1	8	nomatch	plonger	-1	1	p	0.62323
543.6961	0.0	+	58	verb	list	1	9	nomatch	plonger	-1	1	p	0.62323
544.0961	0.2	chasser	58	verb	list	1	10	nomatch	plonger	-1	1	p	0.62323
544.2960999999999	0.0	+	58	verb	list	1	11	nomatch	plonger	-1	1	p	0.62323
544.6961	0.0	+	58	verb	list	1	12	nomatch	plonger	-1	1	p	0.62323
546.6958999999999	0.0	PLONGER	58	verb	list	1	13	nomatch	plonger	-1	1	p	0.62323
547.3792	0.0	+	58	verb	list	1	14	nomatch	plonger	-1	1	p	0.62323
547.3190999999999	0.0	[response]	58	verb	list	1	15	nomatch	plonger	-1	1	p	0.62323
557.0951	0.0	+	59	verb	list	3	1	nomatch	petit	-1	1	p	0.62639
557.6451	0.2	djvzh	59	verb	list	3	2	nomatch	petit	-1	1	p	0.62639
557.8451	0.0	+	59	verb	list	3	3	nomatch	petit	-1	1	p	0.62639
558.245	0.2	chdk	59	verb	list	3	4	nomatch	petit	-1	1	p	0.62639
558.4449999999999	0.0	+	59	verb	list	3	5	nomatch	petit	-1	1	p	0.62639
558.8449999999999	0.2	doit	59	verb	list	3	6	nomatch	petit	-1	1	p	0.62639
559.045	0.0	+	59	verb	list	3	7	nomatch	petit	-1	1	p	0.62639
559.4449	0.2	vieux	59	verb	list	3	8	nomatch	petit	-1	1	p	0.62639
559.6449	0.0	+	59	verb	list	3	9	nomatch	petit	-1	1	p	0.62639
560.0449	0.2	patiner	59	verb	list	3	10	nomatch	petit	-1	1	p	0.62639
560.2448999999999	0.0	+	59	verb	list	3	11	nomatch	petit	-1	1	p	0.62639
560.6447999999999	0.0	+	59	verb	list	3	12	nomatch	petit	-1	1	p	0.62639
562.6447	0.0	PETIT	59	verb	list	3	13	nomatch	petit	-1	1	p	0.62639
563.328	0.0	+	59	verb	list	3	14	nomatch	petit	-1	1	p	0.62639
563.2710999999999	0.0	[response]	59	verb	list	3	15	nomatch	petit	-1	1	p	0.62639
565.0445	0.0	+	60	verb	list	2	1	match	plonger	4	1	y	0.64073
565.5944999999999	0.2	jpg	60	verb	list	2	2	match	plonger	4	1	y	0.64073
565.7944	0.0	+	60	verb	list	2	3	match	plonger	4	1	y	0.64073
566.1944	0.2	frjv	60	verb	list	2	4	match	plonger	4	1	y	0.64073
566.3943999999999	0.0	+	60	verb	list	2	5	match	plonger	4	1	y	0.64073
566.7944	0.2	hkq	60	verb	list	2	6	match	plonger	4	1	y	0.64073
566.9943999999999	0.0	+	60	verb	list	2	7	match	plonger	4	1	y	0.64073
567.3942999999999	0.2	plonger	60	verb	list	2	8	match	plonger	4	1	y	0.64073
567.5943	0.0	+	60	verb	list	2	9	match	plonger	4	1	y	0.64073
567.9943	0.2	bleu	60	verb	list	2	10	match	plonger	4	1	y	0.64073
568.1943	0.0	+	60	verb	list	2	11	match	plonger	4	1	y	0.64073
568.5942	0.0	+	60	verb	list	2	12	match	plonger	4	1	y	0.64073
570.5940999999999	0.0	PLONGER	60	verb	list	2	13	match	plonger	4	1	y	0.64073
571.294	0.0	+	60	verb	list	2	14	match	plonger	4	1	y	0.64073
571.2348	0.0	[response]	60	verb	list	2	15	match	plonger	4	1	y	0.64073
572.9938999999999	0.0	+	61	noun	list	1	1	match	rocher	5	1	y	0.70059
573.5437999999999	0.2	bcxw	61	noun	list	1	2	match	rocher	5	1	y	0.70059
573.7438	0.0	+	61	noun	list	1	3	match	rocher	5	1	y	0.70059
574.1437999999999	0.2	xsh	61	noun	list	1	4	match	rocher	5	1	y	0.70059
574.3438	0.0	+	61	noun	list	1	5	match	rocher	5	1	y	0.70059
574.7438	0.2	qgkm	61	noun	list	1	6	match	rocher	5	1	y	0.70059
574.9436999999999	0.0	+	61	noun	list	1	7	match	rocher	5	1	y	0.70059
575.3437	0.2	xzdp	61	noun	list	1	8	match	rocher	5	1	y	0.70059
575.5437	0.0	+	61	noun	list	1	9	match	rocher	5	1	y	0.70059
575.9436999999999	0.2	rocher	61	noun	list	1	10	match	rocher	5	1	y	0.70059
576.1436	0.0	+	61	noun	list	1	11	match	rocher	5	1	y	0.70059
576.5436	0.0	+	61	noun	list	1	12	match	rocher	5	1	y	0.70059
578.5435	0.0	ROCHER	61	noun	list	1	13	match	rocher	5	1	y	0.70059
579.3100999999999	0.0	+	61	noun	list	1	14	match	rocher	5	1	y	0.70059
579.2441	0.0	[response]	61	noun	list	1	15	match	rocher	5	1	y	0.70059
580.9432999999999	0.0	+	62	verb	phrase	1	1	match	ainsi	5	1	y	0.44614
581.4932	0.2	mgvrjxd	62	verb	phrase	1	2	match	ainsi	5	1	y	0.44614
581.6931999999999	0.0	+	62	verb	phrase	1	3	match	ainsi	5	1	y	0.44614
582.0931999999999	0.2	kvlx	62	verb	phrase	1	4	match	ainsi	5	1	y	0.44614
582.2932	0.0	+	62	verb	phrase	1	5	match	ainsi	5	1	y	0.44614
582.6931	0.2	ms	62	verb	phrase	1	6	match	ainsi	5	1	y	0.44614
582.8931	0.0	+	62	verb	phrase	1	7	match	ainsi	5	1	y	0.44614
583.2931	0.2	wjmkxng	62	verb	phrase	1	8	match	ainsi	5	1	y	0.44614
583.4930999999999	0.0	+	62	verb	phrase	1	9	match	ainsi	5	1	y	0.44614
583.8931	0.2	ainsi	62	verb	phrase	1	10	match	ainsi	5	1	y	0.44614
584.093	0.0	+	62	verb	phrase	1	11	match	ainsi	5	1	y	0.44614
584.4929999999999	0.0	+	62	verb	phrase	1	12	match	ainsi	5	1	y	0.44614
586.4929	0.0	AINSI	62	verb	phrase	1	13	match	ainsi	5	1	y	0.44614
587.0095	0.0	+	62	verb	phrase	1	14	match	ainsi	5	1	y	0.44614
586.939	0.0	[response]	62	verb	phrase	1	15	match	ainsi	5	1	y	0.44614
588.8927	0.0	+	63	verb	list	2	1	match	chasser	4	1	y	0.60855
589.4426	0.2	bhpq	63	verb	list	2	2	match	chasser	4	1	y	0.60855
589.6425999999999	0.0	+	63	verb	list	2	3	match	chasser	4	1	y	0.60855
590.0426	0.2	xfct	63	verb	list	2	4	match	chasser	4	1	y	0.60855
590.2425999999999	0.0	+	63	verb	list	2	5	match	chasser	4	1	y	0.60855
590.6424999999999	0.2	psl	63	verb	list	2	6	match	chasser	4	1	y	0.60855
590.8425	0.0	+	63	verb	list	2	7	match	chasser	4	1	y	0.60855
591.2425	0.2	chasser	63	verb	list	2	8	match	chasser	4	1	y	0.60855
591.4425	0.0	+	63	verb	list	2	9	match	chasser	4	1	y	0.60855
591.8424	0.2	noir	63	verb	list	2	10	match	chasser	4	1	y	0.60855
592.0423999999999	0.0	+	63	verb	list	2	11	match	chasser	4	1	y	0.60855
592.4423999999999	0.0	+	63	verb	list	2	12	match	chasser	4	1	y	0.60855
594.4422	0.0	CHASSER	63	verb	list	2	13	match	chasser	4	1	y	0.60855
595.1088	0.0	+	63	verb	list	2	14	match	chasser	4	1	y	0.60855
595.0508	0.0	[response]	63	verb	list	2	15	match	chasser	4	1	y	0.60855
604.8413999999999	0.0	+	64	verb	phrase	1	1	match	tôt	5	0	TIMEOUT	-1.0
605.3914	0.2	wqfhk	64	verb	phrase	1	2	match	tôt	5	0	TIMEOUT	-1.0
605.5913999999999	0.0	+	64	verb	phrase	1	3	match	tôt	5	0	TIMEOUT	-1.0
605.9912999999999	0.2	kjs	64	verb	phrase	1	4	match	tôt	5	0	TIMEOUT	-1.0
606.1913	0.0	+	64	verb	phrase	1	5	match	tôt	5	0	TIMEOUT	-1.0
606.5912999999999	0.2	lnfq	64	verb	phrase	1	6	match	tôt	5	0	TIMEOUT	-1.0
606.7913	0.0	+	64	verb	phrase	1	7	match	tôt	5	0	TIMEOUT	-1.0
607.1913	0.2	qlgnfmr	64	verb	phrase	1	8	match	tôt	5	0	TIMEOUT	-1.0
607.3911999999999	0.0	+	64	verb	phrase	1	9	match	tôt	5	0	TIMEOUT	-1.0
607.7912	0.2	tôt	64	verb	phrase	1	10	match	tôt	5	0	TIMEOUT	-1.0
607.9911999999999	0.0	+	64	verb	phrase	1	11	match	tôt	5	0	TIMEOUT	-1.0
608.3911999999999	0.0	+	64	verb	phrase	1	12	match	tôt	5	0	TIMEOUT	-1.0
610.3911999999999	0.0	TÔT	64	verb	phrase	1	13	match	tôt	5	0	TIMEOUT	-1.0
612.7908	0.0	+	65	verb	phrase	1	1	nomatch	voyager	-1	1	p	0.60083
613.3908	0.2	vrpj	65	verb	phrase	1	2	nomatch	voyager	-1	1	p	0.60083
613.5908	0.0	+	65	verb	phrase	1	3	nomatch	voyager	-1	1	p	0.60083
613.9907	0.2	jkvt	65	verb	phrase	1	4	nomatch	voyager	-1	1	p	0.60083
614.1907	0.0	+	65	verb	phrase	1	5	nomatch	voyager	-1	1	p	0.60083
614.5907	0.2	ms	65	verb	phrase	1	6	nomatch	voyager	-1	1	p	0.60083
614.7906999999999	0.0	+	65	verb	phrase	1	7	nomatch	voyager	-1	1	p	0.60083
615.1905999999999	0.2	phrwb	65	verb	phrase	1	8	nomatch	voyager	-1	1	p	0.60083
615.3906	0.0	+	65	verb	phrase	1	9	nomatch	voyager	-1	1	p	0.60083
615.7905999999999	0.2	chasser	65	verb	phrase	1	10	nomatch	voyager	-1	1	p	0.60083
615.9906	0.0	+	65	verb	phrase	1	11	nomatch	voyager	-1	1	p	0.60083
616.3906	0.0	+	65	verb	phrase	1	12	nomatch	voyager	-1	1	p	0.60083
618.3904	0.0	VOYAGER	65	verb	phrase	1	13	nomatch	voyager	-1	1	p	0.60083
619.0569999999999	0.0	+	65	verb	phrase	1	14	nomatch	voyager	-1	1	p	0.60083
618.9912	0.0	[response]	65	verb	phrase	1	15	nomatch	voyager	-1	1	p	0.60083
620.7901999999999	0.0	+	66	verb	list	1	1	nomatch	patiner	-1	1	p	0.5191700000000001
621.3402	0.2	hjqsxl	66	verb	list	1	2	nomatch	patiner	-1	1	p	0.5191700000000001
621.5401999999999	0.0	+	66	verb	list	1	3	nomatch	patiner	-1	1	p	0.5191700000000001
621.9400999999999	0.2	fhsq	66	verb	list	1	4	nomatch	patiner	-1	1	p	0.5191700000000001
622.1401	0.0	+	66	verb	list	1	5	nomatch	patiner	-1	1	p	0.5191700000000001
622.5400999999999	0.2	lnfq	66	verb	list	1	6	nomatch	patiner	-1	1	p	0.5191700000000001
622.7401	0.0	+	66	verb	list	1	7	nomatch	patiner	-1	1	p	0.5191700000000001
623.14	0.2	xkwgr	66	verb	list	1	8	nomatch	patiner	-1	1	p	0.5191700000000001
623.3399999999999	0.0	+	66	verb	list	1	9	nomatch	patiner	-1	1	p	0.5191700000000001
623.74	0.2	rouler	66	verb	list	1	10	nomatch	patiner	-1	1	p	0.5191700000000001
623.9399999999999	0.0	+	66	verb	list	1	11	nomatch	patiner	-1	1	p	0.5191700000000001
624.3399	0.0	+	66	verb	list	1	12	nomatch	patiner	-1	1	p	0.5191700000000001
626.3398	0.0	PATINER	66	verb	list	1	13	nomatch	patiner	-1	1	p	0.5191700000000001
626.9231	0.0	+	66	verb	list	1	14	nomatch	patiner	-1	1	p	0.5191700000000001
626.8589	0.0	[response]	66	verb	list	1	15	nomatch	patiner	-1	1	p	0.5191700000000001
628.7396	0.0	+	67	verb	list	4	1	match	nouveau	4	1	y	0.5650900000000001
629.2896	0.2	nlxrt	67	verb	list	4	2	match	nouveau	4	1	y	0.5650900000000001
629.4894999999999	0.0	+	67	verb	list	4	3	match	nouveau	4	1	y	0.5650900000000001
629.8895	0.2	pour	67	verb	list	4	4	match	nouveau	4	1	y	0.5650900000000001
630.0894999999999	0.0	+	67	verb	list	4	5	match	nouveau	4	1	y	0.5650900000000001
630.4894999999999	0.2	va	67	verb	list	4	6	match	nouveau	4	1	y	0.5650900000000001
630.6894	0.0	+	67	verb	list	4	7	match	nouveau	4	1	y	0.5650900000000001
631.0894	0.2	nouveau	67	verb	list	4	8	match	nouveau	4	1	y	0.5650900000000001
631.2894	0.0	+	67	verb	list	4	9	match	nouveau	4	1	y	0.5650900000000001
631.6894	0.2	danser	67	verb	list	4	10	match	nouveau	4	1	y	0.5650900000000001
631.8893999999999	0.0	+	67	verb	list	4	11	match	nouveau	4	1	y	0.5650900000000001
632.2892999999999	0.0	+	67	verb	list	4	12	match	nouveau	4	1	y	0.5650900000000001
634.2891999999999	0.0	NOUVEAU	67	verb	list	4	13	match	nouveau	4	1	y	0.5650900000000001
634.9223999999999	0.0	+	67	verb	list	4	14	match	nouveau	4	1	y	0.5650900000000001
634.8543	0.0	[response]	67	verb	list	4	15	match	nouveau	4	1	y	0.5650900000000001
644.6884	0.0	+	68	verb	phrase	2	1	nomatch	marc	-1	1	p	0.54284
645.2383	0.2	zrf	68	verb	phrase	2	2	nomatch	marc	-1	1	p	0.54284
645.4382999999999	0.0	+	68	verb	phrase	2	3	nomatch	marc	-1	1	p	0.54284
645.8383	0.2	mrzd	68	verb	phrase	2	4	nomatch	marc	-1	1	p	0.54284
646.0382999999999	0.0	+	68	verb	phrase	2	5	nomatch	marc	-1	1	p	0.54284
646.4381999999999	0.2	ms	68	verb	phrase	2	6	nomatch	marc	-1	1	p	0.54284
646.6382	0.0	+	68	verb	phrase	2	7	nomatch	marc	-1	1	p	0.54284
647.0382	0.2	beaucoup	68	verb	phrase	2	8	nomatch	marc	-1	1	p	0.54284
647.2382	0.0	+	68	verb	phrase	2	9	nomatch	marc	-1	1	p	0.54284
647.6381	0.2	nager	68	verb	phrase	2	10	nomatch	marc	-1	1	p	0.54284
647.8380999999999	0.0	+	68	verb	phrase	2	11	nomatch	marc	-1	1	p	0.54284
648.2380999999999	0.0	+	68	verb	phrase	2	12	nomatch	marc	-1	1	p	0.54284
650.2379	0.0	MARC	68	verb	phrase	2	13	nomatch	marc	-1	1	p	0.54284
650.8379	0.0	+	68	verb	phrase	2	14	nomatch	marc	-1	1	p	0.54284
650.7808	0.0	[response]	68	verb	phrase	2	15	nomatch	marc	-1	1	p	0.54284
652.6378	0.0	+	69	verb	list	1	1	match	plonger	5	1	y	0.44843
653.1877	0.2	fqrg	69	verb	list	1	2	match	plonger	5	1	y	0.44843
653.3877	0.0	+	69	verb	list	1	3	match	plonger	5	1	y	0.44843
653.7877	0.2	lnfq	69	verb	list	1	4	match	plonger	5	1	y	0.44843
653.9876999999999	0.0	+	69	verb	list	1	5	match	plonger	5	1	y	0.44843
654.3875999999999	0.2	lnfq	69	verb	list	1	6	match	plonger	5	1	y	0.44843
654.5876	0.0	+	69	verb	list	1	7	match	plonger	5	1	y	0.44843
654.9875999999999	0.2	vpnsw	69	verb	list	1	8	match	plonger	5	1	y	0.44843
655.1876	0.0	+	69	verb	list	1	9	match	plonger	5	1	y	0.44843
655.5875	0.2	plonger	69	verb	list	1	10	match	plonger	5	1	y	0.44843
655.7874999999999	0.0	+	69	verb	list	1	11	match	plonger	5	1	y	0.44843
656.1875	0.0	+	69	verb	list	1	12	match	plonger	5	1	y	0.44843
658.1872999999999	0.0	PLONGER	69	verb	list	1	13	match	plonger	5	1	y	0.44843
658.704	0.0	+	69	verb	list	1	14	match	plonger	5	1	y	0.44843
658.6358	0.0	[response]	69	verb	list	1	15	match	plonger	5	1	y	0.44843
660.5871	0.0	+	70	verb	phrase	2	1	match	patiner	4	1	y	0.66988
661.1370999999999	0.2	swnbxl	70	verb	phrase	2	2	match	patiner	4	1	y	0.66988
661.3371	0.0	+	70	verb	phrase	2	3	match	patiner	4	1	y	0.66988
661.7370999999999	0.2	xfct	70	verb	phrase	2	4	match	patiner	4	1	y	0.66988
661.937	0.0	+	70	verb	phrase	2	5	match	patiner	4	1	y	0.66988
662.337	0.2	qgkm	70	verb	phrase	2	6	match	patiner	4	1	y	0.66988
662.5369999999999	0.0	+	70	verb	phrase	2	7	match	patiner	4	1	y	0.66988
662.937	0.2	patiner	70	verb	phrase	2	8	match	patiner	4	1	y	0.66988
663.1369	0.0	+	70	verb	phrase	2	9	match	patiner	4	1	y	0.66988
663.5369	0.2	tard	70	verb	phrase	2	10	match	patiner	4	1	y	0.66988
663.7369	0.0	+	70	verb	phrase	2	11	match	patiner	4	1	y	0.66988
664.1369	0.0	+	70	verb	phrase	2	12	match	patiner	4	1	y	0.66988
666.1366999999999	0.0	PATINER	70	verb	phrase	2	13	match	patiner	4	1	y	0.66988
666.87	0.0	+	70	verb	phrase	2	14	match	patiner	4	1	y	0.66988
666.8066	0.0	[response]	70	verb	phrase	2	15	match	patiner	4	1	y	0.66988
668.5364999999999	0.0	+	71	verb	list	3	1	nomatch	boîtier	-1	1	p	0.58252
669.0865	0.2	blvwgd	71	verb	list	3	2	nomatch	boîtier	-1	1	p	0.58252
669.2864999999999	0.0	+	71	verb	list	3	3	nomatch	boîtier	-1	1	p	0.58252
669.6863999999999	0.2	lnfq	71	verb	list	3	4	nomatch	boîtier	-1	1	p	0.58252
669.8864	0.0	+	71	verb	list	3	5	nomatch	boîtier	-1	1	p	0.58252
670.2864	0.2	peut	71	verb	list	3	6	nomatch	boîtier	-1	1	p	0.58252
670.4864	0.0	+	71	verb	list	3	7	nomatch	boîtier	-1	1	p	0.58252
670.8864	0.2	nouveau	71	verb	list	3	8	nomatch	boîtier	-1	1	p	0.58252
671.0862999999999	0.0	+	71	verb	list	3	9	nomatch	boîtier	-1	1	p	0.58252
671.4862999999999	0.2	voyager	71	verb	list	3	10	nomatch	boîtier	-1	1	p	0.58252
671.6863	0.0	+	71	verb	list	3	11	nomatch	boîtier	-1	1	p	0.58252
672.0862999999999	0.0	+	71	verb	list	3	12	nomatch	boîtier	-1	1	p	0.58252
674.0861	0.0	BOÎTIER	71	verb	list	3	13	nomatch	boîtier	-1	1	p	0.58252
674.736	0.0	+	71	verb	list	3	14	nomatch	boîtier	-1	1	p	0.58252
674.6686	0.0	[response]	71	verb	list	3	15	nomatch	boîtier	-1	1	p	0.58252
676.4858999999999	0.0	+	72	verb	phrase	1	1	nomatch	tard	-1	1	p	0.54367
677.0359	0.2	nkxpclf	72	verb	phrase	1	2	nomatch	tard	-1	1	p	0.54367
677.2358999999999	0.0	+	72	verb	phrase	1	3	nomatch	tard	-1	1	p	0.54367
677.6357999999999	0.2	frjv	72	verb	phrase	1	4	nomatch	tard	-1	1	p	0.54367
677.8358	0.0	+	72	verb	phrase	1	5	nomatch	tard	-1	1	p	0.54367
678.2357999999999	0.2	qgkm	72	verb	phrase	1	6	nomatch	tard	-1	1	p	0.54367
678.4358	0.0	+	72	verb	phrase	1	7	nomatch	tard	-1	1	p	0.54367
678.8357	0.2	wjmkxng	72	verb	phrase	1	8	nomatch	tard	-1	1	p	0.54367
679.0356999999999	0.0	+	72	verb	phrase	1	9	nomatch	tard	-1	1	p	0.54367
679.4357	0.2	trop	72	verb	phrase	1	10	nomatch	tard	-1	1	p	0.54367
679.6356999999999	0.0	+	72	verb	phrase	1	11	nomatch	tard	-1	1	p	0.54367
680.0356999999999	0.0	+	72	verb	phrase	1	12	nomatch	tard	-1	1	p	0.54367
682.0355	0.0	TARD	72	verb	phrase	1	13	nomatch	tard	-1	1	p	0.54367
682.6354	0.0	+	72	verb	phrase	1	14	nomatch	tard	-1	1	p	0.54367
682.5791999999999	0.0	[response]	72	verb	phrase	1	15	nomatch	tard	-1	1	p	0.54367
684.4353	0.0	+	73	verb	list	2	1	match	danser	4	1	y	0.46295
684.9852999999999	0.2	rct	73	verb	list	2	2	match	danser	4	1	y	0.46295
685.1853	0.0	+	73	verb	list	2	3	match	danser	4	1	y	0.46295
685.5852	0.2	kjs	73	verb	list	2	4	match	danser	4	1	y	0.46295
685.7851999999999	0.0	+	73	verb	list	2	5	match	danser	4	1	y	0.46295
686.1852	0.2	psl	73	verb	list	2	6	match	danser	4	1	y	0.46295
686.3851999999999	0.0	+	73	verb	list	2	7	match	danser	4	1	y	0.46295
686.7850999999999	0.2	danser	73	verb	list	2	8	match	danser	4	1	y	0.46295
686.9851	0.0	+	73	verb	list	2	9	match	danser	4	1	y	0.46295
687.3851	0.2	rouge	73	verb	list	2	10	match	danser	4	1	y	0.46295
687.5851	0.0	+	73	verb	list	2	11	match	danser	4	1	y	0.46295
687.9849999999999	0.0	+	73	verb	list	2	12	match	danser	4	1	y	0.46295
689.9848999999999	0.0	DANSER	73	verb	list	2	13	match	danser	4	1	y	0.46295
690.5182	0.0	+	73	verb	list	2	14	match	danser	4	1	y	0.46295
690.4477999999999	0.0	[response]	73	verb	list	2	15	match	danser	4	1	y	0.46295
692.4014	0.0	+	74	noun	list	3	1	match	tard	5	1	y	1.4203
692.9513	0.2	jqf	74	noun	list	3	2	match	tard	5	1	y	1.4203
693.1513	0.0	+	74	noun	list	3	3	match	tard	5	1	y	1.4203
693.5513	0.2	lnfq	74	noun	list	3	4	match	tard	5	1	y	1.4203
693.7512999999999	0.0	+	74	noun	list	3	5	match	tard	5	1	y	1.4203
694.1511999999999	0.2	va	74	noun	list	3	6	match	tard	5	1	y	1.4203
694.3512	0.0	+	74	noun	list	3	7	match	tard	5	1	y	1.4203
694.7511999999999	0.2	clavier	74	noun	list	3	8	match	tard	5	1	y	1.4203
694.9512	0.0	+	74	noun	list	3	9	match	tard	5	1	y	1.4203
695.3511	0.2	tard	74	noun	list	3	10	match	tard	5	1	y	1.4203
695.5510999999999	0.0	+	74	noun	list	3	11	match	tard	5	1	y	1.4203
695.9511	0.0	+	74	noun	list	3	12	match	tard	5	1	y	1.4203
697.9508999999999	0.0	TARD	74	noun	list	3	13	match	tard	5	1	y	1.4203
699.4341	0.0	+	74	noun	list	3	14	match	tard	5	1	y	1.4203
699.3712	0.0	[response]	74	noun	list	3	15	match	tard	5	1	y	1.4203
700.3507	0.0	+	75	noun	list	4	1	match	peut	3	1	y	0.68644
700.9006999999999	0.2	rts	75	noun	list	4	2	match	peut	3	1	y	0.68644
701.1007	0.0	+	75	noun	list	4	3	match	peut	3	1	y	0.68644
701.5006999999999	0.2	sous	75	noun	list	4	4	match	peut	3	1	y	0.68644
701.7006	0.0	+	75	noun	list	4	5	match	peut	3	1	y	0.68644
702.1006	0.2	peut	75	noun	list	4	6	match	peut	3	1	y	0.68644
702.3005999999999	0.0	+	75	noun	list	4	7	match	peut	3	1	y	0.68644
702.7006	0.2	grenier	75	noun	list	4	8	match	peut	3	1	y	0.68644
702.9005999999999	0.0	+	75	noun	list	4	9	match	peut	3	1	y	0.68644
703.3004999999999	0.2	ainsi	75	noun	list	4	10	match	peut	3	1	y	0.68644
703.5005	0.0	+	75	noun	list	4	11	match	peut	3	1	y	0.68644
703.9005	0.0	+	75	noun	list	4	12	match	peut	3	1	y	0.68644
705.9002999999999	0.0	PEUT	75	noun	list	4	13	match	peut	3	1	y	0.68644
706.6502999999999	0.0	+	75	noun	list	4	14	match	peut	3	1	y	0.68644
706.5867999999999	0.0	[response]	75	noun	list	4	15	match	peut	3	1	y	0.68644
708.3000999999999	0.0	+	76	noun	list	1	1	match	tôt	5	1	y	0.50118
708.8501	0.2	lrmvbk	76	noun	list	1	2	match	tôt	5	1	y	0.50118
709.0500999999999	0.0	+	76	noun	list	1	3	match	tôt	5	1	y	0.50118
709.4500999999999	0.2	lnfq	76	noun	list	1	4	match	tôt	5	1	y	0.50118
709.65	0.0	+	76	noun	list	1	5	match	tôt	5	1	y	0.50118
710.05	0.2	qgkm	76	noun	list	1	6	match	tôt	5	1	y	0.50118
710.25	0.0	+	76	noun	list	1	7	match	tôt	5	1	y	0.50118
710.65	0.2	psmcxl	76	noun	list	1	8	match	tôt	5	1	y	0.50118
710.8498999999999	0.0	+	76	noun	list	1	9	match	tôt	5	1	y	0.50118
711.2498999999999	0.2	tôt	76	noun	list	1	10	match	tôt	5	1	y	0.50118
711.4499	0.0	+	76	noun	list	1	11	match	tôt	5	1	y	0.50118
711.8498999999999	0.0	+	76	noun	list	1	12	match	tôt	5	1	y	0.50118
713.8497	0.0	TÔT	76	noun	list	1	13	match	tôt	5	1	y	0.50118
714.4163	0.0	+	76	noun	list	1	14	match	tôt	5	1	y	0.50118
714.3508999999999	0.0	[response]	76	noun	list	1	15	match	tôt	5	1	y	0.50118
724.2488999999999	0.0	+	77	verb	list	4	1	match	doit	3	1	y	0.67577
724.7989	0.2	wphq	77	verb	list	4	2	match	doit	3	1	y	0.67577
724.9988999999999	0.0	+	77	verb	list	4	3	match	doit	3	1	y	0.67577
725.3987999999999	0.2	sous	77	verb	list	4	4	match	doit	3	1	y	0.67577
725.5988	0.0	+	77	verb	list	4	5	match	doit	3	1	y	0.67577
725.9988	0.2	doit	77	verb	list	4	6	match	doit	3	1	y	0.67577
726.1988	0.0	+	77	verb	list	4	7	match	doit	3	1	y	0.67577
726.5987	0.2	beau	77	verb	list	4	8	match	doit	3	1	y	0.67577
726.7986999999999	0.0	+	77	verb	list	4	9	match	doit	3	1	y	0.67577
727.1986999999999	0.2	patiner	77	verb	list	4	10	match	doit	3	1	y	0.67577
727.3987	0.0	+	77	verb	list	4	11	match	doit	3	1	y	0.67577
727.7986	0.0	+	77	verb	list	4	12	match	doit	3	1	y	0.67577
729.7985	0.0	DOIT	77	verb	list	4	13	match	doit	3	1	y	0.67577
730.5318	0.0	+	77	verb	list	4	14	match	doit	3	1	y	0.67577
730.4743	0.0	[response]	77	verb	list	4	15	match	doit	3	1	y	0.67577
732.1982999999999	0.0	+	78	verb	phrase	1	1	nomatch	nager	-1	1	p	0.56103
732.7483	0.2	mdr	78	verb	phrase	1	2	nomatch	nager	-1	1	p	0.56103
732.9481999999999	0.0	+	78	verb	phrase	1	3	nomatch	nager	-1	1	p	0.56103
733.3481999999999	0.2	cnjt	78	verb	phrase	1	4	nomatch	nager	-1	1	p	0.56103
733.5482	0.0	+	78	verb	phrase	1	5	nomatch	nager	-1	1	p	0.56103
733.9481999999999	0.2	qgkm	78	verb	phrase	1	6	nomatch	nager	-1	1	p	0.56103
734.1481	0.0	+	78	verb	phrase	1	7	nomatch	nager	-1	1	p	0.56103
734.5481	0.2	xzdp	78	verb	phrase	1	8	nomatch	nager	-1	1	p	0.56103
734.7480999999999	0.0	+	78	verb	phrase	1	9	nomatch	nager	-1	1	p	0.56103
735.1481	0.2	plonger	78	verb	phrase	1	10	nomatch	nager	-1	1	p	0.56103
735.3480999999999	0.0	+	78	verb	phrase	1	11	nomatch	nager	-1	1	p	0.56103
735.7479999999999	0.0	+	78	verb	phrase	1	12	nomatch	nager	-1	1	p	0.56103
737.7479	0.0	NAGER	78	verb	phrase	1	13	nomatch	nager	-1	1	p	0.56103
738.3644999999999	0.0	+	78	verb	phrase	1	14	nomatch	nager	-1	1	p	0.56103
738.3089000000001	0.0	[response]	78	verb	phrase	1	15	nomatch	nager	-1	1	p	0.56103
748.1470999999999	0.0	+	79	noun	phrase	1	1	match	sablier	5	1	y	0.56236
748.697	0.2	wldvpn	79	noun	phrase	1	2	match	sablier	5	1	y	0.56236
748.8969999999999	0.0	+	79	noun	phrase	1	3	match	sablier	5	1	y	0.56236
749.2969999999999	0.2	lnfq	79	noun	phrase	1	4	match	sablier	5	1	y	0.56236
749.497	0.0	+	79	noun	phrase	1	5	match	sablier	5	1	y	0.56236
749.8969	0.2	hkq	79	noun	phrase	1	6	match	sablier	5	1	y	0.56236
750.0969	0.0	+	79	noun	phrase	1	7	match	sablier	5	1	y	0.56236
750.4969	0.2	mjzbs	79	noun	phrase	1	8	match	sablier	5	1	y	0.56236
750.6968999999999	0.0	+	79	noun	phrase	1	9	match	sablier	5	1	y	0.56236
751.0967999999999	0.2	sablier	79	noun	phrase	1	10	match	sablier	5	1	y	0.56236
751.2982999999999	0.0	+	79	noun	phrase	1	11	match	sablier	5	1	y	0.56236
751.6967999999999	0.0	+	79	noun	phrase	1	12	match	sablier	5	1	y	0.56236
753.6966	0.0	SABLIER	79	noun	phrase	1	13	match	sablier	5	1	y	0.56236
754.3132999999999	0.0	+	79	noun	phrase	1	14	match	sablier	5	1	y	0.56236
754.2589999999999	0.0	[response]	79	noun	phrase	1	15	match	sablier	5	1	y	0.56236
756.0965	0.0	+	80	verb	list	4	1	nomatch	plus	-1	1	p	0.61831
756.6464	0.2	nfvlxpt	80	verb	list	4	2	nomatch	plus	-1	1	p	0.61831
756.8463999999999	0.0	+	80	verb	list	4	3	nomatch	plus	-1	1	p	0.61831
757.2464	0.2	jade	80	verb	list	4	4	nomatch	plus	-1	1	p	0.61831
757.4463999999999	0.0	+	80	verb	list	4	5	nomatch	plus	-1	1	p	0.61831
757.8462999999999	0.2	leur	80	verb	list	4	6	nomatch	plus	-1	1	p	0.61831
758.0463	0.0	+	80	verb	list	4	7	nomatch	plus	-1	1	p	0.61831
758.4463	0.2	chasser	80	verb	list	4	8	nomatch	plus	-1	1	p	0.61831
758.6463	0.0	+	80	verb	list	4	9	nomatch	plus	-1	1	p	0.61831
759.0462	0.2	noir	80	verb	list	4	10	nomatch	plus	-1	1	p	0.61831
759.2461999999999	0.0	+	80	verb	list	4	11	nomatch	plus	-1	1	p	0.61831
759.6461999999999	0.0	+	80	verb	list	4	12	nomatch	plus	-1	1	p	0.61831
761.646	0.0	PLUS	80	verb	list	4	13	nomatch	plus	-1	1	p	0.61831
762.3293	0.0	+	80	verb	list	4	14	nomatch	plus	-1	1	p	0.61831
764.0458	0.0	+	80	verb	list	4	15	nomatch	plus	-1	1	p	0.61831
765.0124	0.0	+	80	verb	list	4	16	nomatch	plus	-1	1	p	0.61831
765.1124	0.0	+	80	verb	list	4	17	nomatch	plus	-1	1	p	0.61831
766.4956999999999	0.0	+	80	verb	list	4	18	nomatch	plus	-1	1	p	0.61831
766.5957	0.0	+	80	verb	list	4	19	nomatch	plus	-1	1	p	0.61831
767.9955	0.0	+	80	verb	list	4	20	nomatch	plus	-1	1	p	0.61831
768.0954999999999	0.0	+	80	verb	list	4	21	nomatch	plus	-1	1	p	0.61831
769.4953999999999	0.0	+	80	verb	list	4	22	nomatch	plus	-1	1	p	0.61831
769.5953999999999	0.0	+	80	verb	list	4	23	nomatch	plus	-1	1	p	0.61831
770.9952999999999	0.0	+	80	verb	list	4	24	nomatch	plus	-1	1	p	0.61831
771.0953	0.0	+	80	verb	list	4	25	nomatch	plus	-1	1	p	0.61831
772.4952	0.0	+	80	verb	list	4	26	nomatch	plus	-1	1	p	0.61831
772.5952	0.0	+	80	verb	list	4	27	nomatch	plus	-1	1	p	0.61831
773.9951	0.0	+	80	verb	list	4	28	nomatch	plus	-1	1	p	0.61831
774.0951	0.0	+	80	verb	list	4	29	nomatch	plus	-1	1	p	0.61831
775.495	0.0	+	80	verb	list	4	30	nomatch	plus	-1	1	p	0.61831
775.5949999999999	0.0	+	80	verb	list	4	31	nomatch	plus	-1	1	p	0.61831
776.9947999999999	0.0	+	80	verb	list	4	32	nomatch	plus	-1	1	p	0.61831
777.0948	0.0	+	80	verb	list	4	33	nomatch	plus	-1	1	p	0.61831
778.4947	0.0	+	80	verb	list	4	34	nomatch	plus	-1	1	p	0.61831
778.5947	0.0	+	80	verb	list	4	35	nomatch	plus	-1	1	p	0.61831
782.1610999999999	0.0	+	80	verb	list	4	36	nomatch	plus	-1	1	p	0.61831
762.2642999999999	0.0	[response]	80	verb	list	4	37	nomatch	plus	-1	1	p	0.61831
