onset	duration	stim	trial_number	trial_type	trial_structure	trial_length	sequential_position	probe_type	probe	probe_position	response_correct	response_key	response_time
0.06339999999999435	0.0	+	1	noun	list	2	1	match	casier	4	1	y	0.4926400000000001
0.5464999999999947	0.2	ndkbfhq	1	noun	list	2	2	match	casier	4	1	y	0.4926400000000001
0.7464999999999975	0.0	+	1	noun	list	2	3	match	casier	4	1	y	0.4926400000000001
1.1462999999999965	0.2	qmjf	1	noun	list	2	4	match	casier	4	1	y	0.4926400000000001
1.346199999999996	0.0	+	1	noun	list	2	5	match	casier	4	1	y	0.4926400000000001
1.7459999999999951	0.2	sjkg	1	noun	list	2	6	match	casier	4	1	y	0.4926400000000001
1.9458999999999946	0.0	+	1	noun	list	2	7	match	casier	4	1	y	0.4926400000000001
2.3456999999999937	0.2	casier	1	noun	list	2	8	match	casier	4	1	y	0.4926400000000001
2.5456999999999965	0.0	+	1	noun	list	2	9	match	casier	4	1	y	0.4926400000000001
2.9454999999999956	0.2	vite	1	noun	list	2	10	match	casier	4	1	y	0.4926400000000001
3.145399999999995	0.0	+	1	noun	list	2	11	match	casier	4	1	y	0.4926400000000001
3.545199999999994	0.0	+	1	noun	list	2	12	match	casier	4	1	y	0.4926400000000001
5.5443	0.0	CASIER	1	noun	list	2	13	match	casier	4	1	y	0.4926400000000001
6.094099999999997	0.0	+	1	noun	list	2	14	match	casier	4	1	y	0.4926400000000001
6.037000000000006	0.0	[response]	1	noun	list	2	15	match	casier	4	1	y	0.4926400000000001
7.943299999999994	0.0	+	2	noun	list	1	1	match	plus	5	1	y	0.49174
8.492999999999995	0.2	dspfj	2	noun	list	1	2	match	plus	5	1	y	0.49174
8.692899999999995	0.0	+	2	noun	list	1	3	match	plus	5	1	y	0.49174
9.092699999999994	0.2	xjng	2	noun	list	1	4	match	plus	5	1	y	0.49174
9.292599999999993	0.0	+	2	noun	list	1	5	match	plus	5	1	y	0.49174
9.692499999999995	0.2	qtk	2	noun	list	1	6	match	plus	5	1	y	0.49174
9.892399999999995	0.0	+	2	noun	list	1	7	match	plus	5	1	y	0.49174
10.292199999999994	0.2	jbmldz	2	noun	list	1	8	match	plus	5	1	y	0.49174
10.492099999999994	0.0	+	2	noun	list	1	9	match	plus	5	1	y	0.49174
10.891899999999993	0.2	plus	2	noun	list	1	10	match	plus	5	1	y	0.49174
11.091799999999992	0.0	+	2	noun	list	1	11	match	plus	5	1	y	0.49174
11.491699999999994	0.0	+	2	noun	list	1	12	match	plus	5	1	y	0.49174
13.490799999999993	0.0	PLUS	2	noun	list	1	13	match	plus	5	1	y	0.49174
14.040499999999994	0.0	+	2	noun	list	1	14	match	plus	5	1	y	0.49174
13.982500000000002	0.0	[response]	2	noun	list	1	15	match	plus	5	1	y	0.49174
15.88969999999999	0.0	+	3	noun	phrase	3	1	nomatch	paul	-1	1	p	0.51025
16.439399999999992	0.2	gsqc	3	noun	phrase	3	2	nomatch	paul	-1	1	p	0.51025
16.639399999999995	0.0	+	3	noun	phrase	3	3	nomatch	paul	-1	1	p	0.51025
17.039199999999994	0.2	kdx	3	noun	phrase	3	4	nomatch	paul	-1	1	p	0.51025
17.239099999999993	0.0	+	3	noun	phrase	3	5	nomatch	paul	-1	1	p	0.51025
17.638899999999992	0.2	son	3	noun	phrase	3	6	nomatch	paul	-1	1	p	0.51025
17.838799999999992	0.0	+	3	noun	phrase	3	7	nomatch	paul	-1	1	p	0.51025
18.23859999999999	0.2	tablier	3	noun	phrase	3	8	nomatch	paul	-1	1	p	0.51025
18.438599999999994	0.0	+	3	noun	phrase	3	9	nomatch	paul	-1	1	p	0.51025
18.838399999999993	0.2	vert	3	noun	phrase	3	10	nomatch	paul	-1	1	p	0.51025
19.038299999999992	0.0	+	3	noun	phrase	3	11	nomatch	paul	-1	1	p	0.51025
19.43809999999999	0.0	+	3	noun	phrase	3	12	nomatch	paul	-1	1	p	0.51025
21.43719999999999	0.0	PAUL	3	noun	phrase	3	13	nomatch	paul	-1	1	p	0.51025
22.00359999999999	0.0	+	3	noun	phrase	3	14	nomatch	paul	-1	1	p	0.51025
21.94749999999999	0.0	[response]	3	noun	phrase	3	15	nomatch	paul	-1	1	p	0.51025
31.8493	0.0	+	4	noun	list	1	1	nomatch	sous	-1	1	p	0.62706
32.399	0.2	chtdz	4	noun	list	1	2	nomatch	sous	-1	1	p	0.62706
32.5989	0.0	+	4	noun	list	1	3	nomatch	sous	-1	1	p	0.62706
32.9987	0.2	zhgv	4	noun	list	1	4	nomatch	sous	-1	1	p	0.62706
33.1987	0.0	+	4	noun	list	1	5	nomatch	sous	-1	1	p	0.62706
33.5985	0.2	qtk	4	noun	list	1	6	nomatch	sous	-1	1	p	0.62706
33.7984	0.0	+	4	noun	list	1	7	nomatch	sous	-1	1	p	0.62706
34.1982	0.2	pbqvx	4	noun	list	1	8	nomatch	sous	-1	1	p	0.62706
34.3981	0.0	+	4	noun	list	1	9	nomatch	sous	-1	1	p	0.62706
34.7979	0.2	sablier	4	noun	list	1	10	nomatch	sous	-1	1	p	0.62706
34.9979	0.0	+	4	noun	list	1	11	nomatch	sous	-1	1	p	0.62706
35.3977	0.0	+	4	noun	list	1	12	nomatch	sous	-1	1	p	0.62706
37.3968	0.0	SOUS	4	noun	list	1	13	nomatch	sous	-1	1	p	0.62706
38.07979999999999	0.0	+	4	noun	list	1	14	nomatch	sous	-1	1	p	0.62706
38.023799999999994	0.0	[response]	4	noun	list	1	15	nomatch	sous	-1	1	p	0.62706
39.7957	0.0	+	5	noun	list	3	1	match	rocher	4	1	y	0.53752
40.3455	0.2	zvmsdqh	5	noun	list	3	2	match	rocher	4	1	y	0.53752
40.5454	0.0	+	5	noun	list	3	3	match	rocher	4	1	y	0.53752
40.9452	0.2	dglq	5	noun	list	3	4	match	rocher	4	1	y	0.53752
41.1451	0.0	+	5	noun	list	3	5	match	rocher	4	1	y	0.53752
41.5449	0.2	va	5	noun	list	3	6	match	rocher	4	1	y	0.53752
41.7448	0.0	+	5	noun	list	3	7	match	rocher	4	1	y	0.53752
42.1447	0.2	rocher	5	noun	list	3	8	match	rocher	4	1	y	0.53752
42.3446	0.0	+	5	noun	list	3	9	match	rocher	4	1	y	0.53752
42.7444	0.2	loin	5	noun	list	3	10	match	rocher	4	1	y	0.53752
42.9443	0.0	+	5	noun	list	3	11	match	rocher	4	1	y	0.53752
43.3441	0.0	+	5	noun	list	3	12	match	rocher	4	1	y	0.53752
45.343199999999996	0.0	ROCHER	5	noun	list	3	13	match	rocher	4	1	y	0.53752
45.943	0.0	+	5	noun	list	3	14	match	rocher	4	1	y	0.53752
45.88069999999999	0.0	[response]	5	noun	list	3	15	match	rocher	4	1	y	0.53752
47.7422	0.0	+	6	verb	phrase	3	1	match	peut	3	1	y	0.43167
48.2919	0.2	vptl	6	verb	phrase	3	2	match	peut	3	1	y	0.43167
48.4918	0.0	+	6	verb	phrase	3	3	match	peut	3	1	y	0.43167
48.8916	0.2	pmch	6	verb	phrase	3	4	match	peut	3	1	y	0.43167
49.0916	0.0	+	6	verb	phrase	3	5	match	peut	3	1	y	0.43167
49.4914	0.2	peut	6	verb	phrase	3	6	match	peut	3	1	y	0.43167
49.6913	0.0	+	6	verb	phrase	3	7	match	peut	3	1	y	0.43167
50.0911	0.2	beaucoup	6	verb	phrase	3	8	match	peut	3	1	y	0.43167
50.291	0.0	+	6	verb	phrase	3	9	match	peut	3	1	y	0.43167
50.690799999999996	0.2	voyager	6	verb	phrase	3	10	match	peut	3	1	y	0.43167
50.8908	0.0	+	6	verb	phrase	3	11	match	peut	3	1	y	0.43167
51.2906	0.0	+	6	verb	phrase	3	12	match	peut	3	1	y	0.43167
53.2899	0.0	PEUT	6	verb	phrase	3	13	match	peut	3	1	y	0.43167
53.77279999999999	0.0	+	6	verb	phrase	3	14	match	peut	3	1	y	0.43167
53.721599999999995	0.0	[response]	6	verb	phrase	3	15	match	peut	3	1	y	0.43167
55.688599999999994	0.0	+	7	verb	list	1	1	nomatch	mon	-1	1	p	0.78338
56.2384	0.2	qbs	7	verb	list	1	2	nomatch	mon	-1	1	p	0.78338
56.4383	0.0	+	7	verb	list	1	3	nomatch	mon	-1	1	p	0.78338
56.8381	0.2	kcbt	7	verb	list	1	4	nomatch	mon	-1	1	p	0.78338
57.038	0.0	+	7	verb	list	1	5	nomatch	mon	-1	1	p	0.78338
57.437799999999996	0.2	wgh	7	verb	list	1	6	nomatch	mon	-1	1	p	0.78338
57.637699999999995	0.0	+	7	verb	list	1	7	nomatch	mon	-1	1	p	0.78338
58.0376	0.2	nrqmbjc	7	verb	list	1	8	nomatch	mon	-1	1	p	0.78338
58.2375	0.0	+	7	verb	list	1	9	nomatch	mon	-1	1	p	0.78338
58.637299999999996	0.2	vert	7	verb	list	1	10	nomatch	mon	-1	1	p	0.78338
58.837199999999996	0.0	+	7	verb	list	1	11	nomatch	mon	-1	1	p	0.78338
59.236999999999995	0.0	+	7	verb	list	1	12	nomatch	mon	-1	1	p	0.78338
61.23609999999999	0.0	MON	7	verb	list	1	13	nomatch	mon	-1	1	p	0.78338
62.08579999999999	0.0	+	7	verb	list	1	14	nomatch	mon	-1	1	p	0.78338
62.019499999999994	0.0	[response]	7	verb	list	1	15	nomatch	mon	-1	1	p	0.78338
63.635099999999994	0.0	+	8	verb	list	2	1	nomatch	adam	-1	1	p	0.53271
64.1848	0.2	pcbn	8	verb	list	2	2	nomatch	adam	-1	1	p	0.53271
64.3847	0.0	+	8	verb	list	2	3	nomatch	adam	-1	1	p	0.53271
64.7846	0.2	xgjw	8	verb	list	2	4	nomatch	adam	-1	1	p	0.53271
64.9845	0.0	+	8	verb	list	2	5	nomatch	adam	-1	1	p	0.53271
65.3843	0.2	wtrz	8	verb	list	2	6	nomatch	adam	-1	1	p	0.53271
65.5842	0.0	+	8	verb	list	2	7	nomatch	adam	-1	1	p	0.53271
65.984	0.2	voyager	8	verb	list	2	8	nomatch	adam	-1	1	p	0.53271
66.1839	0.0	+	8	verb	list	2	9	nomatch	adam	-1	1	p	0.53271
66.5838	0.2	blanc	8	verb	list	2	10	nomatch	adam	-1	1	p	0.53271
66.7837	0.0	+	8	verb	list	2	11	nomatch	adam	-1	1	p	0.53271
67.1836	0.0	+	8	verb	list	2	12	nomatch	adam	-1	1	p	0.53271
69.1993	0.0	ADAM	8	verb	list	2	13	nomatch	adam	-1	1	p	0.53271
69.79899999999999	0.0	+	8	verb	list	2	14	nomatch	adam	-1	1	p	0.53271
69.732	0.0	[response]	8	verb	list	2	15	nomatch	adam	-1	1	p	0.53271
71.59819999999999	0.0	+	9	noun	list	1	1	match	tard	5	1	y	0.70355
72.148	0.2	ctzg	9	noun	list	1	2	match	tard	5	1	y	0.70355
72.3479	0.0	+	9	noun	list	1	3	match	tard	5	1	y	0.70355
72.7477	0.2	qmjf	9	noun	list	1	4	match	tard	5	1	y	0.70355
72.9476	0.0	+	9	noun	list	1	5	match	tard	5	1	y	0.70355
73.3474	0.2	sjkg	9	noun	list	1	6	match	tard	5	1	y	0.70355
73.54729999999999	0.0	+	9	noun	list	1	7	match	tard	5	1	y	0.70355
73.94709999999999	0.2	lhsdrxn	9	noun	list	1	8	match	tard	5	1	y	0.70355
74.1471	0.0	+	9	noun	list	1	9	match	tard	5	1	y	0.70355
74.5469	0.2	tard	9	noun	list	1	10	match	tard	5	1	y	0.70355
74.74680000000001	0.0	+	9	noun	list	1	11	match	tard	5	1	y	0.70355
75.1466	0.0	+	9	noun	list	1	12	match	tard	5	1	y	0.70355
77.1457	0.0	TARD	9	noun	list	1	13	match	tard	5	1	y	0.70355
77.912	0.0	+	9	noun	list	1	14	match	tard	5	1	y	0.70355
77.8493	0.0	[response]	9	noun	list	1	15	match	tard	5	1	y	0.70355
79.5446	0.0	+	10	noun	phrase	1	1	nomatch	rouge	-1	1	p	0.88102
80.09440000000001	0.2	ljbf	10	noun	phrase	1	2	nomatch	rouge	-1	1	p	0.88102
80.29429999999999	0.0	+	10	noun	phrase	1	3	nomatch	rouge	-1	1	p	0.88102
80.69409999999999	0.2	kdx	10	noun	phrase	1	4	nomatch	rouge	-1	1	p	0.88102
80.894	0.0	+	10	noun	phrase	1	5	nomatch	rouge	-1	1	p	0.88102
81.29390000000001	0.2	qtk	10	noun	phrase	1	6	nomatch	rouge	-1	1	p	0.88102
81.4938	0.0	+	10	noun	phrase	1	7	nomatch	rouge	-1	1	p	0.88102
81.89359999999999	0.2	qvmnfs	10	noun	phrase	1	8	nomatch	rouge	-1	1	p	0.88102
82.0935	0.0	+	10	noun	phrase	1	9	nomatch	rouge	-1	1	p	0.88102
82.4933	0.2	noir	10	noun	phrase	1	10	nomatch	rouge	-1	1	p	0.88102
82.69319999999999	0.0	+	10	noun	phrase	1	11	nomatch	rouge	-1	1	p	0.88102
83.09309999999999	0.0	+	10	noun	phrase	1	12	nomatch	rouge	-1	1	p	0.88102
85.09219999999999	0.0	ROUGE	10	noun	phrase	1	13	nomatch	rouge	-1	1	p	0.88102
86.02510000000001	0.0	+	10	noun	phrase	1	14	nomatch	rouge	-1	1	p	0.88102
85.97319999999999	0.0	[response]	10	noun	phrase	1	15	nomatch	rouge	-1	1	p	0.88102
95.48749999999998	0.0	+	11	verb	list	1	1	match	nager	5	1	y	0.50308
96.03729999999999	0.2	lsk	11	verb	list	1	2	match	nager	5	1	y	0.50308
96.2372	0.0	+	11	verb	list	1	3	match	nager	5	1	y	0.50308
96.637	0.2	xslt	11	verb	list	1	4	match	nager	5	1	y	0.50308
96.83689999999999	0.0	+	11	verb	list	1	5	match	nager	5	1	y	0.50308
97.23669999999998	0.2	wtrz	11	verb	list	1	6	match	nager	5	1	y	0.50308
97.4367	0.0	+	11	verb	list	1	7	match	nager	5	1	y	0.50308
97.8365	0.2	tcxgm	11	verb	list	1	8	match	nager	5	1	y	0.50308
98.03639999999999	0.0	+	11	verb	list	1	9	match	nager	5	1	y	0.50308
98.43619999999999	0.2	nager	11	verb	list	1	10	match	nager	5	1	y	0.50308
98.6361	0.0	+	11	verb	list	1	11	match	nager	5	1	y	0.50308
99.036	0.0	+	11	verb	list	1	12	match	nager	5	1	y	0.50308
101.0351	0.0	NAGER	11	verb	list	1	13	match	nager	5	1	y	0.50308
101.60149999999999	0.0	+	11	verb	list	1	14	match	nager	5	1	y	0.50308
101.53809999999999	0.0	[response]	11	verb	list	1	15	match	nager	5	1	y	0.50308
111.4471	0.0	+	12	noun	phrase	2	1	match	bleu	5	1	y	0.57516
111.99689999999998	0.2	kqfg	12	noun	phrase	2	2	match	bleu	5	1	y	0.57516
112.19669999999999	0.0	+	12	noun	phrase	2	3	match	bleu	5	1	y	0.57516
112.5966	0.2	hndz	12	noun	phrase	2	4	match	bleu	5	1	y	0.57516
112.79650000000001	0.0	+	12	noun	phrase	2	5	match	bleu	5	1	y	0.57516
113.19630000000001	0.2	qtk	12	noun	phrase	2	6	match	bleu	5	1	y	0.57516
113.3962	0.0	+	12	noun	phrase	2	7	match	bleu	5	1	y	0.57516
113.79599999999999	0.2	panier	12	noun	phrase	2	8	match	bleu	5	1	y	0.57516
113.99600000000001	0.0	+	12	noun	phrase	2	9	match	bleu	5	1	y	0.57516
114.39580000000001	0.2	bleu	12	noun	phrase	2	10	match	bleu	5	1	y	0.57516
114.5957	0.0	+	12	noun	phrase	2	11	match	bleu	5	1	y	0.57516
114.99549999999999	0.0	+	12	noun	phrase	2	12	match	bleu	5	1	y	0.57516
116.99459999999999	0.0	BLEU	12	noun	phrase	2	13	match	bleu	5	1	y	0.57516
117.6277	0.0	+	12	noun	phrase	2	14	match	bleu	5	1	y	0.57516
117.56979999999999	0.0	[response]	12	noun	phrase	2	15	match	bleu	5	1	y	0.57516
135.3864	0.0	+	13	noun	list	2	1	match	tablier	5	1	y	0.6743900000000002
135.93619999999999	0.2	xdv	13	noun	list	2	2	match	tablier	5	1	y	0.6743900000000002
136.1361	0.0	+	13	noun	list	2	3	match	tablier	5	1	y	0.6743900000000002
136.5359	0.2	xjng	13	noun	list	2	4	match	tablier	5	1	y	0.6743900000000002
136.73579999999998	0.0	+	13	noun	list	2	5	match	tablier	5	1	y	0.6743900000000002
137.13559999999998	0.2	wtrz	13	noun	list	2	6	match	tablier	5	1	y	0.6743900000000002
137.3355	0.0	+	13	noun	list	2	7	match	tablier	5	1	y	0.6743900000000002
137.7353	0.2	mieux	13	noun	list	2	8	match	tablier	5	1	y	0.6743900000000002
137.93529999999998	0.0	+	13	noun	list	2	9	match	tablier	5	1	y	0.6743900000000002
138.33509999999998	0.2	tablier	13	noun	list	2	10	match	tablier	5	1	y	0.6743900000000002
138.535	0.0	+	13	noun	list	2	11	match	tablier	5	1	y	0.6743900000000002
138.9348	0.0	+	13	noun	list	2	12	match	tablier	5	1	y	0.6743900000000002
140.9339	0.0	TABLIER	13	noun	list	2	13	match	tablier	5	1	y	0.6743900000000002
141.6669	0.0	+	13	noun	list	2	14	match	tablier	5	1	y	0.6743900000000002
141.60829999999999	0.0	[response]	13	noun	list	2	15	match	tablier	5	1	y	0.6743900000000002
151.346	0.0	+	14	noun	list	2	1	match	trop	4	1	y	0.57792
151.8957	0.2	qxgpnz	14	noun	list	2	2	match	trop	4	1	y	0.57792
152.0956	0.0	+	14	noun	list	2	3	match	trop	4	1	y	0.57792
152.4954	0.2	sqt	14	noun	list	2	4	match	trop	4	1	y	0.57792
152.6954	0.0	+	14	noun	list	2	5	match	trop	4	1	y	0.57792
153.0952	0.2	wgh	14	noun	list	2	6	match	trop	4	1	y	0.57792
153.2951	0.0	+	14	noun	list	2	7	match	trop	4	1	y	0.57792
153.6949	0.2	trop	14	noun	list	2	8	match	trop	4	1	y	0.57792
153.8948	0.0	+	14	noun	list	2	9	match	trop	4	1	y	0.57792
154.2946	0.2	cendrier	14	noun	list	2	10	match	trop	4	1	y	0.57792
154.4946	0.0	+	14	noun	list	2	11	match	trop	4	1	y	0.57792
154.8944	0.0	+	14	noun	list	2	12	match	trop	4	1	y	0.57792
156.8935	0.0	TROP	14	noun	list	2	13	match	trop	4	1	y	0.57792
157.5265	0.0	+	14	noun	list	2	14	match	trop	4	1	y	0.57792
157.4714	0.0	[response]	14	noun	list	2	15	match	trop	4	1	y	0.57792
159.2924	0.0	+	15	noun	list	4	1	nomatch	rouge	-1	1	p	0.61149
159.8422	0.2	qgctdf	15	noun	list	4	2	nomatch	rouge	-1	1	p	0.61149
160.0421	0.0	+	15	noun	list	4	3	nomatch	rouge	-1	1	p	0.61149
160.4419	0.2	sur	15	noun	list	4	4	nomatch	rouge	-1	1	p	0.61149
160.6418	0.0	+	15	noun	list	4	5	nomatch	rouge	-1	1	p	0.61149
161.0416	0.2	doit	15	noun	list	4	6	nomatch	rouge	-1	1	p	0.61149
161.2415	0.0	+	15	noun	list	4	7	nomatch	rouge	-1	1	p	0.61149
161.6414	0.2	rocher	15	noun	list	4	8	nomatch	rouge	-1	1	p	0.61149
161.8413	0.0	+	15	noun	list	4	9	nomatch	rouge	-1	1	p	0.61149
162.2411	0.2	tard	15	noun	list	4	10	nomatch	rouge	-1	1	p	0.61149
162.441	0.0	+	15	noun	list	4	11	nomatch	rouge	-1	1	p	0.61149
162.8408	0.0	+	15	noun	list	4	12	nomatch	rouge	-1	1	p	0.61149
164.8399	0.0	ROUGE	15	noun	list	4	13	nomatch	rouge	-1	1	p	0.61149
165.5063	0.0	+	15	noun	list	4	14	nomatch	rouge	-1	1	p	0.61149
165.4514	0.0	[response]	15	noun	list	4	15	nomatch	rouge	-1	1	p	0.61149
167.2389	0.0	+	16	noun	list	4	1	match	va	3	1	y	0.77636
167.7886	0.2	xkpv	16	noun	list	4	2	match	va	3	1	y	0.77636
167.9885	0.0	+	16	noun	list	4	3	match	va	3	1	y	0.77636
168.3883	0.2	pour	16	noun	list	4	4	match	va	3	1	y	0.77636
168.5883	0.0	+	16	noun	list	4	5	match	va	3	1	y	0.77636
168.9881	0.2	va	16	noun	list	4	6	match	va	3	1	y	0.77636
169.188	0.0	+	16	noun	list	4	7	match	va	3	1	y	0.77636
169.5878	0.2	boîtier	16	noun	list	4	8	match	va	3	1	y	0.77636
169.7877	0.0	+	16	noun	list	4	9	match	va	3	1	y	0.77636
170.1876	0.2	ainsi	16	noun	list	4	10	match	va	3	1	y	0.77636
170.3875	0.0	+	16	noun	list	4	11	match	va	3	1	y	0.77636
170.7873	0.0	+	16	noun	list	4	12	match	va	3	1	y	0.77636
172.7864	0.0	VA	16	noun	list	4	13	match	va	3	1	y	0.77636
173.61939999999998	0.0	+	16	noun	list	4	14	match	va	3	1	y	0.77636
173.5627	0.0	[response]	16	noun	list	4	15	match	va	3	1	y	0.77636
175.18529999999998	0.0	+	17	verb	list	3	1	match	doit	3	1	y	0.47435
175.7351	0.2	hlq	17	verb	list	3	2	match	doit	3	1	y	0.47435
175.935	0.0	+	17	verb	list	3	3	match	doit	3	1	y	0.47435
176.3348	0.2	jxrw	17	verb	list	3	4	match	doit	3	1	y	0.47435
176.5347	0.0	+	17	verb	list	3	5	match	doit	3	1	y	0.47435
176.93449999999999	0.2	doit	17	verb	list	3	6	match	doit	3	1	y	0.47435
177.1344	0.0	+	17	verb	list	3	7	match	doit	3	1	y	0.47435
177.5343	0.2	grand	17	verb	list	3	8	match	doit	3	1	y	0.47435
177.7342	0.0	+	17	verb	list	3	9	match	doit	3	1	y	0.47435
178.134	0.2	chasser	17	verb	list	3	10	match	doit	3	1	y	0.47435
178.3339	0.0	+	17	verb	list	3	11	match	doit	3	1	y	0.47435
178.7337	0.0	+	17	verb	list	3	12	match	doit	3	1	y	0.47435
180.74949999999998	0.0	DOIT	17	verb	list	3	13	match	doit	3	1	y	0.47435
181.2826	0.0	+	17	verb	list	3	14	match	doit	3	1	y	0.47435
181.22379999999998	0.0	[response]	17	verb	list	3	15	match	doit	3	1	y	0.47435
191.1449	0.0	+	18	noun	phrase	1	1	match	panier	5	1	y	0.47289
191.6946	0.2	dqk	18	noun	phrase	1	2	match	panier	5	1	y	0.47289
191.8946	0.0	+	18	noun	phrase	1	3	match	panier	5	1	y	0.47289
192.2944	0.2	kdx	18	noun	phrase	1	4	match	panier	5	1	y	0.47289
192.4943	0.0	+	18	noun	phrase	1	5	match	panier	5	1	y	0.47289
192.8941	0.2	qtk	18	noun	phrase	1	6	match	panier	5	1	y	0.47289
193.094	0.0	+	18	noun	phrase	1	7	match	panier	5	1	y	0.47289
193.4938	0.2	nxbt	18	noun	phrase	1	8	match	panier	5	1	y	0.47289
193.6937	0.0	+	18	noun	phrase	1	9	match	panier	5	1	y	0.47289
194.0936	0.2	panier	18	noun	phrase	1	10	match	panier	5	1	y	0.47289
194.2935	0.0	+	18	noun	phrase	1	11	match	panier	5	1	y	0.47289
194.6933	0.0	+	18	noun	phrase	1	12	match	panier	5	1	y	0.47289
196.6924	0.0	PANIER	18	noun	phrase	1	13	match	panier	5	1	y	0.47289
197.22549999999998	0.0	+	18	noun	phrase	1	14	match	panier	5	1	y	0.47289
197.1653	0.0	[response]	18	noun	phrase	1	15	match	panier	5	1	y	0.47289
199.0913	0.0	+	19	noun	phrase	1	1	match	bleu	5	1	y	0.66843
199.6411	0.2	ckgljq	19	noun	phrase	1	2	match	bleu	5	1	y	0.66843
199.841	0.0	+	19	noun	phrase	1	3	match	bleu	5	1	y	0.66843
200.2408	0.2	hndz	19	noun	phrase	1	4	match	bleu	5	1	y	0.66843
200.4407	0.0	+	19	noun	phrase	1	5	match	bleu	5	1	y	0.66843
200.8406	0.2	wtrz	19	noun	phrase	1	6	match	bleu	5	1	y	0.66843
201.0405	0.0	+	19	noun	phrase	1	7	match	bleu	5	1	y	0.66843
201.4403	0.2	lxjhpct	19	noun	phrase	1	8	match	bleu	5	1	y	0.66843
201.6402	0.0	+	19	noun	phrase	1	9	match	bleu	5	1	y	0.66843
202.04	0.2	bleu	19	noun	phrase	1	10	match	bleu	5	1	y	0.66843
202.23989999999998	0.0	+	19	noun	phrase	1	11	match	bleu	5	1	y	0.66843
202.6397	0.0	+	19	noun	phrase	1	12	match	bleu	5	1	y	0.66843
204.6388	0.0	BLEU	19	noun	phrase	1	13	match	bleu	5	1	y	0.66843
205.37189999999998	0.0	+	19	noun	phrase	1	14	match	bleu	5	1	y	0.66843
205.3073	0.0	[response]	19	noun	phrase	1	15	match	bleu	5	1	y	0.66843
207.0378	0.0	+	20	verb	list	4	1	nomatch	rocher	-1	1	p	0.64981
207.58749999999998	0.2	smfn	20	verb	list	4	2	nomatch	rocher	-1	1	p	0.64981
207.7874	0.0	+	20	verb	list	4	3	nomatch	rocher	-1	1	p	0.64981
208.1873	0.2	vers	20	verb	list	4	4	nomatch	rocher	-1	1	p	0.64981
208.3872	0.0	+	20	verb	list	4	5	nomatch	rocher	-1	1	p	0.64981
208.78699999999998	0.2	doit	20	verb	list	4	6	nomatch	rocher	-1	1	p	0.64981
208.9869	0.0	+	20	verb	list	4	7	nomatch	rocher	-1	1	p	0.64981
209.38670000000002	0.2	petit	20	verb	list	4	8	nomatch	rocher	-1	1	p	0.64981
209.58659999999998	0.0	+	20	verb	list	4	9	nomatch	rocher	-1	1	p	0.64981
209.98649999999998	0.2	galoper	20	verb	list	4	10	nomatch	rocher	-1	1	p	0.64981
210.1864	0.0	+	20	verb	list	4	11	nomatch	rocher	-1	1	p	0.64981
210.58620000000002	0.0	+	20	verb	list	4	12	nomatch	rocher	-1	1	p	0.64981
212.58530000000002	0.0	ROCHER	20	verb	list	4	13	nomatch	rocher	-1	1	p	0.64981
213.3016	0.0	+	20	verb	list	4	14	nomatch	rocher	-1	1	p	0.64981
213.2351	0.0	[response]	20	verb	list	4	15	nomatch	rocher	-1	1	p	0.64981
222.9973	0.0	+	21	noun	phrase	1	1	nomatch	son	-1	1	p	1.008
223.5471	0.2	xtlkqvj	21	noun	phrase	1	2	nomatch	son	-1	1	p	1.008
223.747	0.0	+	21	noun	phrase	1	3	nomatch	son	-1	1	p	1.008
224.14679999999998	0.2	dglq	21	noun	phrase	1	4	nomatch	son	-1	1	p	1.008
224.3467	0.0	+	21	noun	phrase	1	5	nomatch	son	-1	1	p	1.008
224.74649999999997	0.2	wtrz	21	noun	phrase	1	6	nomatch	son	-1	1	p	1.008
224.94650000000001	0.0	+	21	noun	phrase	1	7	nomatch	son	-1	1	p	1.008
225.3465	0.2	zbqrd	21	noun	phrase	1	8	nomatch	son	-1	1	p	1.008
225.54649999999998	0.0	+	21	noun	phrase	1	9	nomatch	son	-1	1	p	1.008
225.94599999999997	0.2	tablier	21	noun	phrase	1	10	nomatch	son	-1	1	p	1.008
226.14589999999998	0.0	+	21	noun	phrase	1	11	nomatch	son	-1	1	p	1.008
226.54579999999999	0.0	+	21	noun	phrase	1	12	nomatch	son	-1	1	p	1.008
228.54489999999998	0.0	SON	21	noun	phrase	1	13	nomatch	son	-1	1	p	1.008
229.611	0.0	+	21	noun	phrase	1	14	nomatch	son	-1	1	p	1.008
229.55290000000002	0.0	[response]	21	noun	phrase	1	15	nomatch	son	-1	1	p	1.008
230.9438	0.0	+	22	verb	list	2	1	match	vert	5	1	y	0.4398
231.49349999999998	0.2	jwndq	22	verb	list	2	2	match	vert	5	1	y	0.4398
231.6934	0.0	+	22	verb	list	2	3	match	vert	5	1	y	0.4398
232.0933	0.2	xslt	22	verb	list	2	4	match	vert	5	1	y	0.4398
232.29340000000002	0.0	+	22	verb	list	2	5	match	vert	5	1	y	0.4398
232.69299999999998	0.2	qtk	22	verb	list	2	6	match	vert	5	1	y	0.4398
232.8929	0.0	+	22	verb	list	2	7	match	vert	5	1	y	0.4398
233.29270000000002	0.2	jongler	22	verb	list	2	8	match	vert	5	1	y	0.4398
233.49259999999998	0.0	+	22	verb	list	2	9	match	vert	5	1	y	0.4398
233.89249999999998	0.2	vert	22	verb	list	2	10	match	vert	5	1	y	0.4398
234.0924	0.0	+	22	verb	list	2	11	match	vert	5	1	y	0.4398
234.49219999999997	0.0	+	22	verb	list	2	12	match	vert	5	1	y	0.4398
236.49130000000002	0.0	VERT	22	verb	list	2	13	match	vert	5	1	y	0.4398
236.99110000000002	0.0	+	22	verb	list	2	14	match	vert	5	1	y	0.4398
236.93110000000001	0.0	[response]	22	verb	list	2	15	match	vert	5	1	y	0.4398
238.8902	0.0	+	23	noun	phrase	1	1	match	grand	5	1	y	0.40167
239.44	0.2	dhj	23	noun	phrase	1	2	match	grand	5	1	y	0.40167
239.6399	0.0	+	23	noun	phrase	1	3	match	grand	5	1	y	0.40167
240.03969999999998	0.2	hndz	23	noun	phrase	1	4	match	grand	5	1	y	0.40167
240.2396	0.0	+	23	noun	phrase	1	5	match	grand	5	1	y	0.40167
240.6395	0.2	wgh	23	noun	phrase	1	6	match	grand	5	1	y	0.40167
240.8394	0.0	+	23	noun	phrase	1	7	match	grand	5	1	y	0.40167
241.23919999999998	0.2	jbmldz	23	noun	phrase	1	8	match	grand	5	1	y	0.40167
241.4391	0.0	+	23	noun	phrase	1	9	match	grand	5	1	y	0.40167
241.83890000000002	0.2	grand	23	noun	phrase	1	10	match	grand	5	1	y	0.40167
242.03879999999998	0.0	+	23	noun	phrase	1	11	match	grand	5	1	y	0.40167
242.43869999999998	0.0	+	23	noun	phrase	1	12	match	grand	5	1	y	0.40167
244.43779999999998	0.0	GRAND	23	noun	phrase	1	13	match	grand	5	1	y	0.40167
244.9042	0.0	+	23	noun	phrase	1	14	match	grand	5	1	y	0.40167
244.8394	0.0	[response]	23	noun	phrase	1	15	match	grand	5	1	y	0.40167
262.8462	0.0	+	24	noun	list	1	1	nomatch	sans	-1	1	p	0.63254
263.396	0.2	txghnwc	24	noun	list	1	2	nomatch	sans	-1	1	p	0.63254
263.5959	0.0	+	24	noun	list	1	3	nomatch	sans	-1	1	p	0.63254
263.9957	0.2	xgjw	24	noun	list	1	4	nomatch	sans	-1	1	p	0.63254
264.1956	0.0	+	24	noun	list	1	5	nomatch	sans	-1	1	p	0.63254
264.5954	0.2	wtrz	24	noun	list	1	6	nomatch	sans	-1	1	p	0.63254
264.7954	0.0	+	24	noun	list	1	7	nomatch	sans	-1	1	p	0.63254
265.1952	0.2	lhsdrxn	24	noun	list	1	8	nomatch	sans	-1	1	p	0.63254
265.3951	0.0	+	24	noun	list	1	9	nomatch	sans	-1	1	p	0.63254
265.7949	0.2	beaucoup	24	noun	list	1	10	nomatch	sans	-1	1	p	0.63254
265.9948	0.0	+	24	noun	list	1	11	nomatch	sans	-1	1	p	0.63254
266.39459999999997	0.0	+	24	noun	list	1	12	nomatch	sans	-1	1	p	0.63254
268.3937	0.0	SANS	24	noun	list	1	13	nomatch	sans	-1	1	p	0.63254
269.0934	0.0	+	24	noun	list	1	14	nomatch	sans	-1	1	p	0.63254
269.02630000000005	0.0	[response]	24	noun	list	1	15	nomatch	sans	-1	1	p	0.63254
270.7927	0.0	+	25	noun	list	4	1	match	plus	4	1	y	0.62223
271.3424	0.2	tfbvc	25	noun	list	4	2	match	plus	4	1	y	0.62223
271.5424	0.0	+	25	noun	list	4	3	match	plus	4	1	y	0.62223
271.9422	0.2	jean	25	noun	list	4	4	match	plus	4	1	y	0.62223
272.14209999999997	0.0	+	25	noun	list	4	5	match	plus	4	1	y	0.62223
272.5419	0.2	leur	25	noun	list	4	6	match	plus	4	1	y	0.62223
272.7418	0.0	+	25	noun	list	4	7	match	plus	4	1	y	0.62223
273.1416	0.2	plus	25	noun	list	4	8	match	plus	4	1	y	0.62223
273.3415	0.0	+	25	noun	list	4	9	match	plus	4	1	y	0.62223
273.7414	0.2	voilier	25	noun	list	4	10	match	plus	4	1	y	0.62223
273.9413	0.0	+	25	noun	list	4	11	match	plus	4	1	y	0.62223
274.3411	0.0	+	25	noun	list	4	12	match	plus	4	1	y	0.62223
276.3402	0.0	PLUS	25	noun	list	4	13	match	plus	4	1	y	0.62223
277.0232	0.0	+	25	noun	list	4	14	match	plus	4	1	y	0.62223
276.9624	0.0	[response]	25	noun	list	4	15	match	plus	4	1	y	0.62223
278.7391	0.0	+	26	noun	list	1	1	match	tablier	5	1	y	0.5348100000000001
279.2889	0.2	mdq	26	noun	list	1	2	match	tablier	5	1	y	0.5348100000000001
279.48879999999997	0.0	+	26	noun	list	1	3	match	tablier	5	1	y	0.5348100000000001
279.8886	0.2	hndz	26	noun	list	1	4	match	tablier	5	1	y	0.5348100000000001
280.0885	0.0	+	26	noun	list	1	5	match	tablier	5	1	y	0.5348100000000001
280.4884	0.2	gh	26	noun	list	1	6	match	tablier	5	1	y	0.5348100000000001
280.68829999999997	0.0	+	26	noun	list	1	7	match	tablier	5	1	y	0.5348100000000001
281.0881	0.2	hqw	26	noun	list	1	8	match	tablier	5	1	y	0.5348100000000001
281.288	0.0	+	26	noun	list	1	9	match	tablier	5	1	y	0.5348100000000001
281.6878	0.2	tablier	26	noun	list	1	10	match	tablier	5	1	y	0.5348100000000001
281.8877	0.0	+	26	noun	list	1	11	match	tablier	5	1	y	0.5348100000000001
282.2875	0.0	+	26	noun	list	1	12	match	tablier	5	1	y	0.5348100000000001
284.2867	0.0	TABLIER	26	noun	list	1	13	match	tablier	5	1	y	0.5348100000000001
284.8864	0.0	+	26	noun	list	1	14	match	tablier	5	1	y	0.5348100000000001
284.8215	0.0	[response]	26	noun	list	1	15	match	tablier	5	1	y	0.5348100000000001
286.6856	0.0	+	27	noun	list	1	1	nomatch	son	-1	1	p	0.68017
287.2353	0.2	tlz	27	noun	list	1	2	nomatch	son	-1	1	p	0.68017
287.4352	0.0	+	27	noun	list	1	3	nomatch	son	-1	1	p	0.68017
287.8351	0.2	dglq	27	noun	list	1	4	nomatch	son	-1	1	p	0.68017
288.03499999999997	0.0	+	27	noun	list	1	5	nomatch	son	-1	1	p	0.68017
288.4348	0.2	sjkg	27	noun	list	1	6	nomatch	son	-1	1	p	0.68017
288.6347	0.0	+	27	noun	list	1	7	nomatch	son	-1	1	p	0.68017
289.0345	0.2	mchd	27	noun	list	1	8	nomatch	son	-1	1	p	0.68017
289.2344	0.0	+	27	noun	list	1	9	nomatch	son	-1	1	p	0.68017
289.6343	0.2	voilier	27	noun	list	1	10	nomatch	son	-1	1	p	0.68017
289.8342	0.0	+	27	noun	list	1	11	nomatch	son	-1	1	p	0.68017
290.234	0.0	+	27	noun	list	1	12	nomatch	son	-1	1	p	0.68017
292.2498	0.0	SON	27	noun	list	1	13	nomatch	son	-1	1	p	0.68017
292.9828	0.0	+	27	noun	list	1	14	nomatch	son	-1	1	p	0.68017
292.92990000000003	0.0	[response]	27	noun	list	1	15	nomatch	son	-1	1	p	0.68017
294.6487	0.0	+	28	verb	phrase	4	1	nomatch	vers	-1	1	p	0.76024
295.1985	0.2	wrfxp	28	verb	phrase	4	2	nomatch	vers	-1	1	p	0.76024
295.3984	0.0	+	28	verb	phrase	4	3	nomatch	vers	-1	1	p	0.76024
295.7982	0.2	jean	28	verb	phrase	4	4	nomatch	vers	-1	1	p	0.76024
295.9981	0.0	+	28	verb	phrase	4	5	nomatch	vers	-1	1	p	0.76024
296.3979	0.2	va	28	verb	phrase	4	6	nomatch	vers	-1	1	p	0.76024
296.5978	0.0	+	28	verb	phrase	4	7	nomatch	vers	-1	1	p	0.76024
296.9977	0.2	plus	28	verb	phrase	4	8	nomatch	vers	-1	1	p	0.76024
297.1976	0.0	+	28	verb	phrase	4	9	nomatch	vers	-1	1	p	0.76024
297.5974	0.2	chasser	28	verb	phrase	4	10	nomatch	vers	-1	1	p	0.76024
297.7973	0.0	+	28	verb	phrase	4	11	nomatch	vers	-1	1	p	0.76024
298.1971	0.0	+	28	verb	phrase	4	12	nomatch	vers	-1	1	p	0.76024
300.1962	0.0	VERS	28	verb	phrase	4	13	nomatch	vers	-1	1	p	0.76024
301.0125	0.0	+	28	verb	phrase	4	14	nomatch	vers	-1	1	p	0.76024
300.95650000000006	0.0	[response]	28	verb	phrase	4	15	nomatch	vers	-1	1	p	0.76024
302.5952	0.0	+	29	noun	phrase	4	1	nomatch	bleu	-1	1	p	0.60758
303.1449	0.2	tdrmhl	29	noun	phrase	4	2	nomatch	bleu	-1	1	p	0.60758
303.3448	0.0	+	29	noun	phrase	4	3	nomatch	bleu	-1	1	p	0.60758
303.7446	0.2	pour	29	noun	phrase	4	4	nomatch	bleu	-1	1	p	0.60758
303.9445	0.0	+	29	noun	phrase	4	5	nomatch	bleu	-1	1	p	0.60758
304.3444	0.2	leur	29	noun	phrase	4	6	nomatch	bleu	-1	1	p	0.60758
304.5443	0.0	+	29	noun	phrase	4	7	nomatch	bleu	-1	1	p	0.60758
304.9441	0.2	voilier	29	noun	phrase	4	8	nomatch	bleu	-1	1	p	0.60758
305.144	0.0	+	29	noun	phrase	4	9	nomatch	bleu	-1	1	p	0.60758
305.5438	0.2	vert	29	noun	phrase	4	10	nomatch	bleu	-1	1	p	0.60758
305.7437	0.0	+	29	noun	phrase	4	11	nomatch	bleu	-1	1	p	0.60758
306.1436	0.0	+	29	noun	phrase	4	12	nomatch	bleu	-1	1	p	0.60758
308.1427	0.0	BLEU	29	noun	phrase	4	13	nomatch	bleu	-1	1	p	0.60758
308.8091	0.0	+	29	noun	phrase	4	14	nomatch	bleu	-1	1	p	0.60758
308.7503	0.0	[response]	29	noun	phrase	4	15	nomatch	bleu	-1	1	p	0.60758
310.5416	0.0	+	30	noun	list	3	1	nomatch	va	-1	1	p	0.57454
311.0914	0.2	tnjqpz	30	noun	list	3	2	nomatch	va	-1	1	p	0.57454
311.2913	0.0	+	30	noun	list	3	3	nomatch	va	-1	1	p	0.57454
311.6911	0.2	xslt	30	noun	list	3	4	nomatch	va	-1	1	p	0.57454
311.891	0.0	+	30	noun	list	3	5	nomatch	va	-1	1	p	0.57454
312.2908	0.2	son	30	noun	list	3	6	nomatch	va	-1	1	p	0.57454
312.4907	0.0	+	30	noun	list	3	7	nomatch	va	-1	1	p	0.57454
312.8906	0.2	beaucoup	30	noun	list	3	8	nomatch	va	-1	1	p	0.57454
313.0905	0.0	+	30	noun	list	3	9	nomatch	va	-1	1	p	0.57454
313.4903	0.2	boîtier	30	noun	list	3	10	nomatch	va	-1	1	p	0.57454
313.6902	0.0	+	30	noun	list	3	11	nomatch	va	-1	1	p	0.57454
314.09	0.0	+	30	noun	list	3	12	nomatch	va	-1	1	p	0.57454
316.0891	0.0	VA	30	noun	list	3	13	nomatch	va	-1	1	p	0.57454
316.7222	0.0	+	30	noun	list	3	14	nomatch	va	-1	1	p	0.57454
316.6637	0.0	[response]	30	noun	list	3	15	nomatch	va	-1	1	p	0.57454
318.4881	0.0	+	31	verb	list	4	1	nomatch	sous	-1	1	p	0.50879
319.0378	0.2	mfxvrh	31	verb	list	4	2	nomatch	sous	-1	1	p	0.50879
319.2377	0.0	+	31	verb	list	4	3	nomatch	sous	-1	1	p	0.50879
319.6376	0.2	avec	31	verb	list	4	4	nomatch	sous	-1	1	p	0.50879
319.8375	0.0	+	31	verb	list	4	5	nomatch	sous	-1	1	p	0.50879
320.2373	0.2	doit	31	verb	list	4	6	nomatch	sous	-1	1	p	0.50879
320.4372	0.0	+	31	verb	list	4	7	nomatch	sous	-1	1	p	0.50879
320.837	0.2	grand	31	verb	list	4	8	nomatch	sous	-1	1	p	0.50879
321.0369	0.0	+	31	verb	list	4	9	nomatch	sous	-1	1	p	0.50879
321.4368	0.2	nager	31	verb	list	4	10	nomatch	sous	-1	1	p	0.50879
321.6367	0.0	+	31	verb	list	4	11	nomatch	sous	-1	1	p	0.50879
322.0365	0.0	+	31	verb	list	4	12	nomatch	sous	-1	1	p	0.50879
324.0356	0.0	SOUS	31	verb	list	4	13	nomatch	sous	-1	1	p	0.50879
324.602	0.0	+	31	verb	list	4	14	nomatch	sous	-1	1	p	0.50879
324.5444	0.0	[response]	31	verb	list	4	15	nomatch	sous	-1	1	p	0.50879
326.4345	0.0	+	32	noun	phrase	3	1	match	bleu	5	1	y	0.57207
326.9843	0.2	hflvctq	32	noun	phrase	3	2	match	bleu	5	1	y	0.57207
327.1842	0.0	+	32	noun	phrase	3	3	match	bleu	5	1	y	0.57207
327.584	0.2	hndz	32	noun	phrase	3	4	match	bleu	5	1	y	0.57207
327.7839	0.0	+	32	noun	phrase	3	5	match	bleu	5	1	y	0.57207
328.1837	0.2	mon	32	noun	phrase	3	6	match	bleu	5	1	y	0.57207
328.3837	0.0	+	32	noun	phrase	3	7	match	bleu	5	1	y	0.57207
328.8001	0.2	boîtier	32	noun	phrase	3	8	match	bleu	5	1	y	0.57207
329.0	0.0	+	32	noun	phrase	3	9	match	bleu	5	1	y	0.57207
329.3999	0.2	bleu	32	noun	phrase	3	10	match	bleu	5	1	y	0.57207
329.5998	0.0	+	32	noun	phrase	3	11	match	bleu	5	1	y	0.57207
329.9996	0.0	+	32	noun	phrase	3	12	match	bleu	5	1	y	0.57207
331.9987	0.0	BLEU	32	noun	phrase	3	13	match	bleu	5	1	y	0.57207
332.6318	0.0	+	32	noun	phrase	3	14	match	bleu	5	1	y	0.57207
332.5708	0.0	[response]	32	noun	phrase	3	15	match	bleu	5	1	y	0.57207
334.3976	0.0	+	33	noun	list	3	1	nomatch	tablier	-1	1	p	0.54443
334.9474	0.2	glzmrbd	33	noun	list	3	2	nomatch	tablier	-1	1	p	0.54443
335.1473	0.0	+	33	noun	list	3	3	nomatch	tablier	-1	1	p	0.54443
335.5471	0.2	qmjf	33	noun	list	3	4	nomatch	tablier	-1	1	p	0.54443
335.747	0.0	+	33	noun	list	3	5	nomatch	tablier	-1	1	p	0.54443
336.1469	0.2	peut	33	noun	list	3	6	nomatch	tablier	-1	1	p	0.54443
336.3468	0.0	+	33	noun	list	3	7	nomatch	tablier	-1	1	p	0.54443
336.7466	0.2	casier	33	noun	list	3	8	nomatch	tablier	-1	1	p	0.54443
336.9465	0.0	+	33	noun	list	3	9	nomatch	tablier	-1	1	p	0.54443
337.3463	0.2	ainsi	33	noun	list	3	10	nomatch	tablier	-1	1	p	0.54443
337.5462	0.0	+	33	noun	list	3	11	nomatch	tablier	-1	1	p	0.54443
337.9461	0.0	+	33	noun	list	3	12	nomatch	tablier	-1	1	p	0.54443
339.9452	0.0	TABLIER	33	noun	list	3	13	nomatch	tablier	-1	1	p	0.54443
340.5449	0.0	+	33	noun	list	3	14	nomatch	tablier	-1	1	p	0.54443
340.4896	0.0	[response]	33	noun	list	3	15	nomatch	tablier	-1	1	p	0.54443
342.34409999999997	0.0	+	34	verb	list	1	1	nomatch	vieux	-1	1	p	0.57367
342.8938	0.2	bzgrds	34	verb	list	1	2	nomatch	vieux	-1	1	p	0.57367
343.0938	0.0	+	34	verb	list	1	3	nomatch	vieux	-1	1	p	0.57367
343.4936	0.2	sqt	34	verb	list	1	4	nomatch	vieux	-1	1	p	0.57367
343.6935	0.0	+	34	verb	list	1	5	nomatch	vieux	-1	1	p	0.57367
344.0933	0.2	wgh	34	verb	list	1	6	nomatch	vieux	-1	1	p	0.57367
344.2932	0.0	+	34	verb	list	1	7	nomatch	vieux	-1	1	p	0.57367
344.693	0.2	hmfc	34	verb	list	1	8	nomatch	vieux	-1	1	p	0.57367
344.8929	0.0	+	34	verb	list	1	9	nomatch	vieux	-1	1	p	0.57367
345.2928	0.2	galoper	34	verb	list	1	10	nomatch	vieux	-1	1	p	0.57367
345.4927	0.0	+	34	verb	list	1	11	nomatch	vieux	-1	1	p	0.57367
345.8925	0.0	+	34	verb	list	1	12	nomatch	vieux	-1	1	p	0.57367
347.8916	0.0	VIEUX	34	verb	list	1	13	nomatch	vieux	-1	1	p	0.57367
348.5247	0.0	+	34	verb	list	1	14	nomatch	vieux	-1	1	p	0.57367
348.4653	0.0	[response]	34	verb	list	1	15	nomatch	vieux	-1	1	p	0.57367
350.2906	0.0	+	35	verb	phrase	1	1	match	ainsi	5	1	y	0.38694
350.8403	0.2	rfl	35	verb	phrase	1	2	match	ainsi	5	1	y	0.38694
351.04019999999997	0.0	+	35	verb	phrase	1	3	match	ainsi	5	1	y	0.38694
351.44	0.2	xslt	35	verb	phrase	1	4	match	ainsi	5	1	y	0.38694
351.6399	0.0	+	35	verb	phrase	1	5	match	ainsi	5	1	y	0.38694
352.0398	0.2	sjkg	35	verb	phrase	1	6	match	ainsi	5	1	y	0.38694
352.23969999999997	0.0	+	35	verb	phrase	1	7	match	ainsi	5	1	y	0.38694
352.6395	0.2	xzkpvbl	35	verb	phrase	1	8	match	ainsi	5	1	y	0.38694
352.8394	0.0	+	35	verb	phrase	1	9	match	ainsi	5	1	y	0.38694
353.2392	0.2	ainsi	35	verb	phrase	1	10	match	ainsi	5	1	y	0.38694
353.43919999999997	0.0	+	35	verb	phrase	1	11	match	ainsi	5	1	y	0.38694
353.839	0.0	+	35	verb	phrase	1	12	match	ainsi	5	1	y	0.38694
355.8381	0.0	AINSI	35	verb	phrase	1	13	match	ainsi	5	1	y	0.38694
356.2879	0.0	+	35	verb	phrase	1	14	match	ainsi	5	1	y	0.38694
356.225	0.0	[response]	35	verb	phrase	1	15	match	ainsi	5	1	y	0.38694
358.237	0.0	+	36	noun	phrase	3	1	nomatch	rocher	-1	1	p	0.45169
358.78679999999997	0.2	wfcgbr	36	noun	phrase	3	2	nomatch	rocher	-1	1	p	0.45169
358.9867	0.0	+	36	noun	phrase	3	3	nomatch	rocher	-1	1	p	0.45169
359.3865	0.2	qmjf	36	noun	phrase	3	4	nomatch	rocher	-1	1	p	0.45169
359.58639999999997	0.0	+	36	noun	phrase	3	5	nomatch	rocher	-1	1	p	0.45169
359.9862	0.2	son	36	noun	phrase	3	6	nomatch	rocher	-1	1	p	0.45169
360.1861	0.0	+	36	noun	phrase	3	7	nomatch	rocher	-1	1	p	0.45169
360.586	0.2	beau	36	noun	phrase	3	8	nomatch	rocher	-1	1	p	0.45169
360.78589999999997	0.0	+	36	noun	phrase	3	9	nomatch	rocher	-1	1	p	0.45169
361.1857	0.2	boîtier	36	noun	phrase	3	10	nomatch	rocher	-1	1	p	0.45169
361.3856	0.0	+	36	noun	phrase	3	11	nomatch	rocher	-1	1	p	0.45169
361.7854	0.0	+	36	noun	phrase	3	12	nomatch	rocher	-1	1	p	0.45169
363.7845	0.0	ROCHER	36	noun	phrase	3	13	nomatch	rocher	-1	1	p	0.45169
364.301	0.0	+	36	noun	phrase	3	14	nomatch	rocher	-1	1	p	0.45169
364.2362	0.0	[response]	36	noun	phrase	3	15	nomatch	rocher	-1	1	p	0.45169
366.2001	0.0	+	37	noun	list	4	1	match	tôt	5	1	y	0.44579
366.74989999999997	0.2	zmk	37	noun	list	4	2	match	tôt	5	1	y	0.44579
366.9498	0.0	+	37	noun	list	4	3	match	tôt	5	1	y	0.44579
367.3496	0.2	sous	37	noun	list	4	4	match	tôt	5	1	y	0.44579
367.5495	0.0	+	37	noun	list	4	5	match	tôt	5	1	y	0.44579
367.9493	0.2	va	37	noun	list	4	6	match	tôt	5	1	y	0.44579
368.1493	0.0	+	37	noun	list	4	7	match	tôt	5	1	y	0.44579
368.5491	0.2	tablier	37	noun	list	4	8	match	tôt	5	1	y	0.44579
368.749	0.0	+	37	noun	list	4	9	match	tôt	5	1	y	0.44579
369.1488	0.2	tôt	37	noun	list	4	10	match	tôt	5	1	y	0.44579
369.3487	0.0	+	37	noun	list	4	11	match	tôt	5	1	y	0.44579
369.7485	0.0	+	37	noun	list	4	12	match	tôt	5	1	y	0.44579
371.7476	0.0	TÔT	37	noun	list	4	13	match	tôt	5	1	y	0.44579
372.24739999999997	0.0	+	37	noun	list	4	14	match	tôt	5	1	y	0.44579
372.1934	0.0	[response]	37	noun	list	4	15	match	tôt	5	1	y	0.44579
374.1466	0.0	+	38	noun	phrase	2	1	nomatch	plonger	-1	1	p	0.46008
374.6963	0.2	bnpscrg	38	noun	phrase	2	2	nomatch	plonger	-1	1	p	0.46008
374.8962	0.0	+	38	noun	phrase	2	3	nomatch	plonger	-1	1	p	0.46008
375.2961	0.2	jxrw	38	noun	phrase	2	4	nomatch	plonger	-1	1	p	0.46008
375.496	0.0	+	38	noun	phrase	2	5	nomatch	plonger	-1	1	p	0.46008
375.8958	0.2	wgh	38	noun	phrase	2	6	nomatch	plonger	-1	1	p	0.46008
376.0957	0.0	+	38	noun	phrase	2	7	nomatch	plonger	-1	1	p	0.46008
376.4955	0.2	grand	38	noun	phrase	2	8	nomatch	plonger	-1	1	p	0.46008
376.6954	0.0	+	38	noun	phrase	2	9	nomatch	plonger	-1	1	p	0.46008
377.0953	0.2	panier	38	noun	phrase	2	10	nomatch	plonger	-1	1	p	0.46008
377.2952	0.0	+	38	noun	phrase	2	11	nomatch	plonger	-1	1	p	0.46008
377.695	0.0	+	38	noun	phrase	2	12	nomatch	plonger	-1	1	p	0.46008
379.6941	0.0	PLONGER	38	noun	phrase	2	13	nomatch	plonger	-1	1	p	0.46008
380.2105	0.0	+	38	noun	phrase	2	14	nomatch	plonger	-1	1	p	0.46008
380.1542	0.0	[response]	38	noun	phrase	2	15	nomatch	plonger	-1	1	p	0.46008
382.093	0.0	+	39	noun	phrase	1	1	nomatch	luc	-1	1	p	0.61749
382.6428	0.2	whxblks	39	noun	phrase	1	2	nomatch	luc	-1	1	p	0.61749
382.8427	0.0	+	39	noun	phrase	1	3	nomatch	luc	-1	1	p	0.61749
383.2425	0.2	mwgt	39	noun	phrase	1	4	nomatch	luc	-1	1	p	0.61749
383.4424	0.0	+	39	noun	phrase	1	5	nomatch	luc	-1	1	p	0.61749
383.8423	0.2	wtrz	39	noun	phrase	1	6	nomatch	luc	-1	1	p	0.61749
384.0422	0.0	+	39	noun	phrase	1	7	nomatch	luc	-1	1	p	0.61749
384.442	0.2	tcxgm	39	noun	phrase	1	8	nomatch	luc	-1	1	p	0.61749
384.6419	0.0	+	39	noun	phrase	1	9	nomatch	luc	-1	1	p	0.61749
385.0417	0.2	cendrier	39	noun	phrase	1	10	nomatch	luc	-1	1	p	0.61749
385.2416	0.0	+	39	noun	phrase	1	11	nomatch	luc	-1	1	p	0.61749
385.6414	0.0	+	39	noun	phrase	1	12	nomatch	luc	-1	1	p	0.61749
387.6406	0.0	LUC	39	noun	phrase	1	13	nomatch	luc	-1	1	p	0.61749
388.3236	0.0	+	39	noun	phrase	1	14	nomatch	luc	-1	1	p	0.61749
388.2581	0.0	[response]	39	noun	phrase	1	15	nomatch	luc	-1	1	p	0.61749
390.0395	0.0	+	40	verb	list	2	1	nomatch	bleu	-1	1	p	0.41724
390.5892	0.2	rdpb	40	verb	list	2	2	nomatch	bleu	-1	1	p	0.41724
390.7891	0.0	+	40	verb	list	2	3	nomatch	bleu	-1	1	p	0.41724
391.189	0.2	xslt	40	verb	list	2	4	nomatch	bleu	-1	1	p	0.41724
391.3889	0.0	+	40	verb	list	2	5	nomatch	bleu	-1	1	p	0.41724
391.7887	0.2	wgh	40	verb	list	2	6	nomatch	bleu	-1	1	p	0.41724
391.9886	0.0	+	40	verb	list	2	7	nomatch	bleu	-1	1	p	0.41724
392.3884	0.2	chasser	40	verb	list	2	8	nomatch	bleu	-1	1	p	0.41724
392.5884	0.0	+	40	verb	list	2	9	nomatch	bleu	-1	1	p	0.41724
392.9887	0.2	rouge	40	verb	list	2	10	nomatch	bleu	-1	1	p	0.41724
393.1881	0.0	+	40	verb	list	2	11	nomatch	bleu	-1	1	p	0.41724
393.5879	0.0	+	40	verb	list	2	12	nomatch	bleu	-1	1	p	0.41724
395.587	0.0	BLEU	40	verb	list	2	13	nomatch	bleu	-1	1	p	0.41724
396.07009999999997	0.0	+	40	verb	list	2	14	nomatch	bleu	-1	1	p	0.41724
396.00419999999997	0.0	[response]	40	verb	list	2	15	nomatch	bleu	-1	1	p	0.41724
397.986	0.0	+	41	verb	list	3	1	match	leur	3	1	y	0.6365600000000001
398.5357	0.2	jmcdx	41	verb	list	3	2	match	leur	3	1	y	0.6365600000000001
398.7356	0.0	+	41	verb	list	3	3	match	leur	3	1	y	0.6365600000000001
399.1354	0.2	kcbt	41	verb	list	3	4	match	leur	3	1	y	0.6365600000000001
399.3353	0.0	+	41	verb	list	3	5	match	leur	3	1	y	0.6365600000000001
399.7352	0.2	leur	41	verb	list	3	6	match	leur	3	1	y	0.6365600000000001
399.9351	0.0	+	41	verb	list	3	7	match	leur	3	1	y	0.6365600000000001
400.3349	0.2	rouler	41	verb	list	3	8	match	leur	3	1	y	0.6365600000000001
400.5348	0.0	+	41	verb	list	3	9	match	leur	3	1	y	0.6365600000000001
400.9346	0.2	blanc	41	verb	list	3	10	match	leur	3	1	y	0.6365600000000001
401.1345	0.0	+	41	verb	list	3	11	match	leur	3	1	y	0.6365600000000001
401.5343	0.0	+	41	verb	list	3	12	match	leur	3	1	y	0.6365600000000001
403.5501	0.0	LEUR	41	verb	list	3	13	match	leur	3	1	y	0.6365600000000001
404.2498	0.0	+	41	verb	list	3	14	match	leur	3	1	y	0.6365600000000001
404.1867	0.0	[response]	41	verb	list	3	15	match	leur	3	1	y	0.6365600000000001
405.9491	0.0	+	42	verb	phrase	1	1	nomatch	ainsi	-1	1	p	0.4768200000000001
406.4988	0.2	vprs	42	verb	phrase	1	2	nomatch	ainsi	-1	1	p	0.4768200000000001
406.6987	0.0	+	42	verb	phrase	1	3	nomatch	ainsi	-1	1	p	0.4768200000000001
407.0985	0.2	xslt	42	verb	phrase	1	4	nomatch	ainsi	-1	1	p	0.4768200000000001
407.2987	0.0	+	42	verb	phrase	1	5	nomatch	ainsi	-1	1	p	0.4768200000000001
407.6983	0.2	dckl	42	verb	phrase	1	6	nomatch	ainsi	-1	1	p	0.4768200000000001
407.8982	0.0	+	42	verb	phrase	1	7	nomatch	ainsi	-1	1	p	0.4768200000000001
408.298	0.2	nrqmbjc	42	verb	phrase	1	8	nomatch	ainsi	-1	1	p	0.4768200000000001
408.4979	0.0	+	42	verb	phrase	1	9	nomatch	ainsi	-1	1	p	0.4768200000000001
408.8977	0.2	loin	42	verb	phrase	1	10	nomatch	ainsi	-1	1	p	0.4768200000000001
409.0977	0.0	+	42	verb	phrase	1	11	nomatch	ainsi	-1	1	p	0.4768200000000001
409.4975	0.0	+	42	verb	phrase	1	12	nomatch	ainsi	-1	1	p	0.4768200000000001
411.4966	0.0	AINSI	42	verb	phrase	1	13	nomatch	ainsi	-1	1	p	0.4768200000000001
412.0297	0.0	+	42	verb	phrase	1	14	nomatch	ainsi	-1	1	p	0.4768200000000001
411.9734	0.0	[response]	42	verb	phrase	1	15	nomatch	ainsi	-1	1	p	0.4768200000000001
413.89549999999997	0.0	+	43	noun	phrase	1	1	match	voilier	5	1	y	0.46107
414.4453	0.2	sqp	43	noun	phrase	1	2	match	voilier	5	1	y	0.46107
414.6452	0.0	+	43	noun	phrase	1	3	match	voilier	5	1	y	0.46107
415.045	0.2	pbxw	43	noun	phrase	1	4	match	voilier	5	1	y	0.46107
415.2449	0.0	+	43	noun	phrase	1	5	match	voilier	5	1	y	0.46107
415.6447	0.2	qtk	43	noun	phrase	1	6	match	voilier	5	1	y	0.46107
415.8446	0.0	+	43	noun	phrase	1	7	match	voilier	5	1	y	0.46107
416.2445	0.2	hcjsp	43	noun	phrase	1	8	match	voilier	5	1	y	0.46107
416.4444	0.0	+	43	noun	phrase	1	9	match	voilier	5	1	y	0.46107
416.8442	0.2	voilier	43	noun	phrase	1	10	match	voilier	5	1	y	0.46107
417.0441	0.0	+	43	noun	phrase	1	11	match	voilier	5	1	y	0.46107
417.4439	0.0	+	43	noun	phrase	1	12	match	voilier	5	1	y	0.46107
419.443	0.0	VOILIER	43	noun	phrase	1	13	match	voilier	5	1	y	0.46107
419.9595	0.0	+	43	noun	phrase	1	14	match	voilier	5	1	y	0.46107
419.90409999999997	0.0	[response]	43	noun	phrase	1	15	match	voilier	5	1	y	0.46107
421.842	0.0	+	44	noun	phrase	4	1	nomatch	grand	-1	1	p	0.64454
422.3917	0.2	hwd	44	noun	phrase	4	2	nomatch	grand	-1	1	p	0.64454
422.59159999999997	0.0	+	44	noun	phrase	4	3	nomatch	grand	-1	1	p	0.64454
422.9915	0.2	vers	44	noun	phrase	4	4	nomatch	grand	-1	1	p	0.64454
423.1914	0.0	+	44	noun	phrase	4	5	nomatch	grand	-1	1	p	0.64454
423.5912	0.2	leur	44	noun	phrase	4	6	nomatch	grand	-1	1	p	0.64454
423.7911	0.0	+	44	noun	phrase	4	7	nomatch	grand	-1	1	p	0.64454
424.1909	0.2	vieux	44	noun	phrase	4	8	nomatch	grand	-1	1	p	0.64454
424.3908	0.0	+	44	noun	phrase	4	9	nomatch	grand	-1	1	p	0.64454
424.7907	0.2	sablier	44	noun	phrase	4	10	nomatch	grand	-1	1	p	0.64454
424.9906	0.0	+	44	noun	phrase	4	11	nomatch	grand	-1	1	p	0.64454
425.3904	0.0	+	44	noun	phrase	4	12	nomatch	grand	-1	1	p	0.64454
427.3895	0.0	GRAND	44	noun	phrase	4	13	nomatch	grand	-1	1	p	0.64454
428.0892	0.0	+	44	noun	phrase	4	14	nomatch	grand	-1	1	p	0.64454
428.034	0.0	[response]	44	noun	phrase	4	15	nomatch	grand	-1	1	p	0.64454
429.7884	0.0	+	45	verb	list	1	1	nomatch	plonger	-1	1	p	0.49442
430.3382	0.2	hwvgx	45	verb	list	1	2	nomatch	plonger	-1	1	p	0.49442
430.5381	0.0	+	45	verb	list	1	3	nomatch	plonger	-1	1	p	0.49442
430.9379	0.2	xslt	45	verb	list	1	4	nomatch	plonger	-1	1	p	0.49442
431.13779999999997	0.0	+	45	verb	list	1	5	nomatch	plonger	-1	1	p	0.49442
431.5376	0.2	wgh	45	verb	list	1	6	nomatch	plonger	-1	1	p	0.49442
431.7375	0.0	+	45	verb	list	1	7	nomatch	plonger	-1	1	p	0.49442
432.1374	0.2	nxbt	45	verb	list	1	8	nomatch	plonger	-1	1	p	0.49442
432.33729999999997	0.0	+	45	verb	list	1	9	nomatch	plonger	-1	1	p	0.49442
432.7371	0.2	patiner	45	verb	list	1	10	nomatch	plonger	-1	1	p	0.49442
432.937	0.0	+	45	verb	list	1	11	nomatch	plonger	-1	1	p	0.49442
433.3368	0.0	+	45	verb	list	1	12	nomatch	plonger	-1	1	p	0.49442
435.3359	0.0	PLONGER	45	verb	list	1	13	nomatch	plonger	-1	1	p	0.49442
435.8857	0.0	+	45	verb	list	1	14	nomatch	plonger	-1	1	p	0.49442
435.8304	0.0	[response]	45	verb	list	1	15	nomatch	plonger	-1	1	p	0.49442
437.7349	0.0	+	46	noun	phrase	1	1	nomatch	va	-1	1	p	0.93252
438.2846	0.2	thm	46	noun	phrase	1	2	nomatch	va	-1	1	p	0.93252
438.48449999999997	0.0	+	46	noun	phrase	1	3	nomatch	va	-1	1	p	0.93252
438.88439999999997	0.2	jxrw	46	noun	phrase	1	4	nomatch	va	-1	1	p	0.93252
439.0843	0.0	+	46	noun	phrase	1	5	nomatch	va	-1	1	p	0.93252
439.4841	0.2	qtk	46	noun	phrase	1	6	nomatch	va	-1	1	p	0.93252
439.68399999999997	0.0	+	46	noun	phrase	1	7	nomatch	va	-1	1	p	0.93252
440.0838	0.2	tcxgm	46	noun	phrase	1	8	nomatch	va	-1	1	p	0.93252
440.2842	0.0	+	46	noun	phrase	1	9	nomatch	va	-1	1	p	0.93252
440.6836	0.2	rocher	46	noun	phrase	1	10	nomatch	va	-1	1	p	0.93252
440.9001	0.0	+	46	noun	phrase	1	11	nomatch	va	-1	1	p	0.93252
441.3	0.0	+	46	noun	phrase	1	12	nomatch	va	-1	1	p	0.93252
443.2991	0.0	VA	46	noun	phrase	1	13	nomatch	va	-1	1	p	0.93252
444.2986	0.0	+	46	noun	phrase	1	14	nomatch	va	-1	1	p	0.93252
444.2316	0.0	[response]	46	noun	phrase	1	15	nomatch	va	-1	1	p	0.93252
445.698	0.0	+	47	verb	phrase	2	1	match	rouler	5	1	y	0.46267
446.2478	0.2	nbwspqm	47	verb	phrase	2	2	match	rouler	5	1	y	0.46267
446.4477	0.0	+	47	verb	phrase	2	3	match	rouler	5	1	y	0.46267
446.84749999999997	0.2	pmch	47	verb	phrase	2	4	match	rouler	5	1	y	0.46267
447.0474	0.0	+	47	verb	phrase	2	5	match	rouler	5	1	y	0.46267
447.4472	0.2	dckl	47	verb	phrase	2	6	match	rouler	5	1	y	0.46267
447.6471	0.0	+	47	verb	phrase	2	7	match	rouler	5	1	y	0.46267
448.04699999999997	0.2	beaucoup	47	verb	phrase	2	8	match	rouler	5	1	y	0.46267
448.2469	0.0	+	47	verb	phrase	2	9	match	rouler	5	1	y	0.46267
448.6467	0.2	rouler	47	verb	phrase	2	10	match	rouler	5	1	y	0.46267
448.8466	0.0	+	47	verb	phrase	2	11	match	rouler	5	1	y	0.46267
449.2464	0.0	+	47	verb	phrase	2	12	match	rouler	5	1	y	0.46267
451.2455	0.0	ROULER	47	verb	phrase	2	13	match	rouler	5	1	y	0.46267
451.762	0.0	+	47	verb	phrase	2	14	match	rouler	5	1	y	0.46267
451.7082	0.0	[response]	47	verb	phrase	2	15	match	rouler	5	1	y	0.46267
453.6444	0.0	+	48	verb	phrase	1	1	nomatch	ainsi	-1	1	p	0.47197000000000006
454.1942	0.2	zhdxtw	48	verb	phrase	1	2	nomatch	ainsi	-1	1	p	0.47197000000000006
454.3941	0.0	+	48	verb	phrase	1	3	nomatch	ainsi	-1	1	p	0.47197000000000006
454.7939	0.2	sqt	48	verb	phrase	1	4	nomatch	ainsi	-1	1	p	0.47197000000000006
454.9938	0.0	+	48	verb	phrase	1	5	nomatch	ainsi	-1	1	p	0.47197000000000006
455.3937	0.2	sjkg	48	verb	phrase	1	6	nomatch	ainsi	-1	1	p	0.47197000000000006
455.5936	0.0	+	48	verb	phrase	1	7	nomatch	ainsi	-1	1	p	0.47197000000000006
455.9934	0.2	kwfjqt	48	verb	phrase	1	8	nomatch	ainsi	-1	1	p	0.47197000000000006
456.1933	0.0	+	48	verb	phrase	1	9	nomatch	ainsi	-1	1	p	0.47197000000000006
456.5931	0.2	tôt	48	verb	phrase	1	10	nomatch	ainsi	-1	1	p	0.47197000000000006
456.793	0.0	+	48	verb	phrase	1	11	nomatch	ainsi	-1	1	p	0.47197000000000006
457.1929	0.0	+	48	verb	phrase	1	12	nomatch	ainsi	-1	1	p	0.47197000000000006
459.19199999999995	0.0	AINSI	48	verb	phrase	1	13	nomatch	ainsi	-1	1	p	0.47197000000000006
459.72509999999994	0.0	+	48	verb	phrase	1	14	nomatch	ainsi	-1	1	p	0.47197000000000006
459.66389999999996	0.0	[response]	48	verb	phrase	1	15	nomatch	ainsi	-1	1	p	0.47197000000000006
461.5909	0.0	+	49	verb	list	1	1	match	nager	5	1	y	0.4163
462.1407	0.2	txdg	49	verb	list	1	2	match	nager	5	1	y	0.4163
462.34060000000005	0.0	+	49	verb	list	1	3	match	nager	5	1	y	0.4163
462.74039999999997	0.2	mwgt	49	verb	list	1	4	match	nager	5	1	y	0.4163
462.94030000000004	0.0	+	49	verb	list	1	5	match	nager	5	1	y	0.4163
463.34009999999995	0.2	gh	49	verb	list	1	6	match	nager	5	1	y	0.4163
463.54	0.0	+	49	verb	list	1	7	match	nager	5	1	y	0.4163
463.9399	0.2	zbqrd	49	verb	list	1	8	match	nager	5	1	y	0.4163
464.1398	0.0	+	49	verb	list	1	9	match	nager	5	1	y	0.4163
464.5396	0.2	nager	49	verb	list	1	10	match	nager	5	1	y	0.4163
464.73949999999996	0.0	+	49	verb	list	1	11	match	nager	5	1	y	0.4163
465.1393	0.0	+	49	verb	list	1	12	match	nager	5	1	y	0.4163
467.1384	0.0	NAGER	49	verb	list	1	13	match	nager	5	1	y	0.4163
467.6215	0.0	+	49	verb	list	1	14	match	nager	5	1	y	0.4163
467.55469999999997	0.0	[response]	49	verb	list	1	15	match	nager	5	1	y	0.4163
485.5469	0.0	+	50	verb	list	4	1	nomatch	chasser	-1	1	p	0.74512
486.0966	0.2	shmxblf	50	verb	list	4	2	nomatch	chasser	-1	1	p	0.74512
486.29659999999996	0.0	+	50	verb	list	4	3	nomatch	chasser	-1	1	p	0.74512
486.6964	0.2	marc	50	verb	list	4	4	nomatch	chasser	-1	1	p	0.74512
486.89629999999994	0.0	+	50	verb	list	4	5	nomatch	chasser	-1	1	p	0.74512
487.29609999999997	0.2	leur	50	verb	list	4	6	nomatch	chasser	-1	1	p	0.74512
487.49600000000004	0.0	+	50	verb	list	4	7	nomatch	chasser	-1	1	p	0.74512
487.89579999999995	0.2	plonger	50	verb	list	4	8	nomatch	chasser	-1	1	p	0.74512
488.0957	0.0	+	50	verb	list	4	9	nomatch	chasser	-1	1	p	0.74512
488.4956	0.2	vert	50	verb	list	4	10	nomatch	chasser	-1	1	p	0.74512
488.6955	0.0	+	50	verb	list	4	11	nomatch	chasser	-1	1	p	0.74512
489.0953	0.0	+	50	verb	list	4	12	nomatch	chasser	-1	1	p	0.74512
491.0944	0.0	CHASSER	50	verb	list	4	13	nomatch	chasser	-1	1	p	0.74512
491.89410000000004	0.0	+	50	verb	list	4	14	nomatch	chasser	-1	1	p	0.74512
491.8395	0.0	[response]	50	verb	list	4	15	nomatch	chasser	-1	1	p	0.74512
493.49330000000003	0.0	+	51	noun	list	1	1	nomatch	rocher	-1	1	p	0.74802
494.04310000000004	0.2	hwklpdq	51	noun	list	1	2	nomatch	rocher	-1	1	p	0.74802
494.243	0.0	+	51	noun	list	1	3	nomatch	rocher	-1	1	p	0.74802
494.6428	0.2	pbxw	51	noun	list	1	4	nomatch	rocher	-1	1	p	0.74802
494.8427	0.0	+	51	noun	list	1	5	nomatch	rocher	-1	1	p	0.74802
495.2426	0.2	gh	51	noun	list	1	6	nomatch	rocher	-1	1	p	0.74802
495.44250000000005	0.0	+	51	noun	list	1	7	nomatch	rocher	-1	1	p	0.74802
495.84229999999997	0.2	lmfqszk	51	noun	list	1	8	nomatch	rocher	-1	1	p	0.74802
496.04220000000004	0.0	+	51	noun	list	1	9	nomatch	rocher	-1	1	p	0.74802
496.44199999999995	0.2	tôt	51	noun	list	1	10	nomatch	rocher	-1	1	p	0.74802
496.6419	0.0	+	51	noun	list	1	11	nomatch	rocher	-1	1	p	0.74802
497.0418	0.0	+	51	noun	list	1	12	nomatch	rocher	-1	1	p	0.74802
499.0409	0.0	ROCHER	51	noun	list	1	13	nomatch	rocher	-1	1	p	0.74802
499.84049999999996	0.0	+	51	noun	list	1	14	nomatch	rocher	-1	1	p	0.74802
499.78889999999996	0.0	[response]	51	noun	list	1	15	nomatch	rocher	-1	1	p	0.74802
501.43980000000005	0.0	+	52	noun	phrase	4	1	match	casier	5	1	y	0.74279
501.98949999999996	0.2	sxcnm	52	noun	phrase	4	2	match	casier	5	1	y	0.74279
502.1895	0.0	+	52	noun	phrase	4	3	match	casier	5	1	y	0.74279
502.58930000000004	0.2	dans	52	noun	phrase	4	4	match	casier	5	1	y	0.74279
502.7892	0.0	+	52	noun	phrase	4	5	match	casier	5	1	y	0.74279
503.189	0.2	leur	52	noun	phrase	4	6	match	casier	5	1	y	0.74279
503.3889	0.0	+	52	noun	phrase	4	7	match	casier	5	1	y	0.74279
503.7887	0.2	grand	52	noun	phrase	4	8	match	casier	5	1	y	0.74279
503.9888	0.0	+	52	noun	phrase	4	9	match	casier	5	1	y	0.74279
504.38849999999996	0.2	casier	52	noun	phrase	4	10	match	casier	5	1	y	0.74279
504.58840000000004	0.0	+	52	noun	phrase	4	11	match	casier	5	1	y	0.74279
504.98819999999995	0.0	+	52	noun	phrase	4	12	match	casier	5	1	y	0.74279
506.98729999999995	0.0	CASIER	52	noun	phrase	4	13	match	casier	5	1	y	0.74279
507.787	0.0	+	52	noun	phrase	4	14	match	casier	5	1	y	0.74279
507.73010000000005	0.0	[response]	52	noun	phrase	4	15	match	casier	5	1	y	0.74279
509.3862	0.0	+	53	verb	list	4	1	match	rouler	4	1	y	0.90606
509.936	0.2	nbhjsw	53	verb	list	4	2	match	rouler	4	1	y	0.90606
510.13590000000005	0.0	+	53	verb	list	4	3	match	rouler	4	1	y	0.90606
510.53569999999996	0.2	yves	53	verb	list	4	4	match	rouler	4	1	y	0.90606
510.73560000000003	0.0	+	53	verb	list	4	5	match	rouler	4	1	y	0.90606
511.13550000000004	0.2	mon	53	verb	list	4	6	match	rouler	4	1	y	0.90606
511.3354	0.0	+	53	verb	list	4	7	match	rouler	4	1	y	0.90606
511.7352	0.2	rouler	53	verb	list	4	8	match	rouler	4	1	y	0.90606
511.9351	0.0	+	53	verb	list	4	9	match	rouler	4	1	y	0.90606
512.3349000000001	0.2	blanc	53	verb	list	4	10	match	rouler	4	1	y	0.90606
512.5347999999999	0.0	+	53	verb	list	4	11	match	rouler	4	1	y	0.90606
512.9347	0.0	+	53	verb	list	4	12	match	rouler	4	1	y	0.90606
514.9338	0.0	ROULER	53	verb	list	4	13	match	rouler	4	1	y	0.90606
515.9000000000001	0.0	+	53	verb	list	4	14	match	rouler	4	1	y	0.90606
515.8398	0.0	[response]	53	verb	list	4	15	match	rouler	4	1	y	0.90606
517.3494000000001	0.0	+	54	verb	phrase	1	1	match	ainsi	5	1	y	0.56103
517.8991000000001	0.2	htlx	54	verb	phrase	1	2	match	ainsi	5	1	y	0.56103
518.0989999999999	0.0	+	54	verb	phrase	1	3	match	ainsi	5	1	y	0.56103
518.4989	0.2	kcbt	54	verb	phrase	1	4	match	ainsi	5	1	y	0.56103
518.6987999999999	0.0	+	54	verb	phrase	1	5	match	ainsi	5	1	y	0.56103
519.0986	0.2	gh	54	verb	phrase	1	6	match	ainsi	5	1	y	0.56103
519.2987	0.0	+	54	verb	phrase	1	7	match	ainsi	5	1	y	0.56103
519.6983	0.2	crjsltw	54	verb	phrase	1	8	match	ainsi	5	1	y	0.56103
519.8982000000001	0.0	+	54	verb	phrase	1	9	match	ainsi	5	1	y	0.56103
520.298	0.2	ainsi	54	verb	phrase	1	10	match	ainsi	5	1	y	0.56103
520.498	0.0	+	54	verb	phrase	1	11	match	ainsi	5	1	y	0.56103
520.8978	0.0	+	54	verb	phrase	1	12	match	ainsi	5	1	y	0.56103
522.8969	0.0	AINSI	54	verb	phrase	1	13	match	ainsi	5	1	y	0.56103
523.5133000000001	0.0	+	54	verb	phrase	1	14	match	ainsi	5	1	y	0.56103
523.4579000000001	0.0	[response]	54	verb	phrase	1	15	match	ainsi	5	1	y	0.56103
525.2958000000001	0.0	+	55	noun	phrase	2	1	nomatch	leur	-1	1	p	0.56861
525.8456000000001	0.2	sdcrg	55	noun	phrase	2	2	nomatch	leur	-1	1	p	0.56861
526.0455	0.0	+	55	noun	phrase	2	3	nomatch	leur	-1	1	p	0.56861
526.4453000000001	0.2	jxrw	55	noun	phrase	2	4	nomatch	leur	-1	1	p	0.56861
526.6451999999999	0.0	+	55	noun	phrase	2	5	nomatch	leur	-1	1	p	0.56861
527.0450000000001	0.2	qtk	55	noun	phrase	2	6	nomatch	leur	-1	1	p	0.56861
527.2449999999999	0.0	+	55	noun	phrase	2	7	nomatch	leur	-1	1	p	0.56861
527.6448	0.2	casier	55	noun	phrase	2	8	nomatch	leur	-1	1	p	0.56861
527.8447000000001	0.0	+	55	noun	phrase	2	9	nomatch	leur	-1	1	p	0.56861
528.2445	0.2	vert	55	noun	phrase	2	10	nomatch	leur	-1	1	p	0.56861
528.4444000000001	0.0	+	55	noun	phrase	2	11	nomatch	leur	-1	1	p	0.56861
528.8442	0.0	+	55	noun	phrase	2	12	nomatch	leur	-1	1	p	0.56861
530.8433	0.0	LEUR	55	noun	phrase	2	13	nomatch	leur	-1	1	p	0.56861
531.4764	0.0	+	55	noun	phrase	2	14	nomatch	leur	-1	1	p	0.56861
531.412	0.0	[response]	55	noun	phrase	2	15	nomatch	leur	-1	1	p	0.56861
533.2422999999999	0.0	+	56	noun	list	2	1	nomatch	pour	-1	1	p	0.7289800000000001
533.7919999999999	0.2	qcwj	56	noun	list	2	2	nomatch	pour	-1	1	p	0.7289800000000001
533.9919	0.0	+	56	noun	list	2	3	nomatch	pour	-1	1	p	0.7289800000000001
534.3918000000001	0.2	pbxw	56	noun	list	2	4	nomatch	pour	-1	1	p	0.7289800000000001
534.5917	0.0	+	56	noun	list	2	5	nomatch	pour	-1	1	p	0.7289800000000001
534.9915000000001	0.2	gh	56	noun	list	2	6	nomatch	pour	-1	1	p	0.7289800000000001
535.1913999999999	0.0	+	56	noun	list	2	7	nomatch	pour	-1	1	p	0.7289800000000001
535.5912000000001	0.2	boîtier	56	noun	list	2	8	nomatch	pour	-1	1	p	0.7289800000000001
535.7910999999999	0.0	+	56	noun	list	2	9	nomatch	pour	-1	1	p	0.7289800000000001
536.191	0.2	loin	56	noun	list	2	10	nomatch	pour	-1	1	p	0.7289800000000001
536.3909000000001	0.0	+	56	noun	list	2	11	nomatch	pour	-1	1	p	0.7289800000000001
536.7907	0.0	+	56	noun	list	2	12	nomatch	pour	-1	1	p	0.7289800000000001
538.7898	0.0	POUR	56	noun	list	2	13	nomatch	pour	-1	1	p	0.7289800000000001
539.5727999999999	0.0	+	56	noun	list	2	14	nomatch	pour	-1	1	p	0.7289800000000001
539.5188	0.0	[response]	56	noun	list	2	15	nomatch	pour	-1	1	p	0.7289800000000001
541.1886999999999	0.0	+	57	verb	phrase	4	1	match	adam	2	1	y	0.81462
541.7384999999999	0.2	wkmdhb	57	verb	phrase	4	2	match	adam	2	1	y	0.81462
541.9384	0.0	+	57	verb	phrase	4	3	match	adam	2	1	y	0.81462
542.3381999999999	0.2	adam	57	verb	phrase	4	4	match	adam	2	1	y	0.81462
542.5381	0.0	+	57	verb	phrase	4	5	match	adam	2	1	y	0.81462
542.9378999999999	0.2	doit	57	verb	phrase	4	6	match	adam	2	1	y	0.81462
543.1379	0.0	+	57	verb	phrase	4	7	match	adam	2	1	y	0.81462
543.5377000000001	0.2	voyager	57	verb	phrase	4	8	match	adam	2	1	y	0.81462
543.7375999999999	0.0	+	57	verb	phrase	4	9	match	adam	2	1	y	0.81462
544.1374000000001	0.2	vite	57	verb	phrase	4	10	match	adam	2	1	y	0.81462
544.3372999999999	0.0	+	57	verb	phrase	4	11	match	adam	2	1	y	0.81462
544.7371	0.0	+	57	verb	phrase	4	12	match	adam	2	1	y	0.81462
546.7363	0.0	ADAM	57	verb	phrase	4	13	match	adam	2	1	y	0.81462
547.6025999999999	0.0	+	57	verb	phrase	4	14	match	adam	2	1	y	0.81462
547.5509	0.0	[response]	57	verb	phrase	4	15	match	adam	2	1	y	0.81462
557.1483000000001	0.0	+	58	verb	list	1	1	nomatch	chasser	-1	1	p	0.49352000000000007
557.6980000000001	0.2	jwbcp	58	verb	list	1	2	nomatch	chasser	-1	1	p	0.49352000000000007
557.8978999999999	0.0	+	58	verb	list	1	3	nomatch	chasser	-1	1	p	0.49352000000000007
558.2978	0.2	dglq	58	verb	list	1	4	nomatch	chasser	-1	1	p	0.49352000000000007
558.4976999999999	0.0	+	58	verb	list	1	5	nomatch	chasser	-1	1	p	0.49352000000000007
558.8975	0.2	gh	58	verb	list	1	6	nomatch	chasser	-1	1	p	0.49352000000000007
559.0974000000001	0.0	+	58	verb	list	1	7	nomatch	chasser	-1	1	p	0.49352000000000007
559.4972	0.2	gstx	58	verb	list	1	8	nomatch	chasser	-1	1	p	0.49352000000000007
559.6971000000001	0.0	+	58	verb	list	1	9	nomatch	chasser	-1	1	p	0.49352000000000007
560.097	0.2	plonger	58	verb	list	1	10	nomatch	chasser	-1	1	p	0.49352000000000007
560.2969	0.0	+	58	verb	list	1	11	nomatch	chasser	-1	1	p	0.49352000000000007
560.6967	0.0	+	58	verb	list	1	12	nomatch	chasser	-1	1	p	0.49352000000000007
562.6958	0.0	CHASSER	58	verb	list	1	13	nomatch	chasser	-1	1	p	0.49352000000000007
563.2456	0.0	+	58	verb	list	1	14	nomatch	chasser	-1	1	p	0.49352000000000007
563.1893	0.0	[response]	58	verb	list	1	15	nomatch	chasser	-1	1	p	0.49352000000000007
565.0947000000001	0.0	+	59	noun	list	1	1	match	vite	5	1	y	0.36358000000000007
565.6445000000001	0.2	cxdn	59	noun	list	1	2	match	vite	5	1	y	0.36358000000000007
565.8444	0.0	+	59	noun	list	1	3	match	vite	5	1	y	0.36358000000000007
566.2442000000001	0.2	qmjf	59	noun	list	1	4	match	vite	5	1	y	0.36358000000000007
566.4440999999999	0.0	+	59	noun	list	1	5	match	vite	5	1	y	0.36358000000000007
566.844	0.2	dckl	59	noun	list	1	6	match	vite	5	1	y	0.36358000000000007
567.0438999999999	0.0	+	59	noun	list	1	7	match	vite	5	1	y	0.36358000000000007
567.4437	0.2	bkmphj	59	noun	list	1	8	match	vite	5	1	y	0.36358000000000007
567.6436000000001	0.0	+	59	noun	list	1	9	match	vite	5	1	y	0.36358000000000007
568.0434	0.2	vite	59	noun	list	1	10	match	vite	5	1	y	0.36358000000000007
568.2433000000001	0.0	+	59	noun	list	1	11	match	vite	5	1	y	0.36358000000000007
568.6432	0.0	+	59	noun	list	1	12	match	vite	5	1	y	0.36358000000000007
570.6423	0.0	VITE	59	noun	list	1	13	match	vite	5	1	y	0.36358000000000007
571.0587	0.0	+	59	noun	list	1	14	match	vite	5	1	y	0.36358000000000007
571.0058000000001	0.0	[response]	59	noun	list	1	15	match	vite	5	1	y	0.36358000000000007
581.0375999999999	0.0	+	60	verb	phrase	3	1	nomatch	vert	-1	1	p	0.71191
581.5873999999999	0.2	vswjb	60	verb	phrase	3	2	nomatch	vert	-1	1	p	0.71191
581.7873	0.0	+	60	verb	phrase	3	3	nomatch	vert	-1	1	p	0.71191
582.1871000000001	0.2	pmch	60	verb	phrase	3	4	nomatch	vert	-1	1	p	0.71191
582.387	0.0	+	60	verb	phrase	3	5	nomatch	vert	-1	1	p	0.71191
582.7868000000001	0.2	peut	60	verb	phrase	3	6	nomatch	vert	-1	1	p	0.71191
582.9867999999999	0.0	+	60	verb	phrase	3	7	nomatch	vert	-1	1	p	0.71191
583.3866	0.2	trop	60	verb	phrase	3	8	nomatch	vert	-1	1	p	0.71191
583.5864999999999	0.0	+	60	verb	phrase	3	9	nomatch	vert	-1	1	p	0.71191
583.9863	0.2	rouler	60	verb	phrase	3	10	nomatch	vert	-1	1	p	0.71191
584.1862000000001	0.0	+	60	verb	phrase	3	11	nomatch	vert	-1	1	p	0.71191
584.5861	0.0	+	60	verb	phrase	3	12	nomatch	vert	-1	1	p	0.71191
586.5851	0.0	VERT	60	verb	phrase	3	13	nomatch	vert	-1	1	p	0.71191
587.3515	0.0	+	60	verb	phrase	3	14	nomatch	vert	-1	1	p	0.71191
587.2971	0.0	[response]	60	verb	phrase	3	15	nomatch	vert	-1	1	p	0.71191
588.9840999999999	0.0	+	61	verb	phrase	1	1	nomatch	va	-1	1	p	0.59476
589.5337999999999	0.2	mnqgwvd	61	verb	phrase	1	2	nomatch	va	-1	1	p	0.59476
589.7337	0.0	+	61	verb	phrase	1	3	nomatch	va	-1	1	p	0.59476
590.1335999999999	0.2	xslt	61	verb	phrase	1	4	nomatch	va	-1	1	p	0.59476
590.3335999999999	0.0	+	61	verb	phrase	1	5	nomatch	va	-1	1	p	0.59476
590.7499	0.2	sjkg	61	verb	phrase	1	6	nomatch	va	-1	1	p	0.59476
590.9499000000001	0.0	+	61	verb	phrase	1	7	nomatch	va	-1	1	p	0.59476
591.3497	0.2	crjsltw	61	verb	phrase	1	8	nomatch	va	-1	1	p	0.59476
591.5496	0.0	+	61	verb	phrase	1	9	nomatch	va	-1	1	p	0.59476
591.9494	0.2	beaucoup	61	verb	phrase	1	10	nomatch	va	-1	1	p	0.59476
592.1493	0.0	+	61	verb	phrase	1	11	nomatch	va	-1	1	p	0.59476
592.5491999999999	0.0	+	61	verb	phrase	1	12	nomatch	va	-1	1	p	0.59476
594.5482999999999	0.0	VA	61	verb	phrase	1	13	nomatch	va	-1	1	p	0.59476
595.1980000000001	0.0	+	61	verb	phrase	1	14	nomatch	va	-1	1	p	0.59476
595.143	0.0	[response]	61	verb	phrase	1	15	nomatch	va	-1	1	p	0.59476
596.9472000000001	0.0	+	62	noun	list	3	1	nomatch	casier	-1	1	p	0.4181
597.4969000000001	0.2	kcghrxw	62	noun	list	3	2	nomatch	casier	-1	1	p	0.4181
597.6968999999999	0.0	+	62	noun	list	3	3	nomatch	casier	-1	1	p	0.4181
598.0967	0.2	sqt	62	noun	list	3	4	nomatch	casier	-1	1	p	0.4181
598.2965999999999	0.0	+	62	noun	list	3	5	nomatch	casier	-1	1	p	0.4181
598.6964	0.2	leur	62	noun	list	3	6	nomatch	casier	-1	1	p	0.4181
598.8962999999999	0.0	+	62	noun	list	3	7	nomatch	casier	-1	1	p	0.4181
599.2962	0.2	trop	62	noun	list	3	8	nomatch	casier	-1	1	p	0.4181
599.4961000000001	0.0	+	62	noun	list	3	9	nomatch	casier	-1	1	p	0.4181
599.8959	0.2	panier	62	noun	list	3	10	nomatch	casier	-1	1	p	0.4181
600.0958	0.0	+	62	noun	list	3	11	nomatch	casier	-1	1	p	0.4181
600.4956	0.0	+	62	noun	list	3	12	nomatch	casier	-1	1	p	0.4181
602.4947	0.0	CASIER	62	noun	list	3	13	nomatch	casier	-1	1	p	0.4181
602.9777999999999	0.0	+	62	noun	list	3	14	nomatch	casier	-1	1	p	0.4181
602.9128000000001	0.0	[response]	62	noun	list	3	15	nomatch	casier	-1	1	p	0.4181
604.8937000000001	0.0	+	63	verb	phrase	2	1	match	tôt	5	1	y	0.39473
605.4433999999999	0.2	cbtvfg	63	verb	phrase	2	2	match	tôt	5	1	y	0.39473
605.6433	0.0	+	63	verb	phrase	2	3	match	tôt	5	1	y	0.39473
606.0431000000001	0.2	xslt	63	verb	phrase	2	4	match	tôt	5	1	y	0.39473
606.2430999999999	0.0	+	63	verb	phrase	2	5	match	tôt	5	1	y	0.39473
606.6429	0.2	gh	63	verb	phrase	2	6	match	tôt	5	1	y	0.39473
606.8427999999999	0.0	+	63	verb	phrase	2	7	match	tôt	5	1	y	0.39473
607.2426	0.2	rouler	63	verb	phrase	2	8	match	tôt	5	1	y	0.39473
607.4425000000001	0.0	+	63	verb	phrase	2	9	match	tôt	5	1	y	0.39473
607.8423	0.2	tôt	63	verb	phrase	2	10	match	tôt	5	1	y	0.39473
608.0422000000001	0.0	+	63	verb	phrase	2	11	match	tôt	5	1	y	0.39473
608.4421	0.0	+	63	verb	phrase	2	12	match	tôt	5	1	y	0.39473
610.4412	0.0	TÔT	63	verb	phrase	2	13	match	tôt	5	1	y	0.39473
610.8910000000001	0.0	+	63	verb	phrase	2	14	match	tôt	5	1	y	0.39473
610.8359	0.0	[response]	63	verb	phrase	2	15	match	tôt	5	1	y	0.39473
620.8364999999999	0.0	+	64	verb	phrase	3	1	nomatch	va	-1	1	p	0.5339900000000001
621.3862999999999	0.2	djwf	64	verb	phrase	3	2	nomatch	va	-1	1	p	0.5339900000000001
621.5862	0.0	+	64	verb	phrase	3	3	nomatch	va	-1	1	p	0.5339900000000001
621.9860000000001	0.2	zhgv	64	verb	phrase	3	4	nomatch	va	-1	1	p	0.5339900000000001
622.1859999999999	0.0	+	64	verb	phrase	3	5	nomatch	va	-1	1	p	0.5339900000000001
622.5858000000001	0.2	doit	64	verb	phrase	3	6	nomatch	va	-1	1	p	0.5339900000000001
622.7856999999999	0.0	+	64	verb	phrase	3	7	nomatch	va	-1	1	p	0.5339900000000001
623.1855	0.2	plus	64	verb	phrase	3	8	nomatch	va	-1	1	p	0.5339900000000001
623.3853999999999	0.0	+	64	verb	phrase	3	9	nomatch	va	-1	1	p	0.5339900000000001
623.7852	0.2	galoper	64	verb	phrase	3	10	nomatch	va	-1	1	p	0.5339900000000001
623.9851000000001	0.0	+	64	verb	phrase	3	11	nomatch	va	-1	1	p	0.5339900000000001
624.3849	0.0	+	64	verb	phrase	3	12	nomatch	va	-1	1	p	0.5339900000000001
626.3841	0.0	VA	64	verb	phrase	3	13	nomatch	va	-1	1	p	0.5339900000000001
626.9838	0.0	+	64	verb	phrase	3	14	nomatch	va	-1	1	p	0.5339900000000001
626.9181000000001	0.0	[response]	64	verb	phrase	3	15	nomatch	va	-1	1	p	0.5339900000000001
628.7997	0.0	+	65	verb	phrase	2	1	match	patiner	4	1	y	0.7039
629.3494000000001	0.2	lwk	65	verb	phrase	2	2	match	patiner	4	1	y	0.7039
629.5492999999999	0.0	+	65	verb	phrase	2	3	match	patiner	4	1	y	0.7039
629.9491	0.2	xgjw	65	verb	phrase	2	4	match	patiner	4	1	y	0.7039
630.1491000000001	0.0	+	65	verb	phrase	2	5	match	patiner	4	1	y	0.7039
630.5489	0.2	sjkg	65	verb	phrase	2	6	match	patiner	4	1	y	0.7039
630.7488000000001	0.0	+	65	verb	phrase	2	7	match	patiner	4	1	y	0.7039
631.1486	0.2	patiner	65	verb	phrase	2	8	match	patiner	4	1	y	0.7039
631.3485000000001	0.0	+	65	verb	phrase	2	9	match	patiner	4	1	y	0.7039
631.7483	0.2	vite	65	verb	phrase	2	10	match	patiner	4	1	y	0.7039
631.9483	0.0	+	65	verb	phrase	2	11	match	patiner	4	1	y	0.7039
632.3480999999999	0.0	+	65	verb	phrase	2	12	match	patiner	4	1	y	0.7039
634.3471999999999	0.0	PATINER	65	verb	phrase	2	13	match	patiner	4	1	y	0.7039
635.1134999999999	0.0	+	65	verb	phrase	2	14	match	patiner	4	1	y	0.7039
635.0510999999999	0.0	[response]	65	verb	phrase	2	15	match	patiner	4	1	y	0.7039
636.7461000000001	0.0	+	66	verb	list	3	1	nomatch	blanc	-1	1	p	0.45384
637.2959000000001	0.2	fmn	66	verb	list	3	2	nomatch	blanc	-1	1	p	0.45384
637.4957999999999	0.0	+	66	verb	list	3	3	nomatch	blanc	-1	1	p	0.45384
637.8956000000001	0.2	dglq	66	verb	list	3	4	nomatch	blanc	-1	1	p	0.45384
638.0954999999999	0.0	+	66	verb	list	3	5	nomatch	blanc	-1	1	p	0.45384
638.4953	0.2	va	66	verb	list	3	6	nomatch	blanc	-1	1	p	0.45384
638.6951999999999	0.0	+	66	verb	list	3	7	nomatch	blanc	-1	1	p	0.45384
639.0951	0.2	vieux	66	verb	list	3	8	nomatch	blanc	-1	1	p	0.45384
639.2950000000001	0.0	+	66	verb	list	3	9	nomatch	blanc	-1	1	p	0.45384
639.6948	0.2	voyager	66	verb	list	3	10	nomatch	blanc	-1	1	p	0.45384
639.8947000000001	0.0	+	66	verb	list	3	11	nomatch	blanc	-1	1	p	0.45384
640.2945	0.0	+	66	verb	list	3	12	nomatch	blanc	-1	1	p	0.45384
642.2936	0.0	BLANC	66	verb	list	3	13	nomatch	blanc	-1	1	p	0.45384
642.8100999999999	0.0	+	66	verb	list	3	14	nomatch	blanc	-1	1	p	0.45384
642.7475	0.0	[response]	66	verb	list	3	15	nomatch	blanc	-1	1	p	0.45384
644.6926000000001	0.0	+	67	noun	phrase	4	1	match	beau	4	1	y	0.6827
645.2422999999999	0.2	hdv	67	noun	phrase	4	2	match	beau	4	1	y	0.6827
645.4422	0.0	+	67	noun	phrase	4	3	match	beau	4	1	y	0.6827
645.8420000000001	0.2	vers	67	noun	phrase	4	4	match	beau	4	1	y	0.6827
646.0419999999999	0.0	+	67	noun	phrase	4	5	match	beau	4	1	y	0.6827
646.4418000000001	0.2	mon	67	noun	phrase	4	6	match	beau	4	1	y	0.6827
646.6416999999999	0.0	+	67	noun	phrase	4	7	match	beau	4	1	y	0.6827
647.0415	0.2	beau	67	noun	phrase	4	8	match	beau	4	1	y	0.6827
647.2413999999999	0.0	+	67	noun	phrase	4	9	match	beau	4	1	y	0.6827
647.6412	0.2	boîtier	67	noun	phrase	4	10	match	beau	4	1	y	0.6827
647.8411000000001	0.0	+	67	noun	phrase	4	11	match	beau	4	1	y	0.6827
648.241	0.0	+	67	noun	phrase	4	12	match	beau	4	1	y	0.6827
650.2401	0.0	BEAU	67	noun	phrase	4	13	match	beau	4	1	y	0.6827
650.9898000000001	0.0	+	67	noun	phrase	4	14	match	beau	4	1	y	0.6827
650.9228	0.0	[response]	67	noun	phrase	4	15	match	beau	4	1	y	0.6827
660.6355000000001	0.0	+	68	verb	phrase	1	1	match	rouler	5	1	y	0.46811
661.1851999999999	0.2	kbw	68	verb	phrase	1	2	match	rouler	5	1	y	0.46811
661.3851	0.0	+	68	verb	phrase	1	3	match	rouler	5	1	y	0.46811
661.7849000000001	0.2	pmch	68	verb	phrase	1	4	match	rouler	5	1	y	0.46811
661.9848999999999	0.0	+	68	verb	phrase	1	5	match	rouler	5	1	y	0.46811
662.3847000000001	0.2	sjkg	68	verb	phrase	1	6	match	rouler	5	1	y	0.46811
662.5845999999999	0.0	+	68	verb	phrase	1	7	match	rouler	5	1	y	0.46811
662.9844	0.2	lfhb	68	verb	phrase	1	8	match	rouler	5	1	y	0.46811
663.1842999999999	0.0	+	68	verb	phrase	1	9	match	rouler	5	1	y	0.46811
663.5841	0.2	rouler	68	verb	phrase	1	10	match	rouler	5	1	y	0.46811
663.7841000000001	0.0	+	68	verb	phrase	1	11	match	rouler	5	1	y	0.46811
664.1839	0.0	+	68	verb	phrase	1	12	match	rouler	5	1	y	0.46811
666.1995999999999	0.0	ROULER	68	verb	phrase	1	13	match	rouler	5	1	y	0.46811
666.7327	0.0	+	68	verb	phrase	1	14	match	rouler	5	1	y	0.46811
666.6677	0.0	[response]	68	verb	phrase	1	15	match	rouler	5	1	y	0.46811
668.5986	0.0	+	69	verb	phrase	1	1	match	voyager	5	1	y	0.34846
669.1483000000001	0.2	bqhv	69	verb	phrase	1	2	match	voyager	5	1	y	0.34846
669.3481999999999	0.0	+	69	verb	phrase	1	3	match	voyager	5	1	y	0.34846
669.748	0.2	xslt	69	verb	phrase	1	4	match	voyager	5	1	y	0.34846
669.9480000000001	0.0	+	69	verb	phrase	1	5	match	voyager	5	1	y	0.34846
670.3478	0.2	gh	69	verb	phrase	1	6	match	voyager	5	1	y	0.34846
670.5477000000001	0.0	+	69	verb	phrase	1	7	match	voyager	5	1	y	0.34846
670.9475	0.2	fxjts	69	verb	phrase	1	8	match	voyager	5	1	y	0.34846
671.1474000000001	0.0	+	69	verb	phrase	1	9	match	voyager	5	1	y	0.34846
671.5472	0.2	voyager	69	verb	phrase	1	10	match	voyager	5	1	y	0.34846
671.7472	0.0	+	69	verb	phrase	1	11	match	voyager	5	1	y	0.34846
672.1469999999999	0.0	+	69	verb	phrase	1	12	match	voyager	5	1	y	0.34846
674.1460999999999	0.0	VOYAGER	69	verb	phrase	1	13	match	voyager	5	1	y	0.34846
674.5459000000001	0.0	+	69	verb	phrase	1	14	match	voyager	5	1	y	0.34846
674.4946	0.0	[response]	69	verb	phrase	1	15	match	voyager	5	1	y	0.34846
676.5450000000001	0.0	+	70	verb	phrase	4	1	nomatch	va	-1	1	p	0.68097
677.0948000000001	0.2	wmq	70	verb	phrase	4	2	nomatch	va	-1	1	p	0.68097
677.2946999999999	0.0	+	70	verb	phrase	4	3	nomatch	va	-1	1	p	0.68097
677.6945000000001	0.2	marc	70	verb	phrase	4	4	nomatch	va	-1	1	p	0.68097
677.8943999999999	0.0	+	70	verb	phrase	4	5	nomatch	va	-1	1	p	0.68097
678.2942	0.2	doit	70	verb	phrase	4	6	nomatch	va	-1	1	p	0.68097
678.4942000000001	0.0	+	70	verb	phrase	4	7	nomatch	va	-1	1	p	0.68097
678.894	0.2	mieux	70	verb	phrase	4	8	nomatch	va	-1	1	p	0.68097
679.0939000000001	0.0	+	70	verb	phrase	4	9	nomatch	va	-1	1	p	0.68097
679.4937	0.2	galoper	70	verb	phrase	4	10	nomatch	va	-1	1	p	0.68097
679.6936000000001	0.0	+	70	verb	phrase	4	11	nomatch	va	-1	1	p	0.68097
680.0934	0.0	+	70	verb	phrase	4	12	nomatch	va	-1	1	p	0.68097
682.0925	0.0	VA	70	verb	phrase	4	13	nomatch	va	-1	1	p	0.68097
682.8255999999999	0.0	+	70	verb	phrase	4	14	nomatch	va	-1	1	p	0.68097
682.7735	0.0	[response]	70	verb	phrase	4	15	nomatch	va	-1	1	p	0.68097
684.4915000000001	0.0	+	71	noun	phrase	2	1	match	rocher	4	1	y	0.49927
685.0411999999999	0.2	vjqdzft	71	noun	phrase	2	2	match	rocher	4	1	y	0.49927
685.2411	0.0	+	71	noun	phrase	2	3	match	rocher	4	1	y	0.49927
685.6410000000001	0.2	hndz	71	noun	phrase	2	4	match	rocher	4	1	y	0.49927
685.8408999999999	0.0	+	71	noun	phrase	2	5	match	rocher	4	1	y	0.49927
686.2408	0.2	wtrz	71	noun	phrase	2	6	match	rocher	4	1	y	0.49927
686.4405999999999	0.0	+	71	noun	phrase	2	7	match	rocher	4	1	y	0.49927
686.8404	0.2	rocher	71	noun	phrase	2	8	match	rocher	4	1	y	0.49927
687.0402999999999	0.0	+	71	noun	phrase	2	9	match	rocher	4	1	y	0.49927
687.4402	0.2	blanc	71	noun	phrase	2	10	match	rocher	4	1	y	0.49927
687.6401000000001	0.0	+	71	noun	phrase	2	11	match	rocher	4	1	y	0.49927
688.0399	0.0	+	71	noun	phrase	2	12	match	rocher	4	1	y	0.49927
690.039	0.0	ROCHER	71	noun	phrase	2	13	match	rocher	4	1	y	0.49927
690.6053999999999	0.0	+	71	noun	phrase	2	14	match	rocher	4	1	y	0.49927
690.5382999999999	0.0	[response]	71	noun	phrase	2	15	match	rocher	4	1	y	0.49927
692.4378999999999	0.0	+	72	verb	phrase	2	1	match	moins	4	1	y	0.75593
692.9876999999999	0.2	vgj	72	verb	phrase	2	2	match	moins	4	1	y	0.75593
693.1876	0.0	+	72	verb	phrase	2	3	match	moins	4	1	y	0.75593
693.5873999999999	0.2	zhgv	72	verb	phrase	2	4	match	moins	4	1	y	0.75593
693.7873	0.0	+	72	verb	phrase	2	5	match	moins	4	1	y	0.75593
694.1872000000001	0.2	gh	72	verb	phrase	2	6	match	moins	4	1	y	0.75593
694.3870999999999	0.0	+	72	verb	phrase	2	7	match	moins	4	1	y	0.75593
694.7869000000001	0.2	moins	72	verb	phrase	2	8	match	moins	4	1	y	0.75593
694.9867999999999	0.0	+	72	verb	phrase	2	9	match	moins	4	1	y	0.75593
695.3866	0.2	chasser	72	verb	phrase	2	10	match	moins	4	1	y	0.75593
695.5864999999999	0.0	+	72	verb	phrase	2	11	match	moins	4	1	y	0.75593
695.9864	0.0	+	72	verb	phrase	2	12	match	moins	4	1	y	0.75593
697.9854	0.0	MOINS	72	verb	phrase	2	13	match	moins	4	1	y	0.75593
698.8018	0.0	+	72	verb	phrase	2	14	match	moins	4	1	y	0.75593
698.7414000000001	0.0	[response]	72	verb	phrase	2	15	match	moins	4	1	y	0.75593
700.3843999999999	0.0	+	73	verb	phrase	4	1	match	marc	2	1	y	1.0134
700.9341	0.2	mtlqp	73	verb	phrase	4	2	match	marc	2	1	y	1.0134
701.134	0.0	+	73	verb	phrase	4	3	match	marc	2	1	y	1.0134
701.5338999999999	0.2	marc	73	verb	phrase	4	4	match	marc	2	1	y	1.0134
701.7338	0.0	+	73	verb	phrase	4	5	match	marc	2	1	y	1.0134
702.1335999999999	0.2	va	73	verb	phrase	4	6	match	marc	2	1	y	1.0134
702.3335	0.0	+	73	verb	phrase	4	7	match	marc	2	1	y	1.0134
702.75	0.2	jongler	73	verb	phrase	4	8	match	marc	2	1	y	1.0134
702.9499000000001	0.0	+	73	verb	phrase	4	9	match	marc	2	1	y	1.0134
703.3497	0.2	vite	73	verb	phrase	4	10	match	marc	2	1	y	1.0134
703.5496	0.0	+	73	verb	phrase	4	11	match	marc	2	1	y	1.0134
703.9495	0.0	+	73	verb	phrase	4	12	match	marc	2	1	y	1.0134
705.9485999999999	0.0	MARC	73	verb	phrase	4	13	match	marc	2	1	y	1.0134
707.0147999999999	0.0	+	73	verb	phrase	4	14	match	marc	2	1	y	1.0134
706.9620000000002	0.0	[response]	73	verb	phrase	4	15	match	marc	2	1	y	1.0134
708.3475000000001	0.0	+	74	verb	list	2	1	nomatch	patiner	-1	1	p	0.42857
708.8973000000001	0.2	cbdzf	74	verb	list	2	2	nomatch	patiner	-1	1	p	0.42857
709.0971999999999	0.0	+	74	verb	list	2	3	nomatch	patiner	-1	1	p	0.42857
709.4970000000001	0.2	hndz	74	verb	list	2	4	nomatch	patiner	-1	1	p	0.42857
709.6968999999999	0.0	+	74	verb	list	2	5	nomatch	patiner	-1	1	p	0.42857
710.0967	0.2	gh	74	verb	list	2	6	nomatch	patiner	-1	1	p	0.42857
710.2965999999999	0.0	+	74	verb	list	2	7	nomatch	patiner	-1	1	p	0.42857
710.6965	0.2	beau	74	verb	list	2	8	nomatch	patiner	-1	1	p	0.42857
710.8964000000001	0.0	+	74	verb	list	2	9	nomatch	patiner	-1	1	p	0.42857
711.2962	0.2	chasser	74	verb	list	2	10	nomatch	patiner	-1	1	p	0.42857
711.4961000000001	0.0	+	74	verb	list	2	11	nomatch	patiner	-1	1	p	0.42857
711.8959	0.0	+	74	verb	list	2	12	nomatch	patiner	-1	1	p	0.42857
713.895	0.0	PATINER	74	verb	list	2	13	nomatch	patiner	-1	1	p	0.42857
714.3780999999999	0.0	+	74	verb	list	2	14	nomatch	patiner	-1	1	p	0.42857
714.3235999999999	0.0	[response]	74	verb	list	2	15	nomatch	patiner	-1	1	p	0.42857
716.2940000000001	0.0	+	75	verb	phrase	3	1	nomatch	jongler	-1	1	p	0.60931
716.8436999999999	0.2	brzwv	75	verb	phrase	3	2	nomatch	jongler	-1	1	p	0.60931
717.0436	0.0	+	75	verb	phrase	3	3	nomatch	jongler	-1	1	p	0.60931
717.4433999999999	0.2	xslt	75	verb	phrase	3	4	nomatch	jongler	-1	1	p	0.60931
717.6433999999999	0.0	+	75	verb	phrase	3	5	nomatch	jongler	-1	1	p	0.60931
718.0432000000001	0.2	doit	75	verb	phrase	3	6	nomatch	jongler	-1	1	p	0.60931
718.2430999999999	0.0	+	75	verb	phrase	3	7	nomatch	jongler	-1	1	p	0.60931
718.6429	0.2	beaucoup	75	verb	phrase	3	8	nomatch	jongler	-1	1	p	0.60931
718.8427999999999	0.0	+	75	verb	phrase	3	9	nomatch	jongler	-1	1	p	0.60931
719.2426	0.2	nager	75	verb	phrase	3	10	nomatch	jongler	-1	1	p	0.60931
719.4426000000001	0.0	+	75	verb	phrase	3	11	nomatch	jongler	-1	1	p	0.60931
719.8424	0.0	+	75	verb	phrase	3	12	nomatch	jongler	-1	1	p	0.60931
721.8415	0.0	JONGLER	75	verb	phrase	3	13	nomatch	jongler	-1	1	p	0.60931
722.5079000000001	0.0	+	75	verb	phrase	3	14	nomatch	jongler	-1	1	p	0.60931
722.4508000000001	0.0	[response]	75	verb	phrase	3	15	nomatch	jongler	-1	1	p	0.60931
724.2403999999999	0.0	+	76	noun	phrase	3	1	match	panier	4	1	y	0.79835
724.7901999999999	0.2	lbfz	76	noun	phrase	3	2	match	panier	4	1	y	0.79835
724.9901	0.0	+	76	noun	phrase	3	3	match	panier	4	1	y	0.79835
725.3898999999999	0.2	jxrw	76	noun	phrase	3	4	match	panier	4	1	y	0.79835
725.5898	0.0	+	76	noun	phrase	3	5	match	panier	4	1	y	0.79835
725.9897000000001	0.2	leur	76	noun	phrase	3	6	match	panier	4	1	y	0.79835
726.1895	0.0	+	76	noun	phrase	3	7	match	panier	4	1	y	0.79835
726.5894000000001	0.2	panier	76	noun	phrase	3	8	match	panier	4	1	y	0.79835
726.7892999999999	0.0	+	76	noun	phrase	3	9	match	panier	4	1	y	0.79835
727.1891	0.2	bleu	76	noun	phrase	3	10	match	panier	4	1	y	0.79835
727.3889999999999	0.0	+	76	noun	phrase	3	11	match	panier	4	1	y	0.79835
727.7888	0.0	+	76	noun	phrase	3	12	match	panier	4	1	y	0.79835
729.7879	0.0	PANIER	76	noun	phrase	3	13	match	panier	4	1	y	0.79835
730.6376	0.0	+	76	noun	phrase	3	14	match	panier	4	1	y	0.79835
730.5862999999999	0.0	[response]	76	noun	phrase	3	15	match	panier	4	1	y	0.79835
732.1868999999999	0.0	+	77	verb	list	1	1	nomatch	tard	-1	1	p	0.53285
732.7366	0.2	pml	77	verb	list	1	2	nomatch	tard	-1	1	p	0.53285
732.9365	0.0	+	77	verb	list	1	3	nomatch	tard	-1	1	p	0.53285
733.3362999999999	0.2	kcbt	77	verb	list	1	4	nomatch	tard	-1	1	p	0.53285
733.5363	0.0	+	77	verb	list	1	5	nomatch	tard	-1	1	p	0.53285
733.9360999999999	0.2	qtk	77	verb	list	1	6	nomatch	tard	-1	1	p	0.53285
734.136	0.0	+	77	verb	list	1	7	nomatch	tard	-1	1	p	0.53285
734.5358000000001	0.2	tcxgm	77	verb	list	1	8	nomatch	tard	-1	1	p	0.53285
734.7357	0.0	+	77	verb	list	1	9	nomatch	tard	-1	1	p	0.53285
735.1355000000001	0.2	rouler	77	verb	list	1	10	nomatch	tard	-1	1	p	0.53285
735.3354999999999	0.0	+	77	verb	list	1	11	nomatch	tard	-1	1	p	0.53285
735.7353	0.0	+	77	verb	list	1	12	nomatch	tard	-1	1	p	0.53285
737.7344	0.0	TARD	77	verb	list	1	13	nomatch	tard	-1	1	p	0.53285
738.3341	0.0	+	77	verb	list	1	14	nomatch	tard	-1	1	p	0.53285
738.2672	0.0	[response]	77	verb	list	1	15	nomatch	tard	-1	1	p	0.53285
740.1500000000001	0.0	+	78	verb	list	3	1	nomatch	mon	-1	1	p	0.49917
740.6996999999999	0.2	bzn	78	verb	list	3	2	nomatch	mon	-1	1	p	0.49917
740.8996	0.0	+	78	verb	list	3	3	nomatch	mon	-1	1	p	0.49917
741.2995000000001	0.2	xslt	78	verb	list	3	4	nomatch	mon	-1	1	p	0.49917
741.4993999999999	0.0	+	78	verb	list	3	5	nomatch	mon	-1	1	p	0.49917
741.8992000000001	0.2	son	78	verb	list	3	6	nomatch	mon	-1	1	p	0.49917
742.0990999999999	0.0	+	78	verb	list	3	7	nomatch	mon	-1	1	p	0.49917
742.4989	0.2	chasser	78	verb	list	3	8	nomatch	mon	-1	1	p	0.49917
742.6989000000001	0.0	+	78	verb	list	3	9	nomatch	mon	-1	1	p	0.49917
743.0987	0.2	vert	78	verb	list	3	10	nomatch	mon	-1	1	p	0.49917
743.2988	0.0	+	78	verb	list	3	11	nomatch	mon	-1	1	p	0.49917
743.6984	0.0	+	78	verb	list	3	12	nomatch	mon	-1	1	p	0.49917
745.6975	0.0	MON	78	verb	list	3	13	nomatch	mon	-1	1	p	0.49917
746.2638999999999	0.0	+	78	verb	list	3	14	nomatch	mon	-1	1	p	0.49917
746.1967	0.0	[response]	78	verb	list	3	15	nomatch	mon	-1	1	p	0.49917
748.0963999999999	0.0	+	79	verb	phrase	1	1	nomatch	beaucoup	-1	1	p	0.59463
748.6461999999999	0.2	dbq	79	verb	phrase	1	2	nomatch	beaucoup	-1	1	p	0.59463
748.8461	0.0	+	79	verb	phrase	1	3	nomatch	beaucoup	-1	1	p	0.59463
749.2458999999999	0.2	xjng	79	verb	phrase	1	4	nomatch	beaucoup	-1	1	p	0.59463
749.4458	0.0	+	79	verb	phrase	1	5	nomatch	beaucoup	-1	1	p	0.59463
749.8457000000001	0.2	gh	79	verb	phrase	1	6	nomatch	beaucoup	-1	1	p	0.59463
750.0455999999999	0.0	+	79	verb	phrase	1	7	nomatch	beaucoup	-1	1	p	0.59463
750.4454000000001	0.2	kwfjqt	79	verb	phrase	1	8	nomatch	beaucoup	-1	1	p	0.59463
750.6452999999999	0.0	+	79	verb	phrase	1	9	nomatch	beaucoup	-1	1	p	0.59463
751.0451	0.2	mieux	79	verb	phrase	1	10	nomatch	beaucoup	-1	1	p	0.59463
751.2449999999999	0.0	+	79	verb	phrase	1	11	nomatch	beaucoup	-1	1	p	0.59463
751.6449	0.0	+	79	verb	phrase	1	12	nomatch	beaucoup	-1	1	p	0.59463
753.644	0.0	BEAUCOUP	79	verb	phrase	1	13	nomatch	beaucoup	-1	1	p	0.59463
754.2937	0.0	+	79	verb	phrase	1	14	nomatch	beaucoup	-1	1	p	0.59463
754.2385999999999	0.0	[response]	79	verb	phrase	1	15	nomatch	beaucoup	-1	1	p	0.59463
756.0428999999999	0.0	+	80	verb	list	1	1	match	rouge	5	1	y	0.43499000000000004
756.5926	0.2	dtjr	80	verb	list	1	2	match	rouge	5	1	y	0.43499000000000004
756.7926	0.0	+	80	verb	list	1	3	match	rouge	5	1	y	0.43499000000000004
757.1923999999999	0.2	sqt	80	verb	list	1	4	match	rouge	5	1	y	0.43499000000000004
757.3923	0.0	+	80	verb	list	1	5	match	rouge	5	1	y	0.43499000000000004
757.7920999999999	0.2	wtrz	80	verb	list	1	6	match	rouge	5	1	y	0.43499000000000004
757.992	0.0	+	80	verb	list	1	7	match	rouge	5	1	y	0.43499000000000004
758.3919000000001	0.2	crjsltw	80	verb	list	1	8	match	rouge	5	1	y	0.43499000000000004
758.5917999999999	0.0	+	80	verb	list	1	9	match	rouge	5	1	y	0.43499000000000004
758.9916000000001	0.2	rouge	80	verb	list	1	10	match	rouge	5	1	y	0.43499000000000004
759.1914999999999	0.0	+	80	verb	list	1	11	match	rouge	5	1	y	0.43499000000000004
759.5913	0.0	+	80	verb	list	1	12	match	rouge	5	1	y	0.43499000000000004
761.5904	0.0	ROUGE	80	verb	list	1	13	match	rouge	5	1	y	0.43499000000000004
762.0902000000001	0.0	+	80	verb	list	1	14	match	rouge	5	1	y	0.43499000000000004
763.9893	0.0	+	80	verb	list	1	15	match	rouge	5	1	y	0.43499000000000004
765.0056	0.0	+	80	verb	list	1	16	match	rouge	5	1	y	0.43499000000000004
765.1054999999999	0.0	+	80	verb	list	1	17	match	rouge	5	1	y	0.43499000000000004
766.5048999999999	0.0	+	80	verb	list	1	18	match	rouge	5	1	y	0.43499000000000004
766.6048000000001	0.0	+	80	verb	list	1	19	match	rouge	5	1	y	0.43499000000000004
768.0042000000001	0.0	+	80	verb	list	1	20	match	rouge	5	1	y	0.43499000000000004
768.1042	0.0	+	80	verb	list	1	21	match	rouge	5	1	y	0.43499000000000004
769.5036	0.0	+	80	verb	list	1	22	match	rouge	5	1	y	0.43499000000000004
769.6034999999999	0.0	+	80	verb	list	1	23	match	rouge	5	1	y	0.43499000000000004
771.0195000000001	0.0	+	80	verb	list	1	24	match	rouge	5	1	y	0.43499000000000004
771.1195	0.0	+	80	verb	list	1	25	match	rouge	5	1	y	0.43499000000000004
772.5021999999999	0.0	+	80	verb	list	1	26	match	rouge	5	1	y	0.43499000000000004
772.6022	0.0	+	80	verb	list	1	27	match	rouge	5	1	y	0.43499000000000004
774.0182	0.0	+	80	verb	list	1	28	match	rouge	5	1	y	0.43499000000000004
774.1181999999999	0.0	+	80	verb	list	1	29	match	rouge	5	1	y	0.43499000000000004
775.5009	0.0	+	80	verb	list	1	30	match	rouge	5	1	y	0.43499000000000004
775.6007999999999	0.0	+	80	verb	list	1	31	match	rouge	5	1	y	0.43499000000000004
777.0169000000001	0.0	+	80	verb	list	1	32	match	rouge	5	1	y	0.43499000000000004
777.1168	0.0	+	80	verb	list	1	33	match	rouge	5	1	y	0.43499000000000004
778.4994999999999	0.0	+	80	verb	list	1	34	match	rouge	5	1	y	0.43499000000000004
778.5995	0.0	+	80	verb	list	1	35	match	rouge	5	1	y	0.43499000000000004
781.2816	0.0	+	80	verb	list	1	36	match	rouge	5	1	y	0.43499000000000004
762.0254	0.0	[response]	80	verb	list	1	37	match	rouge	5	1	y	0.43499000000000004
