onset	duration	stim	trial_number	trial_type	trial_structure	trial_length	sequential_position	probe_type	probe	probe_position	response_correct	response_key	response_time
0.057699999999996976	0.0	+	1	noun	list	1	1	match	plus	5	1	y	0.51825
0.5407999999999973	0.2	mwfgc	1	noun	list	1	2	match	plus	5	1	y	0.51825
0.7406999999999968	0.0	+	1	noun	list	1	3	match	plus	5	1	y	0.51825
1.1405999999999992	0.2	zhgv	1	noun	list	1	4	match	plus	5	1	y	0.51825
1.3404999999999987	0.0	+	1	noun	list	1	5	match	plus	5	1	y	0.51825
1.7402999999999977	0.2	qtk	1	noun	list	1	6	match	plus	5	1	y	0.51825
1.9401999999999973	0.0	+	1	noun	list	1	7	match	plus	5	1	y	0.51825
2.3399999999999963	0.2	lmfqszk	1	noun	list	1	8	match	plus	5	1	y	0.51825
2.539899999999996	0.0	+	1	noun	list	1	9	match	plus	5	1	y	0.51825
2.939799999999998	0.2	plus	1	noun	list	1	10	match	plus	5	1	y	0.51825
3.1396999999999977	0.0	+	1	noun	list	1	11	match	plus	5	1	y	0.51825
3.5394999999999968	0.0	+	1	noun	list	1	12	match	plus	5	1	y	0.51825
5.538600000000002	0.0	PLUS	1	noun	list	1	13	match	plus	5	1	y	0.51825
6.121699999999997	0.0	+	1	noun	list	1	14	match	plus	5	1	y	0.51825
6.0567999999999955	0.0	[response]	1	noun	list	1	15	match	plus	5	1	y	0.51825
7.9375	0.0	+	2	noun	phrase	3	1	match	mon	3	1	y	0.58122
8.487299999999998	0.2	pnvz	2	noun	phrase	3	2	match	mon	3	1	y	0.58122
8.687199999999997	0.0	+	2	noun	phrase	3	3	match	mon	3	1	y	0.58122
9.086999999999996	0.2	mwgt	2	noun	phrase	3	4	match	mon	3	1	y	0.58122
9.286899999999996	0.0	+	2	noun	phrase	3	5	match	mon	3	1	y	0.58122
9.686700000000002	0.2	mon	2	noun	phrase	3	6	match	mon	3	1	y	0.58122
9.886699999999998	0.0	+	2	noun	phrase	3	7	match	mon	3	1	y	0.58122
10.286499999999997	0.2	grand	2	noun	phrase	3	8	match	mon	3	1	y	0.58122
10.486399999999996	0.0	+	2	noun	phrase	3	9	match	mon	3	1	y	0.58122
10.886200000000002	0.2	tablier	2	noun	phrase	3	10	match	mon	3	1	y	0.58122
11.086100000000002	0.0	+	2	noun	phrase	3	11	match	mon	3	1	y	0.58122
11.485999999999997	0.0	+	2	noun	phrase	3	12	match	mon	3	1	y	0.58122
13.485099999999996	0.0	MON	2	noun	phrase	3	13	match	mon	3	1	y	0.58122
14.118100000000005	0.0	+	2	noun	phrase	3	14	match	mon	3	1	y	0.58122
14.066300000000005	0.0	[response]	2	noun	phrase	3	15	match	mon	3	1	y	0.58122
23.897100000000002	0.0	+	3	noun	phrase	1	1	nomatch	mieux	-1	1	p	0.54301
24.446800000000003	0.2	ljwzpqc	3	noun	phrase	1	2	nomatch	mieux	-1	1	p	0.54301
24.646700000000003	0.0	+	3	noun	phrase	1	3	nomatch	mieux	-1	1	p	0.54301
25.046600000000005	0.2	pbxw	3	noun	phrase	1	4	nomatch	mieux	-1	1	p	0.54301
25.246500000000005	0.0	+	3	noun	phrase	1	5	nomatch	mieux	-1	1	p	0.54301
25.646300000000004	0.2	wgh	3	noun	phrase	1	6	nomatch	mieux	-1	1	p	0.54301
25.846200000000003	0.0	+	3	noun	phrase	1	7	nomatch	mieux	-1	1	p	0.54301
26.246000000000002	0.2	lxjhpct	3	noun	phrase	1	8	nomatch	mieux	-1	1	p	0.54301
26.446000000000005	0.0	+	3	noun	phrase	1	9	nomatch	mieux	-1	1	p	0.54301
26.845800000000004	0.2	beau	3	noun	phrase	1	10	nomatch	mieux	-1	1	p	0.54301
27.045700000000004	0.0	+	3	noun	phrase	1	11	nomatch	mieux	-1	1	p	0.54301
27.445500000000003	0.0	+	3	noun	phrase	1	12	nomatch	mieux	-1	1	p	0.54301
29.4446	0.0	MIEUX	3	noun	phrase	1	13	nomatch	mieux	-1	1	p	0.54301
30.0443	0.0	+	3	noun	phrase	1	14	nomatch	mieux	-1	1	p	0.54301
29.987599999999993	0.0	[response]	3	noun	phrase	1	15	nomatch	mieux	-1	1	p	0.54301
31.8435	0.0	+	4	noun	phrase	1	1	match	voilier	5	1	y	0.45144
32.3933	0.2	zdmqgkx	4	noun	phrase	1	2	match	voilier	5	1	y	0.45144
32.5932	0.0	+	4	noun	phrase	1	3	match	voilier	5	1	y	0.45144
32.993	0.2	qmjf	4	noun	phrase	1	4	match	voilier	5	1	y	0.45144
33.1929	0.0	+	4	noun	phrase	1	5	match	voilier	5	1	y	0.45144
33.592800000000004	0.2	qtk	4	noun	phrase	1	6	match	voilier	5	1	y	0.45144
33.7927	0.0	+	4	noun	phrase	1	7	match	voilier	5	1	y	0.45144
34.1925	0.2	nxbt	4	noun	phrase	1	8	match	voilier	5	1	y	0.45144
34.3924	0.0	+	4	noun	phrase	1	9	match	voilier	5	1	y	0.45144
34.7922	0.2	voilier	4	noun	phrase	1	10	match	voilier	5	1	y	0.45144
34.9921	0.0	+	4	noun	phrase	1	11	match	voilier	5	1	y	0.45144
35.3919	0.0	+	4	noun	phrase	1	12	match	voilier	5	1	y	0.45144
37.3911	0.0	VOILIER	4	noun	phrase	1	13	match	voilier	5	1	y	0.45144
37.907500000000006	0.0	+	4	noun	phrase	1	14	match	voilier	5	1	y	0.45144
37.842499999999994	0.0	[response]	4	noun	phrase	1	15	match	voilier	5	1	y	0.45144
39.79	0.0	+	5	noun	list	3	1	match	panier	4	1	y	0.53219
40.339800000000004	0.2	wpcgtfn	5	noun	list	3	2	match	panier	4	1	y	0.53219
40.5397	0.0	+	5	noun	list	3	3	match	panier	4	1	y	0.53219
40.9395	0.2	kdx	5	noun	list	3	4	match	panier	4	1	y	0.53219
41.1394	0.0	+	5	noun	list	3	5	match	panier	4	1	y	0.53219
41.5392	0.2	doit	5	noun	list	3	6	match	panier	4	1	y	0.53219
41.7391	0.0	+	5	noun	list	3	7	match	panier	4	1	y	0.53219
42.1389	0.2	panier	5	noun	list	3	8	match	panier	4	1	y	0.53219
42.3389	0.0	+	5	noun	list	3	9	match	panier	4	1	y	0.53219
42.7387	0.2	tard	5	noun	list	3	10	match	panier	4	1	y	0.53219
42.9386	0.0	+	5	noun	list	3	11	match	panier	4	1	y	0.53219
43.3384	0.0	+	5	noun	list	3	12	match	panier	4	1	y	0.53219
45.3375	0.0	PANIER	5	noun	list	3	13	match	panier	4	1	y	0.53219
45.9373	0.0	+	5	noun	list	3	14	match	panier	4	1	y	0.53219
45.8697	0.0	[response]	5	noun	list	3	15	match	panier	4	1	y	0.53219
47.736399999999996	0.0	+	6	noun	list	3	1	match	beaucoup	4	1	y	0.66297
48.2862	0.2	cvqfwpn	6	noun	list	3	2	match	beaucoup	4	1	y	0.66297
48.4861	0.0	+	6	noun	list	3	3	match	beaucoup	4	1	y	0.66297
48.8859	0.2	xjng	6	noun	list	3	4	match	beaucoup	4	1	y	0.66297
49.0858	0.0	+	6	noun	list	3	5	match	beaucoup	4	1	y	0.66297
49.4857	0.2	son	6	noun	list	3	6	match	beaucoup	4	1	y	0.66297
49.6856	0.0	+	6	noun	list	3	7	match	beaucoup	4	1	y	0.66297
50.0854	0.2	beaucoup	6	noun	list	3	8	match	beaucoup	4	1	y	0.66297
50.2853	0.0	+	6	noun	list	3	9	match	beaucoup	4	1	y	0.66297
50.6851	0.2	sablier	6	noun	list	3	10	match	beaucoup	4	1	y	0.66297
50.885	0.0	+	6	noun	list	3	11	match	beaucoup	4	1	y	0.66297
51.2849	0.0	+	6	noun	list	3	12	match	beaucoup	4	1	y	0.66297
53.284	0.0	BEAUCOUP	6	noun	list	3	13	match	beaucoup	4	1	y	0.66297
54.0003	0.0	+	6	noun	list	3	14	match	beaucoup	4	1	y	0.66297
53.946999999999996	0.0	[response]	6	noun	list	3	15	match	beaucoup	4	1	y	0.66297
55.6996	0.0	+	7	verb	phrase	3	1	nomatch	petit	-1	1	p	0.54031
56.2493	0.2	qmchvnp	7	verb	phrase	3	2	nomatch	petit	-1	1	p	0.54031
56.4492	0.0	+	7	verb	phrase	3	3	nomatch	petit	-1	1	p	0.54031
56.8491	0.2	sqt	7	verb	phrase	3	4	nomatch	petit	-1	1	p	0.54031
57.049	0.0	+	7	verb	phrase	3	5	nomatch	petit	-1	1	p	0.54031
57.4488	0.2	va	7	verb	phrase	3	6	nomatch	petit	-1	1	p	0.54031
57.6487	0.0	+	7	verb	phrase	3	7	nomatch	petit	-1	1	p	0.54031
58.0485	0.2	voyager	7	verb	phrase	3	8	nomatch	petit	-1	1	p	0.54031
58.2484	0.0	+	7	verb	phrase	3	9	nomatch	petit	-1	1	p	0.54031
58.648199999999996	0.2	ainsi	7	verb	phrase	3	10	nomatch	petit	-1	1	p	0.54031
58.8482	0.0	+	7	verb	phrase	3	11	nomatch	petit	-1	1	p	0.54031
59.248	0.0	+	7	verb	phrase	3	12	nomatch	petit	-1	1	p	0.54031
61.247099999999996	0.0	PETIT	7	verb	phrase	3	13	nomatch	petit	-1	1	p	0.54031
61.846799999999995	0.0	+	7	verb	phrase	3	14	nomatch	petit	-1	1	p	0.54031
61.7874	0.0	[response]	7	verb	phrase	3	15	nomatch	petit	-1	1	p	0.54031
63.645999999999994	0.0	+	8	noun	phrase	1	1	nomatch	nouveau	-1	1	p	0.65228
64.19579999999999	0.2	vcwd	8	noun	phrase	1	2	nomatch	nouveau	-1	1	p	0.65228
64.3957	0.0	+	8	noun	phrase	1	3	nomatch	nouveau	-1	1	p	0.65228
64.7955	0.2	dglq	8	noun	phrase	1	4	nomatch	nouveau	-1	1	p	0.65228
64.99539999999999	0.0	+	8	noun	phrase	1	5	nomatch	nouveau	-1	1	p	0.65228
65.39519999999999	0.2	qtk	8	noun	phrase	1	6	nomatch	nouveau	-1	1	p	0.65228
65.5951	0.0	+	8	noun	phrase	1	7	nomatch	nouveau	-1	1	p	0.65228
65.995	0.2	jrvwb	8	noun	phrase	1	8	nomatch	nouveau	-1	1	p	0.65228
66.19489999999999	0.0	+	8	noun	phrase	1	9	nomatch	nouveau	-1	1	p	0.65228
66.59469999999999	0.2	panier	8	noun	phrase	1	10	nomatch	nouveau	-1	1	p	0.65228
66.7946	0.0	+	8	noun	phrase	1	11	nomatch	nouveau	-1	1	p	0.65228
67.1944	0.0	+	8	noun	phrase	1	12	nomatch	nouveau	-1	1	p	0.65228
69.1935	0.0	NOUVEAU	8	noun	phrase	1	13	nomatch	nouveau	-1	1	p	0.65228
69.9099	0.0	+	8	noun	phrase	1	14	nomatch	nouveau	-1	1	p	0.65228
69.8458	0.0	[response]	8	noun	phrase	1	15	nomatch	nouveau	-1	1	p	0.65228
71.5925	0.0	+	9	noun	list	1	1	nomatch	sablier	-1	1	p	0.899
72.1422	0.2	lrzp	9	noun	list	1	2	nomatch	sablier	-1	1	p	0.899
72.34209999999999	0.0	+	9	noun	list	1	3	nomatch	sablier	-1	1	p	0.899
72.74199999999999	0.2	kdx	9	noun	list	1	4	nomatch	sablier	-1	1	p	0.899
72.9419	0.0	+	9	noun	list	1	5	nomatch	sablier	-1	1	p	0.899
73.3417	0.2	dckl	9	noun	list	1	6	nomatch	sablier	-1	1	p	0.899
73.54159999999999	0.0	+	9	noun	list	1	7	nomatch	sablier	-1	1	p	0.899
73.94139999999999	0.2	hwsx	9	noun	list	1	8	nomatch	sablier	-1	1	p	0.899
74.1413	0.0	+	9	noun	list	1	9	nomatch	sablier	-1	1	p	0.899
74.5412	0.2	cendrier	9	noun	list	1	10	nomatch	sablier	-1	1	p	0.899
74.74109999999999	0.0	+	9	noun	list	1	11	nomatch	sablier	-1	1	p	0.899
75.14089999999999	0.0	+	9	noun	list	1	12	nomatch	sablier	-1	1	p	0.899
77.13999999999999	0.0	SABLIER	9	noun	list	1	13	nomatch	sablier	-1	1	p	0.899
78.1062	0.0	+	9	noun	list	1	14	nomatch	sablier	-1	1	p	0.899
78.03899999999999	0.0	[response]	9	noun	list	1	15	nomatch	sablier	-1	1	p	0.899
79.53889999999998	0.0	+	10	noun	list	1	1	match	mieux	5	1	y	0.58922
80.08869999999999	0.2	bjr	10	noun	list	1	2	match	mieux	5	1	y	0.58922
80.2886	0.0	+	10	noun	list	1	3	match	mieux	5	1	y	0.58922
80.6884	0.2	zhgv	10	noun	list	1	4	match	mieux	5	1	y	0.58922
80.88829999999999	0.0	+	10	noun	list	1	5	match	mieux	5	1	y	0.58922
81.28809999999999	0.2	wgh	10	noun	list	1	6	match	mieux	5	1	y	0.58922
81.4881	0.0	+	10	noun	list	1	7	match	mieux	5	1	y	0.58922
81.8879	0.2	kbqhrxgp	10	noun	list	1	8	match	mieux	5	1	y	0.58922
82.08779999999999	0.0	+	10	noun	list	1	9	match	mieux	5	1	y	0.58922
82.48759999999999	0.2	mieux	10	noun	list	1	10	match	mieux	5	1	y	0.58922
82.6875	0.0	+	10	noun	list	1	11	match	mieux	5	1	y	0.58922
83.0874	0.0	+	10	noun	list	1	12	match	mieux	5	1	y	0.58922
85.0865	0.0	MIEUX	10	noun	list	1	13	match	mieux	5	1	y	0.58922
85.7362	0.0	+	10	noun	list	1	14	match	mieux	5	1	y	0.58922
85.67569999999998	0.0	[response]	10	noun	list	1	15	match	mieux	5	1	y	0.58922
87.4854	0.0	+	11	verb	list	3	1	match	beau	4	0	p	0.67185
88.0351	0.2	vbk	11	verb	list	3	2	match	beau	4	0	p	0.67185
88.23499999999999	0.0	+	11	verb	list	3	3	match	beau	4	0	p	0.67185
88.63489999999999	0.2	dglq	11	verb	list	3	4	match	beau	4	0	p	0.67185
88.8348	0.0	+	11	verb	list	3	5	match	beau	4	0	p	0.67185
89.2346	0.2	peut	11	verb	list	3	6	match	beau	4	0	p	0.67185
89.43449999999999	0.0	+	11	verb	list	3	7	match	beau	4	0	p	0.67185
89.83429999999998	0.2	beau	11	verb	list	3	8	match	beau	4	0	p	0.67185
90.0342	0.0	+	11	verb	list	3	9	match	beau	4	0	p	0.67185
90.4341	0.2	jongler	11	verb	list	3	10	match	beau	4	0	p	0.67185
90.63399999999999	0.0	+	11	verb	list	3	11	match	beau	4	0	p	0.67185
91.03379999999999	0.0	+	11	verb	list	3	12	match	beau	4	0	p	0.67185
93.0496	0.0	BEAU	11	verb	list	3	13	match	beau	4	0	p	0.67185
93.7826	0.0	+	11	verb	list	3	14	match	beau	4	0	p	0.67185
93.72139999999999	0.0	[response]	11	verb	list	3	15	match	beau	4	0	p	0.67185
95.4485	0.0	+	12	noun	phrase	4	1	match	son	3	1	y	0.54814
95.9982	0.2	cnpxwsr	12	noun	phrase	4	2	match	son	3	1	y	0.54814
96.19819999999999	0.0	+	12	noun	phrase	4	3	match	son	3	1	y	0.54814
96.59799999999998	0.2	dans	12	noun	phrase	4	4	match	son	3	1	y	0.54814
96.7979	0.0	+	12	noun	phrase	4	5	match	son	3	1	y	0.54814
97.1977	0.2	son	12	noun	phrase	4	6	match	son	3	1	y	0.54814
97.39759999999998	0.0	+	12	noun	phrase	4	7	match	son	3	1	y	0.54814
97.79749999999999	0.2	casier	12	noun	phrase	4	8	match	son	3	1	y	0.54814
97.9974	0.0	+	12	noun	phrase	4	9	match	son	3	1	y	0.54814
98.3972	0.2	rouge	12	noun	phrase	4	10	match	son	3	1	y	0.54814
98.59709999999998	0.0	+	12	noun	phrase	4	11	match	son	3	1	y	0.54814
98.99689999999998	0.0	+	12	noun	phrase	4	12	match	son	3	1	y	0.54814
100.99599999999998	0.0	SON	12	noun	phrase	4	13	match	son	3	1	y	0.54814
101.5958	0.0	+	12	noun	phrase	4	14	match	son	3	1	y	0.54814
101.54419999999999	0.0	[response]	12	noun	phrase	4	15	match	son	3	1	y	0.54814
103.39499999999998	0.0	+	13	verb	list	3	1	nomatch	bleu	-1	1	p	0.54338
103.94469999999998	0.2	dwtxfm	13	verb	list	3	2	nomatch	bleu	-1	1	p	0.54338
104.1446	0.0	+	13	verb	list	3	3	nomatch	bleu	-1	1	p	0.54338
104.5444	0.2	jxrw	13	verb	list	3	4	nomatch	bleu	-1	1	p	0.54338
104.74439999999998	0.0	+	13	verb	list	3	5	nomatch	bleu	-1	1	p	0.54338
105.14419999999998	0.2	doit	13	verb	list	3	6	nomatch	bleu	-1	1	p	0.54338
105.3441	0.0	+	13	verb	list	3	7	nomatch	bleu	-1	1	p	0.54338
105.7439	0.2	grand	13	verb	list	3	8	nomatch	bleu	-1	1	p	0.54338
105.94379999999998	0.0	+	13	verb	list	3	9	nomatch	bleu	-1	1	p	0.54338
106.34369999999998	0.2	patiner	13	verb	list	3	10	nomatch	bleu	-1	1	p	0.54338
106.5435	0.0	+	13	verb	list	3	11	nomatch	bleu	-1	1	p	0.54338
106.9434	0.0	+	13	verb	list	3	12	nomatch	bleu	-1	1	p	0.54338
108.9425	0.0	BLEU	13	verb	list	3	13	nomatch	bleu	-1	1	p	0.54338
109.54219999999998	0.0	+	13	verb	list	3	14	nomatch	bleu	-1	1	p	0.54338
109.48589999999999	0.0	[response]	13	verb	list	3	15	nomatch	bleu	-1	1	p	0.54338
111.3414	0.0	+	14	noun	list	1	1	nomatch	paul	-1	1	p	0.49498
111.8912	0.2	vhqj	14	noun	list	1	2	nomatch	paul	-1	1	p	0.49498
112.09109999999998	0.0	+	14	noun	list	1	3	nomatch	paul	-1	1	p	0.49498
112.49089999999998	0.2	xjng	14	noun	list	1	4	nomatch	paul	-1	1	p	0.49498
112.6908	0.0	+	14	noun	list	1	5	nomatch	paul	-1	1	p	0.49498
113.0906	0.2	qtk	14	noun	list	1	6	nomatch	paul	-1	1	p	0.49498
113.29049999999998	0.0	+	14	noun	list	1	7	nomatch	paul	-1	1	p	0.49498
113.69039999999998	0.2	rgkf	14	noun	list	1	8	nomatch	paul	-1	1	p	0.49498
113.8903	0.0	+	14	noun	list	1	9	nomatch	paul	-1	1	p	0.49498
114.2901	0.2	voilier	14	noun	list	1	10	nomatch	paul	-1	1	p	0.49498
114.48999999999998	0.0	+	14	noun	list	1	11	nomatch	paul	-1	1	p	0.49498
114.88979999999998	0.0	+	14	noun	list	1	12	nomatch	paul	-1	1	p	0.49498
116.88899999999998	0.0	PAUL	14	noun	list	1	13	nomatch	paul	-1	1	p	0.49498
117.43869999999998	0.0	+	14	noun	list	1	14	nomatch	paul	-1	1	p	0.49498
117.38389999999998	0.0	[response]	14	noun	list	1	15	nomatch	paul	-1	1	p	0.49498
127.2843	0.0	+	15	noun	phrase	2	1	nomatch	plus	-1	1	p	0.59032
127.83409999999998	0.2	hbfr	15	noun	phrase	2	2	nomatch	plus	-1	1	p	0.59032
128.034	0.0	+	15	noun	phrase	2	3	nomatch	plus	-1	1	p	0.59032
128.4338	0.2	mwgt	15	noun	phrase	2	4	nomatch	plus	-1	1	p	0.59032
128.6337	0.0	+	15	noun	phrase	2	5	nomatch	plus	-1	1	p	0.59032
129.03369999999998	0.2	wtrz	15	noun	phrase	2	6	nomatch	plus	-1	1	p	0.59032
129.2501	0.0	+	15	noun	phrase	2	7	nomatch	plus	-1	1	p	0.59032
129.6499	0.2	sablier	15	noun	phrase	2	8	nomatch	plus	-1	1	p	0.59032
129.8498	0.0	+	15	noun	phrase	2	9	nomatch	plus	-1	1	p	0.59032
130.2496	0.2	vert	15	noun	phrase	2	10	nomatch	plus	-1	1	p	0.59032
130.4496	0.0	+	15	noun	phrase	2	11	nomatch	plus	-1	1	p	0.59032
130.8494	0.0	+	15	noun	phrase	2	12	nomatch	plus	-1	1	p	0.59032
132.8485	0.0	PLUS	15	noun	phrase	2	13	nomatch	plus	-1	1	p	0.59032
133.4982	0.0	+	15	noun	phrase	2	14	nomatch	plus	-1	1	p	0.59032
133.4388	0.0	[response]	15	noun	phrase	2	15	nomatch	plus	-1	1	p	0.59032
143.2439	0.0	+	16	verb	phrase	1	1	nomatch	galoper	-1	1	p	0.74915
143.7936	0.2	rngz	16	verb	phrase	1	2	nomatch	galoper	-1	1	p	0.74915
143.99349999999998	0.0	+	16	verb	phrase	1	3	nomatch	galoper	-1	1	p	0.74915
144.39329999999998	0.2	xjng	16	verb	phrase	1	4	nomatch	galoper	-1	1	p	0.74915
144.5933	0.0	+	16	verb	phrase	1	5	nomatch	galoper	-1	1	p	0.74915
144.9931	0.2	sjkg	16	verb	phrase	1	6	nomatch	galoper	-1	1	p	0.74915
145.19299999999998	0.0	+	16	verb	phrase	1	7	nomatch	galoper	-1	1	p	0.74915
145.59279999999998	0.2	kzglwpns	16	verb	phrase	1	8	nomatch	galoper	-1	1	p	0.74915
145.7927	0.0	+	16	verb	phrase	1	9	nomatch	galoper	-1	1	p	0.74915
146.1925	0.2	nager	16	verb	phrase	1	10	nomatch	galoper	-1	1	p	0.74915
146.39249999999998	0.0	+	16	verb	phrase	1	11	nomatch	galoper	-1	1	p	0.74915
146.79229999999998	0.0	+	16	verb	phrase	1	12	nomatch	galoper	-1	1	p	0.74915
148.79139999999998	0.0	GALOPER	16	verb	phrase	1	13	nomatch	galoper	-1	1	p	0.74915
149.6077	0.0	+	16	verb	phrase	1	14	nomatch	galoper	-1	1	p	0.74915
149.54049999999998	0.0	[response]	16	verb	phrase	1	15	nomatch	galoper	-1	1	p	0.74915
151.19029999999998	0.0	+	17	noun	phrase	2	1	nomatch	doit	-1	1	p	0.60077
151.74009999999998	0.2	xcpl	17	noun	phrase	2	2	nomatch	doit	-1	1	p	0.60077
151.94	0.0	+	17	noun	phrase	2	3	nomatch	doit	-1	1	p	0.60077
152.3398	0.2	qmjf	17	noun	phrase	2	4	nomatch	doit	-1	1	p	0.60077
152.53969999999998	0.0	+	17	noun	phrase	2	5	nomatch	doit	-1	1	p	0.60077
152.93949999999998	0.2	qtk	17	noun	phrase	2	6	nomatch	doit	-1	1	p	0.60077
153.1395	0.0	+	17	noun	phrase	2	7	nomatch	doit	-1	1	p	0.60077
153.5393	0.2	tablier	17	noun	phrase	2	8	nomatch	doit	-1	1	p	0.60077
153.73919999999998	0.0	+	17	noun	phrase	2	9	nomatch	doit	-1	1	p	0.60077
154.13899999999998	0.2	blanc	17	noun	phrase	2	10	nomatch	doit	-1	1	p	0.60077
154.3389	0.0	+	17	noun	phrase	2	11	nomatch	doit	-1	1	p	0.60077
154.7387	0.0	+	17	noun	phrase	2	12	nomatch	doit	-1	1	p	0.60077
156.7378	0.0	DOIT	17	noun	phrase	2	13	nomatch	doit	-1	1	p	0.60077
157.4042	0.0	+	17	noun	phrase	2	14	nomatch	doit	-1	1	p	0.60077
157.33859999999999	0.0	[response]	17	noun	phrase	2	15	nomatch	doit	-1	1	p	0.60077
167.1498	0.0	+	18	noun	phrase	3	1	match	leur	3	1	y	0.94178
167.6996	0.2	vqx	18	noun	phrase	3	2	match	leur	3	1	y	0.94178
167.8995	0.0	+	18	noun	phrase	3	3	match	leur	3	1	y	0.94178
168.2993	0.2	dglq	18	noun	phrase	3	4	match	leur	3	1	y	0.94178
168.4993	0.0	+	18	noun	phrase	3	5	match	leur	3	1	y	0.94178
168.8991	0.2	leur	18	noun	phrase	3	6	match	leur	3	1	y	0.94178
169.099	0.0	+	18	noun	phrase	3	7	match	leur	3	1	y	0.94178
169.4988	0.2	petit	18	noun	phrase	3	8	match	leur	3	1	y	0.94178
169.6987	0.0	+	18	noun	phrase	3	9	match	leur	3	1	y	0.94178
170.0985	0.2	sablier	18	noun	phrase	3	10	match	leur	3	1	y	0.94178
170.2985	0.0	+	18	noun	phrase	3	11	match	leur	3	1	y	0.94178
170.6983	0.0	+	18	noun	phrase	3	12	match	leur	3	1	y	0.94178
172.6974	0.0	LEUR	18	noun	phrase	3	13	match	leur	3	1	y	0.94178
173.6969	0.0	+	18	noun	phrase	3	14	match	leur	3	1	y	0.94178
173.6392	0.0	[response]	18	noun	phrase	3	15	match	leur	3	1	y	0.94178
175.09629999999999	0.0	+	19	noun	list	3	1	match	mieux	4	1	y	0.58974
175.6461	0.2	xmfsd	19	noun	list	3	2	match	mieux	4	1	y	0.58974
175.846	0.0	+	19	noun	list	3	3	match	mieux	4	1	y	0.58974
176.2458	0.2	zhgv	19	noun	list	3	4	match	mieux	4	1	y	0.58974
176.4457	0.0	+	19	noun	list	3	5	match	mieux	4	1	y	0.58974
176.8455	0.2	son	19	noun	list	3	6	match	mieux	4	1	y	0.58974
177.0454	0.0	+	19	noun	list	3	7	match	mieux	4	1	y	0.58974
177.4453	0.2	mieux	19	noun	list	3	8	match	mieux	4	1	y	0.58974
177.6452	0.0	+	19	noun	list	3	9	match	mieux	4	1	y	0.58974
178.045	0.2	casier	19	noun	list	3	10	match	mieux	4	1	y	0.58974
178.2449	0.0	+	19	noun	list	3	11	match	mieux	4	1	y	0.58974
178.6447	0.0	+	19	noun	list	3	12	match	mieux	4	1	y	0.58974
180.6438	0.0	MIEUX	19	noun	list	3	13	match	mieux	4	1	y	0.58974
181.2935	0.0	+	19	noun	list	3	14	match	mieux	4	1	y	0.58974
181.2336	0.0	[response]	19	noun	list	3	15	match	mieux	4	1	y	0.58974
191.0392	0.0	+	20	noun	list	4	1	nomatch	loin	-1	0	y	1.1875
191.589	0.2	bjsrnf	20	noun	list	4	2	nomatch	loin	-1	0	y	1.1875
191.78889999999998	0.0	+	20	noun	list	4	3	nomatch	loin	-1	0	y	1.1875
192.18869999999998	0.2	jean	20	noun	list	4	4	nomatch	loin	-1	0	y	1.1875
192.3886	0.0	+	20	noun	list	4	5	nomatch	loin	-1	0	y	1.1875
192.7884	0.2	leur	20	noun	list	4	6	nomatch	loin	-1	0	y	1.1875
192.98829999999998	0.0	+	20	noun	list	4	7	nomatch	loin	-1	0	y	1.1875
193.38819999999998	0.2	moins	20	noun	list	4	8	nomatch	loin	-1	0	y	1.1875
193.5881	0.0	+	20	noun	list	4	9	nomatch	loin	-1	0	y	1.1875
193.9879	0.2	panier	20	noun	list	4	10	nomatch	loin	-1	0	y	1.1875
194.18779999999998	0.0	+	20	noun	list	4	11	nomatch	loin	-1	0	y	1.1875
194.58759999999998	0.0	+	20	noun	list	4	12	nomatch	loin	-1	0	y	1.1875
196.58669999999998	0.0	LOIN	20	noun	list	4	13	nomatch	loin	-1	0	y	1.1875
197.8362	0.0	+	20	noun	list	4	14	nomatch	loin	-1	0	y	1.1875
197.77419999999998	0.0	[response]	20	noun	list	4	15	nomatch	loin	-1	0	y	1.1875
214.9952	0.0	+	21	verb	phrase	2	1	nomatch	plonger	-1	1	p	0.66774
215.54489999999998	0.2	gtjrcv	21	verb	phrase	2	2	nomatch	plonger	-1	1	p	0.66774
215.7448	0.0	+	21	verb	phrase	2	3	nomatch	plonger	-1	1	p	0.66774
216.1447	0.2	pmch	21	verb	phrase	2	4	nomatch	plonger	-1	1	p	0.66774
216.3446	0.0	+	21	verb	phrase	2	5	nomatch	plonger	-1	1	p	0.66774
216.74439999999998	0.2	gh	21	verb	phrase	2	6	nomatch	plonger	-1	1	p	0.66774
216.9443	0.0	+	21	verb	phrase	2	7	nomatch	plonger	-1	1	p	0.66774
217.34409999999997	0.2	trop	21	verb	phrase	2	8	nomatch	plonger	-1	1	p	0.66774
217.54399999999998	0.0	+	21	verb	phrase	2	9	nomatch	plonger	-1	1	p	0.66774
217.94389999999999	0.2	nager	21	verb	phrase	2	10	nomatch	plonger	-1	1	p	0.66774
218.1438	0.0	+	21	verb	phrase	2	11	nomatch	plonger	-1	1	p	0.66774
218.54359999999997	0.0	+	21	verb	phrase	2	12	nomatch	plonger	-1	1	p	0.66774
220.54269999999997	0.0	PLONGER	21	verb	phrase	2	13	nomatch	plonger	-1	1	p	0.66774
221.27569999999997	0.0	+	21	verb	phrase	2	14	nomatch	plonger	-1	1	p	0.66774
221.21049999999997	0.0	[response]	21	verb	phrase	2	15	nomatch	plonger	-1	1	p	0.66774
222.94169999999997	0.0	+	22	noun	phrase	4	1	match	blanc	5	1	y	0.62002
223.4914	0.2	gspc	22	noun	phrase	4	2	match	blanc	5	1	y	0.62002
223.6913	0.0	+	22	noun	phrase	4	3	match	blanc	5	1	y	0.62002
224.09109999999998	0.2	pour	22	noun	phrase	4	4	match	blanc	5	1	y	0.62002
224.291	0.0	+	22	noun	phrase	4	5	match	blanc	5	1	y	0.62002
224.6909	0.2	son	22	noun	phrase	4	6	match	blanc	5	1	y	0.62002
224.8908	0.0	+	22	noun	phrase	4	7	match	blanc	5	1	y	0.62002
225.29059999999998	0.2	boîtier	22	noun	phrase	4	8	match	blanc	5	1	y	0.62002
225.4905	0.0	+	22	noun	phrase	4	9	match	blanc	5	1	y	0.62002
225.89029999999997	0.2	blanc	22	noun	phrase	4	10	match	blanc	5	1	y	0.62002
226.09019999999998	0.0	+	22	noun	phrase	4	11	match	blanc	5	1	y	0.62002
226.49009999999998	0.0	+	22	noun	phrase	4	12	match	blanc	5	1	y	0.62002
228.48919999999998	0.0	BLANC	22	noun	phrase	4	13	match	blanc	5	1	y	0.62002
229.17219999999998	0.0	+	22	noun	phrase	4	14	match	blanc	5	1	y	0.62002
229.1092	0.0	[response]	22	noun	phrase	4	15	match	blanc	5	1	y	0.62002
238.8845	0.0	+	23	noun	phrase	1	1	nomatch	cendrier	-1	1	p	0.5357500000000001
239.4343	0.2	ncbjsz	23	noun	phrase	1	2	nomatch	cendrier	-1	1	p	0.5357500000000001
239.63419999999996	0.0	+	23	noun	phrase	1	3	nomatch	cendrier	-1	1	p	0.5357500000000001
240.034	0.2	kdx	23	noun	phrase	1	4	nomatch	cendrier	-1	1	p	0.5357500000000001
240.2339	0.0	+	23	noun	phrase	1	5	nomatch	cendrier	-1	1	p	0.5357500000000001
240.63369999999998	0.2	qtk	23	noun	phrase	1	6	nomatch	cendrier	-1	1	p	0.5357500000000001
240.83369999999996	0.0	+	23	noun	phrase	1	7	nomatch	cendrier	-1	1	p	0.5357500000000001
241.2335	0.2	zbqrd	23	noun	phrase	1	8	nomatch	cendrier	-1	1	p	0.5357500000000001
241.45009999999996	0.0	+	23	noun	phrase	1	9	nomatch	cendrier	-1	1	p	0.5357500000000001
241.8499	0.2	sablier	23	noun	phrase	1	10	nomatch	cendrier	-1	1	p	0.5357500000000001
242.0498	0.0	+	23	noun	phrase	1	11	nomatch	cendrier	-1	1	p	0.5357500000000001
242.44959999999998	0.0	+	23	noun	phrase	1	12	nomatch	cendrier	-1	1	p	0.5357500000000001
244.44869999999997	0.0	CENDRIER	23	noun	phrase	1	13	nomatch	cendrier	-1	1	p	0.5357500000000001
245.0485	0.0	+	23	noun	phrase	1	14	nomatch	cendrier	-1	1	p	0.5357500000000001
244.98449999999997	0.0	[response]	23	noun	phrase	1	15	nomatch	cendrier	-1	1	p	0.5357500000000001
262.8405	0.0	+	24	noun	phrase	3	1	nomatch	leur	-1	1	p	0.58024
263.39029999999997	0.2	ksrzpc	24	noun	phrase	3	2	nomatch	leur	-1	1	p	0.58024
263.5902	0.0	+	24	noun	phrase	3	3	nomatch	leur	-1	1	p	0.58024
263.99	0.2	pbxw	24	noun	phrase	3	4	nomatch	leur	-1	1	p	0.58024
264.18989999999997	0.0	+	24	noun	phrase	3	5	nomatch	leur	-1	1	p	0.58024
264.5897	0.2	son	24	noun	phrase	3	6	nomatch	leur	-1	1	p	0.58024
264.7896	0.0	+	24	noun	phrase	3	7	nomatch	leur	-1	1	p	0.58024
265.1895	0.2	vieux	24	noun	phrase	3	8	nomatch	leur	-1	1	p	0.58024
265.38939999999997	0.0	+	24	noun	phrase	3	9	nomatch	leur	-1	1	p	0.58024
265.7892	0.2	rocher	24	noun	phrase	3	10	nomatch	leur	-1	1	p	0.58024
265.9891	0.0	+	24	noun	phrase	3	11	nomatch	leur	-1	1	p	0.58024
266.3889	0.0	+	24	noun	phrase	3	12	nomatch	leur	-1	1	p	0.58024
268.388	0.0	LEUR	24	noun	phrase	3	13	nomatch	leur	-1	1	p	0.58024
269.0211	0.0	+	24	noun	phrase	3	14	nomatch	leur	-1	1	p	0.58024
268.9683	0.0	[response]	24	noun	phrase	3	15	nomatch	leur	-1	1	p	0.58024
270.787	0.0	+	25	noun	list	4	1	match	mieux	4	1	y	0.62985
271.3367	0.2	wzjcrkd	25	noun	list	4	2	match	mieux	4	1	y	0.62985
271.53659999999996	0.0	+	25	noun	list	4	3	match	mieux	4	1	y	0.62985
271.9364	0.2	jade	25	noun	list	4	4	match	mieux	4	1	y	0.62985
272.1364	0.0	+	25	noun	list	4	5	match	mieux	4	1	y	0.62985
272.5362	0.2	mon	25	noun	list	4	6	match	mieux	4	1	y	0.62985
272.73609999999996	0.0	+	25	noun	list	4	7	match	mieux	4	1	y	0.62985
273.1359	0.2	mieux	25	noun	list	4	8	match	mieux	4	1	y	0.62985
273.3358	0.0	+	25	noun	list	4	9	match	mieux	4	1	y	0.62985
273.7357	0.2	casier	25	noun	list	4	10	match	mieux	4	1	y	0.62985
273.93559999999997	0.0	+	25	noun	list	4	11	match	mieux	4	1	y	0.62985
274.3354	0.0	+	25	noun	list	4	12	match	mieux	4	1	y	0.62985
276.3345	0.0	MIEUX	25	noun	list	4	13	match	mieux	4	1	y	0.62985
277.0175	0.0	+	25	noun	list	4	14	match	mieux	4	1	y	0.62985
276.9643	0.0	[response]	25	noun	list	4	15	match	mieux	4	1	y	0.62985
278.7501	0.0	+	26	noun	list	2	1	match	ainsi	5	1	y	0.5003
279.2998	0.2	lkhfdqj	26	noun	list	2	2	match	ainsi	5	1	y	0.5003
279.4997	0.0	+	26	noun	list	2	3	match	ainsi	5	1	y	0.5003
279.89959999999996	0.2	dglq	26	noun	list	2	4	match	ainsi	5	1	y	0.5003
280.0995	0.0	+	26	noun	list	2	5	match	ainsi	5	1	y	0.5003
280.4993	0.2	dckl	26	noun	list	2	6	match	ainsi	5	1	y	0.5003
280.6992	0.0	+	26	noun	list	2	7	match	ainsi	5	1	y	0.5003
281.099	0.2	sablier	26	noun	list	2	8	match	ainsi	5	1	y	0.5003
281.2989	0.0	+	26	noun	list	2	9	match	ainsi	5	1	y	0.5003
281.6988	0.2	ainsi	26	noun	list	2	10	match	ainsi	5	1	y	0.5003
281.8987	0.0	+	26	noun	list	2	11	match	ainsi	5	1	y	0.5003
282.29859999999996	0.0	+	26	noun	list	2	12	match	ainsi	5	1	y	0.5003
284.2976	0.0	AINSI	26	noun	list	2	13	match	ainsi	5	1	y	0.5003
284.864	0.0	+	26	noun	list	2	14	match	ainsi	5	1	y	0.5003
284.7979	0.0	[response]	26	noun	list	2	15	match	ainsi	5	1	y	0.5003
286.6965	0.0	+	27	noun	phrase	4	1	match	avec	2	1	y	0.69461
287.2463	0.2	ntbqm	27	noun	phrase	4	2	match	avec	2	1	y	0.69461
287.4462	0.0	+	27	noun	phrase	4	3	match	avec	2	1	y	0.69461
287.846	0.2	avec	27	noun	phrase	4	4	match	avec	2	1	y	0.69461
288.0459	0.0	+	27	noun	phrase	4	5	match	avec	2	1	y	0.69461
288.4458	0.2	mon	27	noun	phrase	4	6	match	avec	2	1	y	0.69461
288.6457	0.0	+	27	noun	phrase	4	7	match	avec	2	1	y	0.69461
289.0455	0.2	tablier	27	noun	phrase	4	8	match	avec	2	1	y	0.69461
289.2454	0.0	+	27	noun	phrase	4	9	match	avec	2	1	y	0.69461
289.6452	0.2	blanc	27	noun	phrase	4	10	match	avec	2	1	y	0.69461
289.8451	0.0	+	27	noun	phrase	4	11	match	avec	2	1	y	0.69461
290.245	0.0	+	27	noun	phrase	4	12	match	avec	2	1	y	0.69461
292.2441	0.0	AVEC	27	noun	phrase	4	13	match	avec	2	1	y	0.69461
292.9937	0.0	+	27	noun	phrase	4	14	match	avec	2	1	y	0.69461
292.9387	0.0	[response]	27	noun	phrase	4	15	match	avec	2	1	y	0.69461
294.643	0.0	+	28	verb	phrase	4	1	match	loin	5	1	y	0.6803900000000002
295.1927	0.2	bmt	28	verb	phrase	4	2	match	loin	5	1	y	0.6803900000000002
295.3927	0.0	+	28	verb	phrase	4	3	match	loin	5	1	y	0.6803900000000002
295.7925	0.2	jade	28	verb	phrase	4	4	match	loin	5	1	y	0.6803900000000002
295.9924	0.0	+	28	verb	phrase	4	5	match	loin	5	1	y	0.6803900000000002
296.3922	0.2	doit	28	verb	phrase	4	6	match	loin	5	1	y	0.6803900000000002
296.5921	0.0	+	28	verb	phrase	4	7	match	loin	5	1	y	0.6803900000000002
296.9919	0.2	galoper	28	verb	phrase	4	8	match	loin	5	1	y	0.6803900000000002
297.1919	0.0	+	28	verb	phrase	4	9	match	loin	5	1	y	0.6803900000000002
297.5917	0.2	loin	28	verb	phrase	4	10	match	loin	5	1	y	0.6803900000000002
297.7916	0.0	+	28	verb	phrase	4	11	match	loin	5	1	y	0.6803900000000002
298.1914	0.0	+	28	verb	phrase	4	12	match	loin	5	1	y	0.6803900000000002
300.1905	0.0	LOIN	28	verb	phrase	4	13	match	loin	5	1	y	0.6803900000000002
300.9235	0.0	+	28	verb	phrase	4	14	match	loin	5	1	y	0.6803900000000002
300.8709	0.0	[response]	28	verb	phrase	4	15	match	loin	5	1	y	0.6803900000000002
302.5895	0.0	+	29	noun	list	1	1	nomatch	tablier	-1	1	p	0.48919
303.1392	0.2	rsfvt	29	noun	list	1	2	nomatch	tablier	-1	1	p	0.48919
303.3391	0.0	+	29	noun	list	1	3	nomatch	tablier	-1	1	p	0.48919
303.7389	0.2	xgjw	29	noun	list	1	4	nomatch	tablier	-1	1	p	0.48919
303.9388	0.0	+	29	noun	list	1	5	nomatch	tablier	-1	1	p	0.48919
304.3387	0.2	wgh	29	noun	list	1	6	nomatch	tablier	-1	1	p	0.48919
304.5386	0.0	+	29	noun	list	1	7	nomatch	tablier	-1	1	p	0.48919
304.9384	0.2	hnlbw	29	noun	list	1	8	nomatch	tablier	-1	1	p	0.48919
305.1383	0.0	+	29	noun	list	1	9	nomatch	tablier	-1	1	p	0.48919
305.5381	0.2	casier	29	noun	list	1	10	nomatch	tablier	-1	1	p	0.48919
305.738	0.0	+	29	noun	list	1	11	nomatch	tablier	-1	1	p	0.48919
306.1379	0.0	+	29	noun	list	1	12	nomatch	tablier	-1	1	p	0.48919
308.137	0.0	TABLIER	29	noun	list	1	13	nomatch	tablier	-1	1	p	0.48919
308.6867	0.0	+	29	noun	list	1	14	nomatch	tablier	-1	1	p	0.48919
308.6262	0.0	[response]	29	noun	list	1	15	nomatch	tablier	-1	1	p	0.48919
310.53589999999997	0.0	+	30	noun	list	2	1	match	voilier	5	1	y	0.68003
311.0857	0.2	vzsnj	30	noun	list	2	2	match	voilier	5	1	y	0.68003
311.2856	0.0	+	30	noun	list	2	3	match	voilier	5	1	y	0.68003
311.6854	0.2	xjng	30	noun	list	2	4	match	voilier	5	1	y	0.68003
311.8853	0.0	+	30	noun	list	2	5	match	voilier	5	1	y	0.68003
312.2851	0.2	qtk	30	noun	list	2	6	match	voilier	5	1	y	0.68003
312.485	0.0	+	30	noun	list	2	7	match	voilier	5	1	y	0.68003
312.8849	0.2	plus	30	noun	list	2	8	match	voilier	5	1	y	0.68003
313.0848	0.0	+	30	noun	list	2	9	match	voilier	5	1	y	0.68003
313.4846	0.2	voilier	30	noun	list	2	10	match	voilier	5	1	y	0.68003
313.6845	0.0	+	30	noun	list	2	11	match	voilier	5	1	y	0.68003
314.0843	0.0	+	30	noun	list	2	12	match	voilier	5	1	y	0.68003
316.1001	0.0	VOILIER	30	noun	list	2	13	match	voilier	5	1	y	0.68003
316.8331	0.0	+	30	noun	list	2	14	match	voilier	5	1	y	0.68003
316.7801	0.0	[response]	30	noun	list	2	15	match	voilier	5	1	y	0.68003
318.49899999999997	0.0	+	31	noun	phrase	1	1	match	vieux	5	1	y	0.82223
319.04879999999997	0.2	cjbs	31	noun	phrase	1	2	match	vieux	5	1	y	0.82223
319.2487	0.0	+	31	noun	phrase	1	3	match	vieux	5	1	y	0.82223
319.6485	0.2	kdx	31	noun	phrase	1	4	match	vieux	5	1	y	0.82223
319.84839999999997	0.0	+	31	noun	phrase	1	5	match	vieux	5	1	y	0.82223
320.2482	0.2	wgh	31	noun	phrase	1	6	match	vieux	5	1	y	0.82223
320.4482	0.0	+	31	noun	phrase	1	7	match	vieux	5	1	y	0.82223
320.848	0.2	dbtgrkh	31	noun	phrase	1	8	match	vieux	5	1	y	0.82223
321.04789999999997	0.0	+	31	noun	phrase	1	9	match	vieux	5	1	y	0.82223
321.4477	0.2	vieux	31	noun	phrase	1	10	match	vieux	5	1	y	0.82223
321.6476	0.0	+	31	noun	phrase	1	11	match	vieux	5	1	y	0.82223
322.0474	0.0	+	31	noun	phrase	1	12	match	vieux	5	1	y	0.82223
324.0465	0.0	VIEUX	31	noun	phrase	1	13	match	vieux	5	1	y	0.82223
324.9295	0.0	+	31	noun	phrase	1	14	match	vieux	5	1	y	0.82223
324.86879999999996	0.0	[response]	31	noun	phrase	1	15	match	vieux	5	1	y	0.82223
342.43829999999997	0.0	+	32	noun	phrase	4	1	nomatch	leur	-1	1	p	0.58394
342.9881	0.2	gpqtnm	32	noun	phrase	4	2	nomatch	leur	-1	1	p	0.58394
343.188	0.0	+	32	noun	phrase	4	3	nomatch	leur	-1	1	p	0.58394
343.5878	0.2	sous	32	noun	phrase	4	4	nomatch	leur	-1	1	p	0.58394
343.7877	0.0	+	32	noun	phrase	4	5	nomatch	leur	-1	1	p	0.58394
344.1876	0.2	mon	32	noun	phrase	4	6	nomatch	leur	-1	1	p	0.58394
344.3875	0.0	+	32	noun	phrase	4	7	nomatch	leur	-1	1	p	0.58394
344.7873	0.2	sablier	32	noun	phrase	4	8	nomatch	leur	-1	1	p	0.58394
344.9872	0.0	+	32	noun	phrase	4	9	nomatch	leur	-1	1	p	0.58394
345.387	0.2	vert	32	noun	phrase	4	10	nomatch	leur	-1	1	p	0.58394
345.5869	0.0	+	32	noun	phrase	4	11	nomatch	leur	-1	1	p	0.58394
345.9868	0.0	+	32	noun	phrase	4	12	nomatch	leur	-1	1	p	0.58394
347.9859	0.0	LEUR	32	noun	phrase	4	13	nomatch	leur	-1	1	p	0.58394
348.6356	0.0	+	32	noun	phrase	4	14	nomatch	leur	-1	1	p	0.58394
348.56980000000004	0.0	[response]	32	noun	phrase	4	15	nomatch	leur	-1	1	p	0.58394
350.3848	0.0	+	33	noun	phrase	2	1	match	casier	5	1	y	0.5099
350.9346	0.2	cxph	33	noun	phrase	2	2	match	casier	5	1	y	0.5099
351.1345	0.0	+	33	noun	phrase	2	3	match	casier	5	1	y	0.5099
351.5343	0.2	dglq	33	noun	phrase	2	4	match	casier	5	1	y	0.5099
351.7342	0.0	+	33	noun	phrase	2	5	match	casier	5	1	y	0.5099
352.134	0.2	wgh	33	noun	phrase	2	6	match	casier	5	1	y	0.5099
352.33389999999997	0.0	+	33	noun	phrase	2	7	match	casier	5	1	y	0.5099
352.7338	0.2	grand	33	noun	phrase	2	8	match	casier	5	1	y	0.5099
352.9337	0.0	+	33	noun	phrase	2	9	match	casier	5	1	y	0.5099
353.3501	0.2	casier	33	noun	phrase	2	10	match	casier	5	1	y	0.5099
353.5501	0.0	+	33	noun	phrase	2	11	match	casier	5	1	y	0.5099
353.9499	0.0	+	33	noun	phrase	2	12	match	casier	5	1	y	0.5099
355.949	0.0	CASIER	33	noun	phrase	2	13	match	casier	5	1	y	0.5099
356.5154	0.0	+	33	noun	phrase	2	14	match	casier	5	1	y	0.5099
356.4589	0.0	[response]	33	noun	phrase	2	15	match	casier	5	1	y	0.5099
358.3479	0.0	+	34	noun	list	2	1	nomatch	sablier	-1	1	p	0.65332
358.8977	0.2	tdgb	34	noun	list	2	2	nomatch	sablier	-1	1	p	0.65332
359.0976	0.0	+	34	noun	list	2	3	nomatch	sablier	-1	1	p	0.65332
359.49739999999997	0.2	hndz	34	noun	list	2	4	nomatch	sablier	-1	1	p	0.65332
359.6973	0.0	+	34	noun	list	2	5	nomatch	sablier	-1	1	p	0.65332
360.0971	0.2	gh	34	noun	list	2	6	nomatch	sablier	-1	1	p	0.65332
360.2971	0.0	+	34	noun	list	2	7	nomatch	sablier	-1	1	p	0.65332
360.69689999999997	0.2	rocher	34	noun	list	2	8	nomatch	sablier	-1	1	p	0.65332
360.8968	0.0	+	34	noun	list	2	9	nomatch	sablier	-1	1	p	0.65332
361.2966	0.2	vite	34	noun	list	2	10	nomatch	sablier	-1	1	p	0.65332
361.49649999999997	0.0	+	34	noun	list	2	11	nomatch	sablier	-1	1	p	0.65332
361.8963	0.0	+	34	noun	list	2	12	nomatch	sablier	-1	1	p	0.65332
363.8954	0.0	SABLIER	34	noun	list	2	13	nomatch	sablier	-1	1	p	0.65332
364.6118	0.0	+	34	noun	list	2	14	nomatch	sablier	-1	1	p	0.65332
364.54879999999997	0.0	[response]	34	noun	list	2	15	nomatch	sablier	-1	1	p	0.65332
366.2944	0.0	+	35	verb	list	1	1	match	bleu	5	1	y	0.40354
366.84409999999997	0.2	rbnhjmt	35	verb	list	1	2	match	bleu	5	1	y	0.40354
367.044	0.0	+	35	verb	list	1	3	match	bleu	5	1	y	0.40354
367.4439	0.2	pmch	35	verb	list	1	4	match	bleu	5	1	y	0.40354
367.6438	0.0	+	35	verb	list	1	5	match	bleu	5	1	y	0.40354
368.04359999999997	0.2	qtk	35	verb	list	1	6	match	bleu	5	1	y	0.40354
368.2435	0.0	+	35	verb	list	1	7	match	bleu	5	1	y	0.40354
368.6433	0.2	kwfjqt	35	verb	list	1	8	match	bleu	5	1	y	0.40354
368.84319999999997	0.0	+	35	verb	list	1	9	match	bleu	5	1	y	0.40354
369.24309999999997	0.2	bleu	35	verb	list	1	10	match	bleu	5	1	y	0.40354
369.443	0.0	+	35	verb	list	1	11	match	bleu	5	1	y	0.40354
369.8428	0.0	+	35	verb	list	1	12	match	bleu	5	1	y	0.40354
371.8419	0.0	BLEU	35	verb	list	1	13	match	bleu	5	1	y	0.40354
372.3084	0.0	+	35	verb	list	1	14	match	bleu	5	1	y	0.40354
372.2454	0.0	[response]	35	verb	list	1	15	match	bleu	5	1	y	0.40354
374.2408	0.0	+	36	verb	phrase	4	1	match	doit	3	1	y	0.61339
374.7906	0.2	gth	36	verb	phrase	4	2	match	doit	3	1	y	0.61339
374.9905	0.0	+	36	verb	phrase	4	3	match	doit	3	1	y	0.61339
375.39029999999997	0.2	marc	36	verb	phrase	4	4	match	doit	3	1	y	0.61339
375.5902	0.0	+	36	verb	phrase	4	5	match	doit	3	1	y	0.61339
375.9901	0.2	doit	36	verb	phrase	4	6	match	doit	3	1	y	0.61339
376.19	0.0	+	36	verb	phrase	4	7	match	doit	3	1	y	0.61339
376.58979999999997	0.2	nager	36	verb	phrase	4	8	match	doit	3	1	y	0.61339
376.7897	0.0	+	36	verb	phrase	4	9	match	doit	3	1	y	0.61339
377.1895	0.2	ainsi	36	verb	phrase	4	10	match	doit	3	1	y	0.61339
377.38939999999997	0.0	+	36	verb	phrase	4	11	match	doit	3	1	y	0.61339
377.7892	0.0	+	36	verb	phrase	4	12	match	doit	3	1	y	0.61339
379.78839999999997	0.0	DOIT	36	verb	phrase	4	13	match	doit	3	1	y	0.61339
380.4547	0.0	+	36	verb	phrase	4	14	match	doit	3	1	y	0.61339
380.4017	0.0	[response]	36	verb	phrase	4	15	match	doit	3	1	y	0.61339
382.1873	0.0	+	37	noun	list	4	1	match	son	3	1	y	0.62496
382.73699999999997	0.2	vmqtx	37	noun	list	4	2	match	son	3	1	y	0.62496
382.937	0.0	+	37	noun	list	4	3	match	son	3	1	y	0.62496
383.3368	0.2	adam	37	noun	list	4	4	match	son	3	1	y	0.62496
383.5367	0.0	+	37	noun	list	4	5	match	son	3	1	y	0.62496
383.93649999999997	0.2	son	37	noun	list	4	6	match	son	3	1	y	0.62496
384.1364	0.0	+	37	noun	list	4	7	match	son	3	1	y	0.62496
384.5362	0.2	mieux	37	noun	list	4	8	match	son	3	1	y	0.62496
384.73609999999996	0.0	+	37	noun	list	4	9	match	son	3	1	y	0.62496
385.13599999999997	0.2	boîtier	37	noun	list	4	10	match	son	3	1	y	0.62496
385.3359	0.0	+	37	noun	list	4	11	match	son	3	1	y	0.62496
385.7357	0.0	+	37	noun	list	4	12	match	son	3	1	y	0.62496
387.7348	0.0	SON	37	noun	list	4	13	match	son	3	1	y	0.62496
388.4178	0.0	+	37	noun	list	4	14	match	son	3	1	y	0.62496
388.3598	0.0	[response]	37	noun	list	4	15	match	son	3	1	y	0.62496
390.1337	0.0	+	38	verb	phrase	4	1	nomatch	moins	-1	1	p	0.5524
390.7002	0.2	shvdqj	38	verb	phrase	4	2	nomatch	moins	-1	1	p	0.5524
390.9001	0.0	+	38	verb	phrase	4	3	nomatch	moins	-1	1	p	0.5524
391.2999	0.2	luc	38	verb	phrase	4	4	nomatch	moins	-1	1	p	0.5524
391.4998	0.0	+	38	verb	phrase	4	5	nomatch	moins	-1	1	p	0.5524
391.89959999999996	0.2	peut	38	verb	phrase	4	6	nomatch	moins	-1	1	p	0.5524
392.0995	0.0	+	38	verb	phrase	4	7	nomatch	moins	-1	1	p	0.5524
392.4993	0.2	beaucoup	38	verb	phrase	4	8	nomatch	moins	-1	1	p	0.5524
392.6993	0.0	+	38	verb	phrase	4	9	nomatch	moins	-1	1	p	0.5524
393.09909999999996	0.2	patiner	38	verb	phrase	4	10	nomatch	moins	-1	1	p	0.5524
393.299	0.0	+	38	verb	phrase	4	11	nomatch	moins	-1	1	p	0.5524
393.6988	0.0	+	38	verb	phrase	4	12	nomatch	moins	-1	1	p	0.5524
395.6979	0.0	MOINS	38	verb	phrase	4	13	nomatch	moins	-1	1	p	0.5524
396.3143	0.0	+	38	verb	phrase	4	14	nomatch	moins	-1	1	p	0.5524
396.2503	0.0	[response]	38	verb	phrase	4	15	nomatch	moins	-1	1	p	0.5524
398.0968	0.0	+	39	noun	phrase	1	1	nomatch	voilier	-1	1	p	0.52518
398.6466	0.2	hmb	39	noun	phrase	1	2	nomatch	voilier	-1	1	p	0.52518
398.8465	0.0	+	39	noun	phrase	1	3	nomatch	voilier	-1	1	p	0.52518
399.2463	0.2	pbxw	39	noun	phrase	1	4	nomatch	voilier	-1	1	p	0.52518
399.4463	0.0	+	39	noun	phrase	1	5	nomatch	voilier	-1	1	p	0.52518
399.8461	0.2	wgh	39	noun	phrase	1	6	nomatch	voilier	-1	1	p	0.52518
400.046	0.0	+	39	noun	phrase	1	7	nomatch	voilier	-1	1	p	0.52518
400.4458	0.2	hcjsp	39	noun	phrase	1	8	nomatch	voilier	-1	1	p	0.52518
400.6457	0.0	+	39	noun	phrase	1	9	nomatch	voilier	-1	1	p	0.52518
401.0455	0.2	rocher	39	noun	phrase	1	10	nomatch	voilier	-1	1	p	0.52518
401.2454	0.0	+	39	noun	phrase	1	11	nomatch	voilier	-1	1	p	0.52518
401.6453	0.0	+	39	noun	phrase	1	12	nomatch	voilier	-1	1	p	0.52518
403.6444	0.0	VOILIER	39	noun	phrase	1	13	nomatch	voilier	-1	1	p	0.52518
404.22749999999996	0.0	+	39	noun	phrase	1	14	nomatch	voilier	-1	1	p	0.52518
404.1696	0.0	[response]	39	noun	phrase	1	15	nomatch	voilier	-1	1	p	0.52518
406.0433	0.0	+	40	noun	phrase	1	1	nomatch	casier	-1	1	p	0.5146
406.5931	0.2	msb	40	noun	phrase	1	2	nomatch	casier	-1	1	p	0.5146
406.793	0.0	+	40	noun	phrase	1	3	nomatch	casier	-1	1	p	0.5146
407.1928	0.2	dglq	40	noun	phrase	1	4	nomatch	casier	-1	1	p	0.5146
407.3927	0.0	+	40	noun	phrase	1	5	nomatch	casier	-1	1	p	0.5146
407.7925	0.2	wtrz	40	noun	phrase	1	6	nomatch	casier	-1	1	p	0.5146
407.9924	0.0	+	40	noun	phrase	1	7	nomatch	casier	-1	1	p	0.5146
408.3923	0.2	snjdl	40	noun	phrase	1	8	nomatch	casier	-1	1	p	0.5146
408.5922	0.0	+	40	noun	phrase	1	9	nomatch	casier	-1	1	p	0.5146
408.992	0.2	sablier	40	noun	phrase	1	10	nomatch	casier	-1	1	p	0.5146
409.1919	0.0	+	40	noun	phrase	1	11	nomatch	casier	-1	1	p	0.5146
409.5917	0.0	+	40	noun	phrase	1	12	nomatch	casier	-1	1	p	0.5146
411.5908	0.0	CASIER	40	noun	phrase	1	13	nomatch	casier	-1	1	p	0.5146
412.15729999999996	0.0	+	40	noun	phrase	1	14	nomatch	casier	-1	1	p	0.5146
412.1054	0.0	[response]	40	noun	phrase	1	15	nomatch	casier	-1	1	p	0.5146
421.9862	0.0	+	41	verb	list	2	1	nomatch	ainsi	-1	1	p	0.64152
422.536	0.2	qcmdr	41	verb	list	2	2	nomatch	ainsi	-1	1	p	0.64152
422.7359	0.0	+	41	verb	list	2	3	nomatch	ainsi	-1	1	p	0.64152
423.1357	0.2	jxrw	41	verb	list	2	4	nomatch	ainsi	-1	1	p	0.64152
423.3356	0.0	+	41	verb	list	2	5	nomatch	ainsi	-1	1	p	0.64152
423.73539999999997	0.2	sjkg	41	verb	list	2	6	nomatch	ainsi	-1	1	p	0.64152
423.9353	0.0	+	41	verb	list	2	7	nomatch	ainsi	-1	1	p	0.64152
424.3352	0.2	grand	41	verb	list	2	8	nomatch	ainsi	-1	1	p	0.64152
424.5351	0.0	+	41	verb	list	2	9	nomatch	ainsi	-1	1	p	0.64152
424.93489999999997	0.2	galoper	41	verb	list	2	10	nomatch	ainsi	-1	1	p	0.64152
425.1348	0.0	+	41	verb	list	2	11	nomatch	ainsi	-1	1	p	0.64152
425.5346	0.0	+	41	verb	list	2	12	nomatch	ainsi	-1	1	p	0.64152
427.5337	0.0	AINSI	41	verb	list	2	13	nomatch	ainsi	-1	1	p	0.64152
428.2334	0.0	+	41	verb	list	2	14	nomatch	ainsi	-1	1	p	0.64152
428.1752000000001	0.0	[response]	41	verb	list	2	15	nomatch	ainsi	-1	1	p	0.64152
429.9493	0.0	+	42	verb	list	2	1	nomatch	patiner	-1	1	p	0.74011
430.4991	0.2	cdsf	42	verb	list	2	2	nomatch	patiner	-1	1	p	0.74011
430.699	0.0	+	42	verb	list	2	3	nomatch	patiner	-1	1	p	0.74011
431.0988	0.2	sqt	42	verb	list	2	4	nomatch	patiner	-1	1	p	0.74011
431.2987	0.0	+	42	verb	list	2	5	nomatch	patiner	-1	1	p	0.74011
431.69849999999997	0.2	qtk	42	verb	list	2	6	nomatch	patiner	-1	1	p	0.74011
431.8984	0.0	+	42	verb	list	2	7	nomatch	patiner	-1	1	p	0.74011
432.2983	0.2	plonger	42	verb	list	2	8	nomatch	patiner	-1	1	p	0.74011
432.4982	0.0	+	42	verb	list	2	9	nomatch	patiner	-1	1	p	0.74011
432.89799999999997	0.2	noir	42	verb	list	2	10	nomatch	patiner	-1	1	p	0.74011
433.0979	0.0	+	42	verb	list	2	11	nomatch	patiner	-1	1	p	0.74011
433.4977	0.0	+	42	verb	list	2	12	nomatch	patiner	-1	1	p	0.74011
435.4968	0.0	PATINER	42	verb	list	2	13	nomatch	patiner	-1	1	p	0.74011
436.2965	0.0	+	42	verb	list	2	14	nomatch	patiner	-1	1	p	0.74011
436.23699999999997	0.0	[response]	42	verb	list	2	15	nomatch	patiner	-1	1	p	0.74011
437.8958	0.0	+	43	noun	list	4	1	nomatch	beaucoup	-1	1	p	0.53573
438.4455	0.2	wbdt	43	noun	list	4	2	nomatch	beaucoup	-1	1	p	0.53573
438.6454	0.0	+	43	noun	list	4	3	nomatch	beaucoup	-1	1	p	0.53573
439.0453	0.2	luc	43	noun	list	4	4	nomatch	beaucoup	-1	1	p	0.53573
439.2452	0.0	+	43	noun	list	4	5	nomatch	beaucoup	-1	1	p	0.53573
439.645	0.2	son	43	noun	list	4	6	nomatch	beaucoup	-1	1	p	0.53573
439.8449	0.0	+	43	noun	list	4	7	nomatch	beaucoup	-1	1	p	0.53573
440.24469999999997	0.2	trop	43	noun	list	4	8	nomatch	beaucoup	-1	1	p	0.53573
440.4446	0.0	+	43	noun	list	4	9	nomatch	beaucoup	-1	1	p	0.53573
440.8444	0.2	cendrier	43	noun	list	4	10	nomatch	beaucoup	-1	1	p	0.53573
441.0444	0.0	+	43	noun	list	4	11	nomatch	beaucoup	-1	1	p	0.53573
441.44419999999997	0.0	+	43	noun	list	4	12	nomatch	beaucoup	-1	1	p	0.53573
443.44329999999997	0.0	BEAUCOUP	43	noun	list	4	13	nomatch	beaucoup	-1	1	p	0.53573
444.043	0.0	+	43	noun	list	4	14	nomatch	beaucoup	-1	1	p	0.53573
443.979	0.0	[response]	43	noun	list	4	15	nomatch	beaucoup	-1	1	p	0.53573
445.8422	0.0	+	44	verb	phrase	2	1	match	plonger	4	1	y	0.45854
446.392	0.2	dtvq	44	verb	phrase	2	2	match	plonger	4	1	y	0.45854
446.5919	0.0	+	44	verb	phrase	2	3	match	plonger	4	1	y	0.45854
446.9917	0.2	sqt	44	verb	phrase	2	4	match	plonger	4	1	y	0.45854
447.1916	0.0	+	44	verb	phrase	2	5	match	plonger	4	1	y	0.45854
447.59139999999996	0.2	sjkg	44	verb	phrase	2	6	match	plonger	4	1	y	0.45854
447.7913	0.0	+	44	verb	phrase	2	7	match	plonger	4	1	y	0.45854
448.1912	0.2	plonger	44	verb	phrase	2	8	match	plonger	4	1	y	0.45854
448.3911	0.0	+	44	verb	phrase	2	9	match	plonger	4	1	y	0.45854
448.79089999999997	0.2	ainsi	44	verb	phrase	2	10	match	plonger	4	1	y	0.45854
448.9908	0.0	+	44	verb	phrase	2	11	match	plonger	4	1	y	0.45854
449.3906	0.0	+	44	verb	phrase	2	12	match	plonger	4	1	y	0.45854
451.3898	0.0	PLONGER	44	verb	phrase	2	13	match	plonger	4	1	y	0.45854
451.9062	0.0	+	44	verb	phrase	2	14	match	plonger	4	1	y	0.45854
451.84830000000005	0.0	[response]	44	verb	phrase	2	15	match	plonger	4	1	y	0.45854
453.7887	0.0	+	45	verb	phrase	1	1	nomatch	beau	-1	1	p	0.81658
454.3384	0.2	vcwtbqf	45	verb	phrase	1	2	nomatch	beau	-1	1	p	0.81658
454.5383	0.0	+	45	verb	phrase	1	3	nomatch	beau	-1	1	p	0.81658
454.9382	0.2	zhgv	45	verb	phrase	1	4	nomatch	beau	-1	1	p	0.81658
455.1381	0.0	+	45	verb	phrase	1	5	nomatch	beau	-1	1	p	0.81658
455.5379	0.2	dckl	45	verb	phrase	1	6	nomatch	beau	-1	1	p	0.81658
455.7378	0.0	+	45	verb	phrase	1	7	nomatch	beau	-1	1	p	0.81658
456.13759999999996	0.2	zmlgtwv	45	verb	phrase	1	8	nomatch	beau	-1	1	p	0.81658
456.3375	0.0	+	45	verb	phrase	1	9	nomatch	beau	-1	1	p	0.81658
456.7374	0.2	vite	45	verb	phrase	1	10	nomatch	beau	-1	1	p	0.81658
456.9373	0.0	+	45	verb	phrase	1	11	nomatch	beau	-1	1	p	0.81658
457.33709999999996	0.0	+	45	verb	phrase	1	12	nomatch	beau	-1	1	p	0.81658
459.3362	0.0	BEAU	45	verb	phrase	1	13	nomatch	beau	-1	1	p	0.81658
460.21909999999997	0.0	+	45	verb	phrase	1	14	nomatch	beau	-1	1	p	0.81658
460.1528	0.0	[response]	45	verb	phrase	1	15	nomatch	beau	-1	1	p	0.81658
461.7351	0.0	+	46	verb	list	4	1	match	adam	2	1	y	0.59215
462.28489999999994	0.2	bfq	46	verb	list	4	2	match	adam	2	1	y	0.59215
462.4848	0.0	+	46	verb	list	4	3	match	adam	2	1	y	0.59215
462.88460000000003	0.2	adam	46	verb	list	4	4	match	adam	2	1	y	0.59215
463.0845	0.0	+	46	verb	list	4	5	match	adam	2	1	y	0.59215
463.4844	0.2	son	46	verb	list	4	6	match	adam	2	1	y	0.59215
463.68429999999995	0.0	+	46	verb	list	4	7	match	adam	2	1	y	0.59215
464.0841	0.2	jongler	46	verb	list	4	8	match	adam	2	1	y	0.59215
464.28400000000005	0.0	+	46	verb	list	4	9	match	adam	2	1	y	0.59215
464.68379999999996	0.2	noir	46	verb	list	4	10	match	adam	2	1	y	0.59215
464.88370000000003	0.0	+	46	verb	list	4	11	match	adam	2	1	y	0.59215
465.28360000000004	0.0	+	46	verb	list	4	12	match	adam	2	1	y	0.59215
467.29929999999996	0.0	ADAM	46	verb	list	4	13	match	adam	2	1	y	0.59215
467.949	0.0	+	46	verb	list	4	14	match	adam	2	1	y	0.59215
467.8915	0.0	[response]	46	verb	list	4	15	match	adam	2	1	y	0.59215
477.69469999999995	0.0	+	47	noun	list	3	1	nomatch	plonger	-1	1	p	0.53922
478.2444	0.2	wlpcrt	47	noun	list	3	2	nomatch	plonger	-1	1	p	0.53922
478.44440000000003	0.0	+	47	noun	list	3	3	nomatch	plonger	-1	1	p	0.53922
478.84419999999994	0.2	hndz	47	noun	list	3	4	nomatch	plonger	-1	1	p	0.53922
479.0441	0.0	+	47	noun	list	3	5	nomatch	plonger	-1	1	p	0.53922
479.44390000000004	0.2	doit	47	noun	list	3	6	nomatch	plonger	-1	1	p	0.53922
479.6438	0.0	+	47	noun	list	3	7	nomatch	plonger	-1	1	p	0.53922
480.0436	0.2	voilier	47	noun	list	3	8	nomatch	plonger	-1	1	p	0.53922
480.24359999999996	0.0	+	47	noun	list	3	9	nomatch	plonger	-1	1	p	0.53922
480.6434	0.2	vite	47	noun	list	3	10	nomatch	plonger	-1	1	p	0.53922
480.84329999999994	0.0	+	47	noun	list	3	11	nomatch	plonger	-1	1	p	0.53922
481.24309999999997	0.0	+	47	noun	list	3	12	nomatch	plonger	-1	1	p	0.53922
483.24219999999997	0.0	PLONGER	47	noun	list	3	13	nomatch	plonger	-1	1	p	0.53922
483.84189999999995	0.0	+	47	noun	list	3	14	nomatch	plonger	-1	1	p	0.53922
483.7814	0.0	[response]	47	noun	list	3	15	nomatch	plonger	-1	1	p	0.53922
485.6411	0.0	+	48	noun	list	1	1	nomatch	vieux	-1	1	p	0.77297
486.1909	0.2	tbkjsg	48	noun	list	1	2	nomatch	vieux	-1	1	p	0.77297
486.39079999999996	0.0	+	48	noun	list	1	3	nomatch	vieux	-1	1	p	0.77297
486.7906	0.2	pbxw	48	noun	list	1	4	nomatch	vieux	-1	1	p	0.77297
486.99049999999994	0.0	+	48	noun	list	1	5	nomatch	vieux	-1	1	p	0.77297
487.39039999999994	0.2	sjkg	48	noun	list	1	6	nomatch	vieux	-1	1	p	0.77297
487.5903	0.0	+	48	noun	list	1	7	nomatch	vieux	-1	1	p	0.77297
487.99010000000004	0.2	fxjts	48	noun	list	1	8	nomatch	vieux	-1	1	p	0.77297
488.19	0.0	+	48	noun	list	1	9	nomatch	vieux	-1	1	p	0.77297
488.5898	0.2	panier	48	noun	list	1	10	nomatch	vieux	-1	1	p	0.77297
488.7897	0.0	+	48	noun	list	1	11	nomatch	vieux	-1	1	p	0.77297
489.1896	0.0	+	48	noun	list	1	12	nomatch	vieux	-1	1	p	0.77297
491.1887	0.0	VIEUX	48	noun	list	1	13	nomatch	vieux	-1	1	p	0.77297
492.0216	0.0	+	48	noun	list	1	14	nomatch	vieux	-1	1	p	0.77297
491.96160000000003	0.0	[response]	48	noun	list	1	15	nomatch	vieux	-1	1	p	0.77297
493.5876	0.0	+	49	verb	list	1	1	nomatch	rouler	-1	1	p	0.4936400000000001
494.1374	0.2	dgc	49	verb	list	1	2	nomatch	rouler	-1	1	p	0.4936400000000001
494.33729999999997	0.0	+	49	verb	list	1	3	nomatch	rouler	-1	1	p	0.4936400000000001
494.7371	0.2	jxrw	49	verb	list	1	4	nomatch	rouler	-1	1	p	0.4936400000000001
494.93699999999995	0.0	+	49	verb	list	1	5	nomatch	rouler	-1	1	p	0.4936400000000001
495.3368	0.2	dckl	49	verb	list	1	6	nomatch	rouler	-1	1	p	0.4936400000000001
495.53669999999994	0.0	+	49	verb	list	1	7	nomatch	rouler	-1	1	p	0.4936400000000001
495.93649999999997	0.2	qvwgclr	49	verb	list	1	8	nomatch	rouler	-1	1	p	0.4936400000000001
496.1365	0.0	+	49	verb	list	1	9	nomatch	rouler	-1	1	p	0.4936400000000001
496.53630000000004	0.2	voyager	49	verb	list	1	10	nomatch	rouler	-1	1	p	0.4936400000000001
496.7362	0.0	+	49	verb	list	1	11	nomatch	rouler	-1	1	p	0.4936400000000001
497.136	0.0	+	49	verb	list	1	12	nomatch	rouler	-1	1	p	0.4936400000000001
499.1351	0.0	ROULER	49	verb	list	1	13	nomatch	rouler	-1	1	p	0.4936400000000001
499.6849	0.0	+	49	verb	list	1	14	nomatch	rouler	-1	1	p	0.4936400000000001
499.6288	0.0	[response]	49	verb	list	1	15	nomatch	rouler	-1	1	p	0.4936400000000001
501.5341	0.0	+	50	verb	list	1	1	match	bleu	5	1	y	0.78574
502.08379999999994	0.2	ptz	50	verb	list	1	2	match	bleu	5	1	y	0.78574
502.2837	0.0	+	50	verb	list	1	3	match	bleu	5	1	y	0.78574
502.6836	0.2	xgjw	50	verb	list	1	4	match	bleu	5	1	y	0.78574
502.9001	0.0	+	50	verb	list	1	5	match	bleu	5	1	y	0.78574
503.3	0.2	wtrz	50	verb	list	1	6	match	bleu	5	1	y	0.78574
503.4998	0.0	+	50	verb	list	1	7	match	bleu	5	1	y	0.78574
503.8997	0.2	xzkpvbl	50	verb	list	1	8	match	bleu	5	1	y	0.78574
504.09959999999995	0.0	+	50	verb	list	1	9	match	bleu	5	1	y	0.78574
504.4994	0.2	bleu	50	verb	list	1	10	match	bleu	5	1	y	0.78574
504.69929999999994	0.0	+	50	verb	list	1	11	match	bleu	5	1	y	0.78574
505.09909999999996	0.0	+	50	verb	list	1	12	match	bleu	5	1	y	0.78574
507.09819999999996	0.0	BLEU	50	verb	list	1	13	match	bleu	5	1	y	0.78574
507.94789999999995	0.0	+	50	verb	list	1	14	match	bleu	5	1	y	0.78574
507.88399999999996	0.0	[response]	50	verb	list	1	15	match	bleu	5	1	y	0.78574
509.49719999999996	0.0	+	51	verb	list	4	1	match	sur	2	1	y	0.70922
510.0469	0.2	hzmt	51	verb	list	4	2	match	sur	2	1	y	0.70922
510.24679999999995	0.0	+	51	verb	list	4	3	match	sur	2	1	y	0.70922
510.64669999999995	0.2	sur	51	verb	list	4	4	match	sur	2	1	y	0.70922
510.8466	0.0	+	51	verb	list	4	5	match	sur	2	1	y	0.70922
511.24639999999994	0.2	va	51	verb	list	4	6	match	sur	2	1	y	0.70922
511.4463	0.0	+	51	verb	list	4	7	match	sur	2	1	y	0.70922
511.84610000000004	0.2	beau	51	verb	list	4	8	match	sur	2	1	y	0.70922
512.046	0.0	+	51	verb	list	4	9	match	sur	2	1	y	0.70922
512.4459	0.2	patiner	51	verb	list	4	10	match	sur	2	1	y	0.70922
512.6458	0.0	+	51	verb	list	4	11	match	sur	2	1	y	0.70922
513.0456	0.0	+	51	verb	list	4	12	match	sur	2	1	y	0.70922
515.0447	0.0	SUR	51	verb	list	4	13	match	sur	2	1	y	0.70922
515.811	0.0	+	51	verb	list	4	14	match	sur	2	1	y	0.70922
515.7539	0.0	[response]	51	verb	list	4	15	match	sur	2	1	y	0.70922
517.4436000000001	0.0	+	52	noun	phrase	3	1	match	noir	5	1	y	0.5758
517.9934000000001	0.2	ptdqw	52	noun	phrase	3	2	match	noir	5	1	y	0.5758
518.1933	0.0	+	52	noun	phrase	3	3	match	noir	5	1	y	0.5758
518.5931	0.2	qmjf	52	noun	phrase	3	4	match	noir	5	1	y	0.5758
518.793	0.0	+	52	noun	phrase	3	5	match	noir	5	1	y	0.5758
519.1928	0.2	son	52	noun	phrase	3	6	match	noir	5	1	y	0.5758
519.3927000000001	0.0	+	52	noun	phrase	3	7	match	noir	5	1	y	0.5758
519.7926	0.2	cendrier	52	noun	phrase	3	8	match	noir	5	1	y	0.5758
519.9925000000001	0.0	+	52	noun	phrase	3	9	match	noir	5	1	y	0.5758
520.3923000000001	0.2	noir	52	noun	phrase	3	10	match	noir	5	1	y	0.5758
520.5922	0.0	+	52	noun	phrase	3	11	match	noir	5	1	y	0.5758
520.9920000000001	0.0	+	52	noun	phrase	3	12	match	noir	5	1	y	0.5758
522.9911000000001	0.0	NOIR	52	noun	phrase	3	13	match	noir	5	1	y	0.5758
523.6242000000001	0.0	+	52	noun	phrase	3	14	match	noir	5	1	y	0.5758
523.5669	0.0	[response]	52	noun	phrase	3	15	match	noir	5	1	y	0.5758
533.3865000000001	0.0	+	53	verb	list	1	1	match	chasser	5	1	y	0.59558
533.9363000000001	0.2	njqbgx	53	verb	list	1	2	match	chasser	5	1	y	0.59558
534.1362	0.0	+	53	verb	list	1	3	match	chasser	5	1	y	0.59558
534.5360000000001	0.2	pmch	53	verb	list	1	4	match	chasser	5	1	y	0.59558
534.7359	0.0	+	53	verb	list	1	5	match	chasser	5	1	y	0.59558
535.1357	0.2	qtk	53	verb	list	1	6	match	chasser	5	1	y	0.59558
535.3356	0.0	+	53	verb	list	1	7	match	chasser	5	1	y	0.59558
535.7355	0.2	snjdl	53	verb	list	1	8	match	chasser	5	1	y	0.59558
535.9354000000001	0.0	+	53	verb	list	1	9	match	chasser	5	1	y	0.59558
536.3352000000001	0.2	chasser	53	verb	list	1	10	match	chasser	5	1	y	0.59558
536.5351	0.0	+	53	verb	list	1	11	match	chasser	5	1	y	0.59558
536.9349000000001	0.0	+	53	verb	list	1	12	match	chasser	5	1	y	0.59558
538.9340000000001	0.0	CHASSER	53	verb	list	1	13	match	chasser	5	1	y	0.59558
539.5837	0.0	+	53	verb	list	1	14	match	chasser	5	1	y	0.59558
539.5296000000002	0.0	[response]	53	verb	list	1	15	match	chasser	5	1	y	0.59558
541.3496	0.0	+	54	verb	list	4	1	nomatch	rocher	-1	1	p	0.67498
541.8994	0.2	zswmrnx	54	verb	list	4	2	nomatch	rocher	-1	1	p	0.67498
542.0993000000001	0.0	+	54	verb	list	4	3	nomatch	rocher	-1	1	p	0.67498
542.4991	0.2	paul	54	verb	list	4	4	nomatch	rocher	-1	1	p	0.67498
542.6990000000001	0.0	+	54	verb	list	4	5	nomatch	rocher	-1	1	p	0.67498
543.0988000000001	0.2	mon	54	verb	list	4	6	nomatch	rocher	-1	1	p	0.67498
543.2988	0.0	+	54	verb	list	4	7	nomatch	rocher	-1	1	p	0.67498
543.6986	0.2	nager	54	verb	list	4	8	nomatch	rocher	-1	1	p	0.67498
543.8985	0.0	+	54	verb	list	4	9	nomatch	rocher	-1	1	p	0.67498
544.2983	0.2	bleu	54	verb	list	4	10	nomatch	rocher	-1	1	p	0.67498
544.4982	0.0	+	54	verb	list	4	11	nomatch	rocher	-1	1	p	0.67498
544.8981	0.0	+	54	verb	list	4	12	nomatch	rocher	-1	1	p	0.67498
546.8971	0.0	ROCHER	54	verb	list	4	13	nomatch	rocher	-1	1	p	0.67498
547.6302000000001	0.0	+	54	verb	list	4	14	nomatch	rocher	-1	1	p	0.67498
547.5721000000001	0.0	[response]	54	verb	list	4	15	nomatch	rocher	-1	1	p	0.67498
549.2961	0.0	+	55	noun	list	1	1	match	ainsi	5	1	y	0.60842
549.8458	0.2	hdb	55	noun	list	1	2	match	ainsi	5	1	y	0.60842
550.0457	0.0	+	55	noun	list	1	3	match	ainsi	5	1	y	0.60842
550.4456	0.2	dglq	55	noun	list	1	4	match	ainsi	5	1	y	0.60842
550.6455000000001	0.0	+	55	noun	list	1	5	match	ainsi	5	1	y	0.60842
551.0453	0.2	gh	55	noun	list	1	6	match	ainsi	5	1	y	0.60842
551.2452000000001	0.0	+	55	noun	list	1	7	match	ainsi	5	1	y	0.60842
551.6450000000001	0.2	qvmnfs	55	noun	list	1	8	match	ainsi	5	1	y	0.60842
551.8449	0.0	+	55	noun	list	1	9	match	ainsi	5	1	y	0.60842
552.2448	0.2	ainsi	55	noun	list	1	10	match	ainsi	5	1	y	0.60842
552.4447	0.0	+	55	noun	list	1	11	match	ainsi	5	1	y	0.60842
552.8445	0.0	+	55	noun	list	1	12	match	ainsi	5	1	y	0.60842
554.8436	0.0	AINSI	55	noun	list	1	13	match	ainsi	5	1	y	0.60842
555.5100000000001	0.0	+	55	noun	list	1	14	match	ainsi	5	1	y	0.60842
555.452	0.0	[response]	55	noun	list	1	15	match	ainsi	5	1	y	0.60842
557.2425000000001	0.0	+	56	verb	phrase	2	1	match	jongler	4	1	y	0.5632400000000001
557.7923000000001	0.2	jfndx	56	verb	phrase	2	2	match	jongler	4	1	y	0.5632400000000001
557.9922	0.0	+	56	verb	phrase	2	3	match	jongler	4	1	y	0.5632400000000001
558.392	0.2	xjng	56	verb	phrase	2	4	match	jongler	4	1	y	0.5632400000000001
558.5919	0.0	+	56	verb	phrase	2	5	match	jongler	4	1	y	0.5632400000000001
558.9918	0.2	sjkg	56	verb	phrase	2	6	match	jongler	4	1	y	0.5632400000000001
559.1917000000001	0.0	+	56	verb	phrase	2	7	match	jongler	4	1	y	0.5632400000000001
559.5915	0.2	jongler	56	verb	phrase	2	8	match	jongler	4	1	y	0.5632400000000001
559.7914000000001	0.0	+	56	verb	phrase	2	9	match	jongler	4	1	y	0.5632400000000001
560.1912000000001	0.2	tard	56	verb	phrase	2	10	match	jongler	4	1	y	0.5632400000000001
560.3911	0.0	+	56	verb	phrase	2	11	match	jongler	4	1	y	0.5632400000000001
560.791	0.0	+	56	verb	phrase	2	12	match	jongler	4	1	y	0.5632400000000001
562.7901	0.0	JONGLER	56	verb	phrase	2	13	match	jongler	4	1	y	0.5632400000000001
563.4065	0.0	+	56	verb	phrase	2	14	match	jongler	4	1	y	0.5632400000000001
563.3533000000001	0.0	[response]	56	verb	phrase	2	15	match	jongler	4	1	y	0.5632400000000001
565.1890000000001	0.0	+	57	noun	phrase	2	1	match	beau	4	1	y	0.70465
565.7387	0.2	lqg	57	noun	phrase	2	2	match	beau	4	1	y	0.70465
565.9387	0.0	+	57	noun	phrase	2	3	match	beau	4	1	y	0.70465
566.3385000000001	0.2	kdx	57	noun	phrase	2	4	match	beau	4	1	y	0.70465
566.5384	0.0	+	57	noun	phrase	2	5	match	beau	4	1	y	0.70465
566.9382	0.2	wgh	57	noun	phrase	2	6	match	beau	4	1	y	0.70465
567.1381	0.0	+	57	noun	phrase	2	7	match	beau	4	1	y	0.70465
567.538	0.2	beau	57	noun	phrase	2	8	match	beau	4	1	y	0.70465
567.7379000000001	0.0	+	57	noun	phrase	2	9	match	beau	4	1	y	0.70465
568.1377	0.2	voilier	57	noun	phrase	2	10	match	beau	4	1	y	0.70465
568.3376000000001	0.0	+	57	noun	phrase	2	11	match	beau	4	1	y	0.70465
568.7374000000001	0.0	+	57	noun	phrase	2	12	match	beau	4	1	y	0.70465
570.7365000000001	0.0	BEAU	57	noun	phrase	2	13	match	beau	4	1	y	0.70465
571.5029000000001	0.0	+	57	noun	phrase	2	14	match	beau	4	1	y	0.70465
571.4412000000001	0.0	[response]	57	noun	phrase	2	15	match	beau	4	1	y	0.70465
573.1354	0.0	+	58	verb	list	3	1	nomatch	plonger	-1	1	p	0.54591
573.6852	0.2	skxgjw	58	verb	list	3	2	nomatch	plonger	-1	1	p	0.54591
573.8851000000001	0.0	+	58	verb	list	3	3	nomatch	plonger	-1	1	p	0.54591
574.2849	0.2	hndz	58	verb	list	3	4	nomatch	plonger	-1	1	p	0.54591
574.4848000000001	0.0	+	58	verb	list	3	5	nomatch	plonger	-1	1	p	0.54591
574.8847000000001	0.2	peut	58	verb	list	3	6	nomatch	plonger	-1	1	p	0.54591
575.0846	0.0	+	58	verb	list	3	7	nomatch	plonger	-1	1	p	0.54591
575.4844	0.2	vieux	58	verb	list	3	8	nomatch	plonger	-1	1	p	0.54591
575.6843	0.0	+	58	verb	list	3	9	nomatch	plonger	-1	1	p	0.54591
576.0841	0.2	rouler	58	verb	list	3	10	nomatch	plonger	-1	1	p	0.54591
576.2840000000001	0.0	+	58	verb	list	3	11	nomatch	plonger	-1	1	p	0.54591
576.6839	0.0	+	58	verb	list	3	12	nomatch	plonger	-1	1	p	0.54591
578.6996	0.0	PLONGER	58	verb	list	3	13	nomatch	plonger	-1	1	p	0.54591
579.2994000000001	0.0	+	58	verb	list	3	14	nomatch	plonger	-1	1	p	0.54591
579.2455	0.0	[response]	58	verb	list	3	15	nomatch	plonger	-1	1	p	0.54591
581.0986	0.0	+	59	noun	phrase	1	1	match	boîtier	5	1	y	0.68068
581.6483000000001	0.2	gxtj	59	noun	phrase	1	2	match	boîtier	5	1	y	0.68068
581.8482	0.0	+	59	noun	phrase	1	3	match	boîtier	5	1	y	0.68068
582.248	0.2	dglq	59	noun	phrase	1	4	match	boîtier	5	1	y	0.68068
582.4480000000001	0.0	+	59	noun	phrase	1	5	match	boîtier	5	1	y	0.68068
582.8478	0.2	wgh	59	noun	phrase	1	6	match	boîtier	5	1	y	0.68068
583.0477000000001	0.0	+	59	noun	phrase	1	7	match	boîtier	5	1	y	0.68068
583.4475000000001	0.2	gstx	59	noun	phrase	1	8	match	boîtier	5	1	y	0.68068
583.6474000000001	0.0	+	59	noun	phrase	1	9	match	boîtier	5	1	y	0.68068
584.0473000000001	0.2	boîtier	59	noun	phrase	1	10	match	boîtier	5	1	y	0.68068
584.2472	0.0	+	59	noun	phrase	1	11	match	boîtier	5	1	y	0.68068
584.647	0.0	+	59	noun	phrase	1	12	match	boîtier	5	1	y	0.68068
586.6461	0.0	BOÎTIER	59	noun	phrase	1	13	match	boîtier	5	1	y	0.68068
587.3791	0.0	+	59	noun	phrase	1	14	match	boîtier	5	1	y	0.68068
587.3268	0.0	[response]	59	noun	phrase	1	15	match	boîtier	5	1	y	0.68068
589.0450000000001	0.0	+	60	verb	phrase	1	1	nomatch	tôt	-1	1	p	0.47707
589.5948000000001	0.2	gkvbz	60	verb	phrase	1	2	nomatch	tôt	-1	1	p	0.47707
589.7947	0.0	+	60	verb	phrase	1	3	nomatch	tôt	-1	1	p	0.47707
590.1945000000001	0.2	zhgv	60	verb	phrase	1	4	nomatch	tôt	-1	1	p	0.47707
590.3944	0.0	+	60	verb	phrase	1	5	nomatch	tôt	-1	1	p	0.47707
590.7943	0.2	dckl	60	verb	phrase	1	6	nomatch	tôt	-1	1	p	0.47707
590.9941	0.0	+	60	verb	phrase	1	7	nomatch	tôt	-1	1	p	0.47707
591.394	0.2	rgkf	60	verb	phrase	1	8	nomatch	tôt	-1	1	p	0.47707
591.5939000000001	0.0	+	60	verb	phrase	1	9	nomatch	tôt	-1	1	p	0.47707
591.9937000000001	0.2	jongler	60	verb	phrase	1	10	nomatch	tôt	-1	1	p	0.47707
592.1936000000001	0.0	+	60	verb	phrase	1	11	nomatch	tôt	-1	1	p	0.47707
592.5934000000001	0.0	+	60	verb	phrase	1	12	nomatch	tôt	-1	1	p	0.47707
594.5926000000001	0.0	TÔT	60	verb	phrase	1	13	nomatch	tôt	-1	1	p	0.47707
595.1256000000001	0.0	+	60	verb	phrase	1	14	nomatch	tôt	-1	1	p	0.47707
595.0696	0.0	[response]	60	verb	phrase	1	15	nomatch	tôt	-1	1	p	0.47707
596.9915000000001	0.0	+	61	verb	list	1	1	match	blanc	5	1	y	0.43645
597.5412	0.2	kzdrw	61	verb	list	1	2	match	blanc	5	1	y	0.43645
597.7411000000001	0.0	+	61	verb	list	1	3	match	blanc	5	1	y	0.43645
598.1410000000001	0.2	xslt	61	verb	list	1	4	match	blanc	5	1	y	0.43645
598.3409	0.0	+	61	verb	list	1	5	match	blanc	5	1	y	0.43645
598.7407000000001	0.2	qtk	61	verb	list	1	6	match	blanc	5	1	y	0.43645
598.9406	0.0	+	61	verb	list	1	7	match	blanc	5	1	y	0.43645
599.3404	0.2	szhnxjw	61	verb	list	1	8	match	blanc	5	1	y	0.43645
599.5403	0.0	+	61	verb	list	1	9	match	blanc	5	1	y	0.43645
599.9402	0.2	blanc	61	verb	list	1	10	match	blanc	5	1	y	0.43645
600.1401000000001	0.0	+	61	verb	list	1	11	match	blanc	5	1	y	0.43645
600.5399000000001	0.0	+	61	verb	list	1	12	match	blanc	5	1	y	0.43645
602.5390000000001	0.0	BLANC	61	verb	list	1	13	match	blanc	5	1	y	0.43645
603.0388	0.0	+	61	verb	list	1	14	match	blanc	5	1	y	0.43645
602.9755	0.0	[response]	61	verb	list	1	15	match	blanc	5	1	y	0.43645
604.9379	0.0	+	62	verb	list	3	1	match	rouge	5	1	y	0.5318700000000001
605.4877	0.2	wltr	62	verb	list	3	2	match	rouge	5	1	y	0.5318700000000001
605.6876000000001	0.0	+	62	verb	list	3	3	match	rouge	5	1	y	0.5318700000000001
606.0874	0.2	pmch	62	verb	list	3	4	match	rouge	5	1	y	0.5318700000000001
606.2873000000001	0.0	+	62	verb	list	3	5	match	rouge	5	1	y	0.5318700000000001
606.6871000000001	0.2	son	62	verb	list	3	6	match	rouge	5	1	y	0.5318700000000001
606.8871	0.0	+	62	verb	list	3	7	match	rouge	5	1	y	0.5318700000000001
607.2869000000001	0.2	jongler	62	verb	list	3	8	match	rouge	5	1	y	0.5318700000000001
607.4868	0.0	+	62	verb	list	3	9	match	rouge	5	1	y	0.5318700000000001
607.8866	0.2	rouge	62	verb	list	3	10	match	rouge	5	1	y	0.5318700000000001
608.0865	0.0	+	62	verb	list	3	11	match	rouge	5	1	y	0.5318700000000001
608.4864	0.0	+	62	verb	list	3	12	match	rouge	5	1	y	0.5318700000000001
610.4855	0.0	ROUGE	62	verb	list	3	13	match	rouge	5	1	y	0.5318700000000001
611.0852000000001	0.0	+	62	verb	list	3	14	match	rouge	5	1	y	0.5318700000000001
611.0173000000001	0.0	[response]	62	verb	list	3	15	match	rouge	5	1	y	0.5318700000000001
612.8844	0.0	+	63	verb	list	2	1	match	vieux	4	1	y	0.52821
613.4342	0.2	lwjh	63	verb	list	2	2	match	vieux	4	1	y	0.52821
613.634	0.0	+	63	verb	list	2	3	match	vieux	4	1	y	0.52821
614.0339	0.2	mwgt	63	verb	list	2	4	match	vieux	4	1	y	0.52821
614.2338000000001	0.0	+	63	verb	list	2	5	match	vieux	4	1	y	0.52821
614.6336	0.2	sjkg	63	verb	list	2	6	match	vieux	4	1	y	0.52821
614.8336	0.0	+	63	verb	list	2	7	match	vieux	4	1	y	0.52821
615.25	0.2	vieux	63	verb	list	2	8	match	vieux	4	1	y	0.52821
615.4499000000001	0.0	+	63	verb	list	2	9	match	vieux	4	1	y	0.52821
615.8497000000001	0.2	plonger	63	verb	list	2	10	match	vieux	4	1	y	0.52821
616.0496	0.0	+	63	verb	list	2	11	match	vieux	4	1	y	0.52821
616.4495000000001	0.0	+	63	verb	list	2	12	match	vieux	4	1	y	0.52821
618.4486	0.0	VIEUX	63	verb	list	2	13	match	vieux	4	1	y	0.52821
619.0316	0.0	+	63	verb	list	2	14	match	vieux	4	1	y	0.52821
618.9768000000001	0.0	[response]	63	verb	list	2	15	match	vieux	4	1	y	0.52821
620.8475000000001	0.0	+	64	verb	phrase	1	1	nomatch	patiner	-1	1	p	0.61366
621.3973000000001	0.2	whk	64	verb	phrase	1	2	nomatch	patiner	-1	1	p	0.61366
621.5972	0.0	+	64	verb	phrase	1	3	nomatch	patiner	-1	1	p	0.61366
621.9970000000001	0.2	pmch	64	verb	phrase	1	4	nomatch	patiner	-1	1	p	0.61366
622.1969	0.0	+	64	verb	phrase	1	5	nomatch	patiner	-1	1	p	0.61366
622.5967	0.2	gh	64	verb	phrase	1	6	nomatch	patiner	-1	1	p	0.61366
622.7966	0.0	+	64	verb	phrase	1	7	nomatch	patiner	-1	1	p	0.61366
623.1965	0.2	pbqvx	64	verb	phrase	1	8	nomatch	patiner	-1	1	p	0.61366
623.3964000000001	0.0	+	64	verb	phrase	1	9	nomatch	patiner	-1	1	p	0.61366
623.7962	0.2	galoper	64	verb	phrase	1	10	nomatch	patiner	-1	1	p	0.61366
623.9961000000001	0.0	+	64	verb	phrase	1	11	nomatch	patiner	-1	1	p	0.61366
624.3959000000001	0.0	+	64	verb	phrase	1	12	nomatch	patiner	-1	1	p	0.61366
626.3950000000001	0.0	PATINER	64	verb	phrase	1	13	nomatch	patiner	-1	1	p	0.61366
627.0614	0.0	+	64	verb	phrase	1	14	nomatch	patiner	-1	1	p	0.61366
627.0087000000001	0.0	[response]	64	verb	phrase	1	15	nomatch	patiner	-1	1	p	0.61366
628.7940000000001	0.0	+	65	verb	phrase	3	1	match	peut	3	1	y	0.63795
629.3437	0.2	bckfs	65	verb	phrase	3	2	match	peut	3	1	y	0.63795
629.5436000000001	0.0	+	65	verb	phrase	3	3	match	peut	3	1	y	0.63795
629.9435000000001	0.2	kcbt	65	verb	phrase	3	4	match	peut	3	1	y	0.63795
630.1434	0.0	+	65	verb	phrase	3	5	match	peut	3	1	y	0.63795
630.5432000000001	0.2	peut	65	verb	phrase	3	6	match	peut	3	1	y	0.63795
630.7431	0.0	+	65	verb	phrase	3	7	match	peut	3	1	y	0.63795
631.143	0.2	moins	65	verb	phrase	3	8	match	peut	3	1	y	0.63795
631.3429000000001	0.0	+	65	verb	phrase	3	9	match	peut	3	1	y	0.63795
631.7427	0.2	chasser	65	verb	phrase	3	10	match	peut	3	1	y	0.63795
631.9433	0.0	+	65	verb	phrase	3	11	match	peut	3	1	y	0.63795
632.3424	0.0	+	65	verb	phrase	3	12	match	peut	3	1	y	0.63795
634.3415	0.0	PEUT	65	verb	phrase	3	13	match	peut	3	1	y	0.63795
635.0412	0.0	+	65	verb	phrase	3	14	match	peut	3	1	y	0.63795
634.9794	0.0	[response]	65	verb	phrase	3	15	match	peut	3	1	y	0.63795
636.8573	0.0	+	66	verb	list	1	1	match	plonger	5	1	y	0.50964
637.3074	0.2	grqtzs	66	verb	list	1	2	match	plonger	5	1	y	0.50964
637.4901000000001	0.0	+	66	verb	list	1	3	match	plonger	5	1	y	0.50964
637.8899	0.2	pmch	66	verb	list	1	4	match	plonger	5	1	y	0.50964
638.1072	0.0	+	66	verb	list	1	5	match	plonger	5	1	y	0.50964
638.4896	0.2	qtk	66	verb	list	1	6	match	plonger	5	1	y	0.50964
638.6896	0.0	+	66	verb	list	1	7	match	plonger	5	1	y	0.50964
639.0901	0.2	cxmb	66	verb	list	1	8	match	plonger	5	1	y	0.50964
639.3065	0.0	+	66	verb	list	1	9	match	plonger	5	1	y	0.50964
639.6891	0.2	plonger	66	verb	list	1	10	match	plonger	5	1	y	0.50964
639.889	0.0	+	66	verb	list	1	11	match	plonger	5	1	y	0.50964
640.306	0.0	+	66	verb	list	1	12	match	plonger	5	1	y	0.50964
642.3051	0.0	PLONGER	66	verb	list	1	13	match	plonger	5	1	y	0.50964
642.9044	0.0	+	66	verb	list	1	14	match	plonger	5	1	y	0.50964
642.8147	0.0	[response]	66	verb	list	1	15	match	plonger	5	1	y	0.50964
644.7371	0.0	+	67	verb	phrase	1	1	nomatch	galoper	-1	1	p	0.4619
645.2368	0.2	dcwj	67	verb	phrase	1	2	nomatch	galoper	-1	1	p	0.4619
645.4372000000001	0.0	+	67	verb	phrase	1	3	nomatch	galoper	-1	1	p	0.4619
645.8369	0.2	sqt	67	verb	phrase	1	4	nomatch	galoper	-1	1	p	0.4619
646.0533	0.0	+	67	verb	phrase	1	5	nomatch	galoper	-1	1	p	0.4619
646.4361	0.2	sjkg	67	verb	phrase	1	6	nomatch	galoper	-1	1	p	0.4619
646.6360000000001	0.0	+	67	verb	phrase	1	7	nomatch	galoper	-1	1	p	0.4619
647.0362	0.2	hwsx	67	verb	phrase	1	8	nomatch	galoper	-1	1	p	0.4619
647.2359	0.0	+	67	verb	phrase	1	9	nomatch	galoper	-1	1	p	0.4619
647.6356000000001	0.2	jongler	67	verb	phrase	1	10	nomatch	galoper	-1	1	p	0.4619
647.8355	0.0	+	67	verb	phrase	1	11	nomatch	galoper	-1	1	p	0.4619
648.2360000000001	0.0	+	67	verb	phrase	1	12	nomatch	galoper	-1	1	p	0.4619
650.2344	0.0	GALOPER	67	verb	phrase	1	13	nomatch	galoper	-1	1	p	0.4619
650.7508	0.0	+	67	verb	phrase	1	14	nomatch	galoper	-1	1	p	0.4619
650.6963000000001	0.0	[response]	67	verb	phrase	1	15	nomatch	galoper	-1	1	p	0.4619
652.6500000000001	0.0	+	68	verb	list	1	1	match	grand	5	1	y	0.5594200000000001
653.1997	0.2	vrcxgl	68	verb	list	1	2	match	grand	5	1	y	0.5594200000000001
653.3997	0.0	+	68	verb	list	1	3	match	grand	5	1	y	0.5594200000000001
653.7995000000001	0.2	kdx	68	verb	list	1	4	match	grand	5	1	y	0.5594200000000001
653.9994	0.0	+	68	verb	list	1	5	match	grand	5	1	y	0.5594200000000001
654.3992000000001	0.2	dckl	68	verb	list	1	6	match	grand	5	1	y	0.5594200000000001
654.5991	0.0	+	68	verb	list	1	7	match	grand	5	1	y	0.5594200000000001
654.9989	0.2	zmlgtwv	68	verb	list	1	8	match	grand	5	1	y	0.5594200000000001
655.1989000000001	0.0	+	68	verb	list	1	9	match	grand	5	1	y	0.5594200000000001
655.5987	0.2	grand	68	verb	list	1	10	match	grand	5	1	y	0.5594200000000001
655.7986000000001	0.0	+	68	verb	list	1	11	match	grand	5	1	y	0.5594200000000001
656.1984	0.0	+	68	verb	list	1	12	match	grand	5	1	y	0.5594200000000001
658.1975000000001	0.0	GRAND	68	verb	list	1	13	match	grand	5	1	y	0.5594200000000001
658.8139000000001	0.0	+	68	verb	list	1	14	match	grand	5	1	y	0.5594200000000001
658.7569000000001	0.0	[response]	68	verb	list	1	15	match	grand	5	1	y	0.5594200000000001
668.5929000000001	0.0	+	69	verb	phrase	4	1	match	patiner	4	1	y	0.54485
669.1426	0.2	rgz	69	verb	phrase	4	2	match	patiner	4	1	y	0.54485
669.3425000000001	0.0	+	69	verb	phrase	4	3	match	patiner	4	1	y	0.54485
669.7424000000001	0.2	jade	69	verb	phrase	4	4	match	patiner	4	1	y	0.54485
669.9423	0.0	+	69	verb	phrase	4	5	match	patiner	4	1	y	0.54485
670.3421000000001	0.2	peut	69	verb	phrase	4	6	match	patiner	4	1	y	0.54485
670.542	0.0	+	69	verb	phrase	4	7	match	patiner	4	1	y	0.54485
670.9418000000001	0.2	patiner	69	verb	phrase	4	8	match	patiner	4	1	y	0.54485
671.1417	0.0	+	69	verb	phrase	4	9	match	patiner	4	1	y	0.54485
671.5416	0.2	tôt	69	verb	phrase	4	10	match	patiner	4	1	y	0.54485
671.7415000000001	0.0	+	69	verb	phrase	4	11	match	patiner	4	1	y	0.54485
672.1413	0.0	+	69	verb	phrase	4	12	match	patiner	4	1	y	0.54485
674.1404	0.0	PATINER	69	verb	phrase	4	13	match	patiner	4	1	y	0.54485
674.7401000000001	0.0	+	69	verb	phrase	4	14	match	patiner	4	1	y	0.54485
674.6853000000001	0.0	[response]	69	verb	phrase	4	15	match	patiner	4	1	y	0.54485
676.5393	0.0	+	70	verb	phrase	1	1	match	plonger	5	1	y	0.83377
677.0891	0.2	bmzghd	70	verb	phrase	1	2	match	plonger	5	1	y	0.83377
677.2890000000001	0.0	+	70	verb	phrase	1	3	match	plonger	5	1	y	0.83377
677.6888	0.2	xgjw	70	verb	phrase	1	4	match	plonger	5	1	y	0.83377
677.8887000000001	0.0	+	70	verb	phrase	1	5	match	plonger	5	1	y	0.83377
678.2886000000001	0.2	dckl	70	verb	phrase	1	6	match	plonger	5	1	y	0.83377
678.4885	0.0	+	70	verb	phrase	1	7	match	plonger	5	1	y	0.83377
678.8883000000001	0.2	lfhb	70	verb	phrase	1	8	match	plonger	5	1	y	0.83377
679.0882	0.0	+	70	verb	phrase	1	9	match	plonger	5	1	y	0.83377
679.488	0.2	plonger	70	verb	phrase	1	10	match	plonger	5	1	y	0.83377
679.6879	0.0	+	70	verb	phrase	1	11	match	plonger	5	1	y	0.83377
680.0877	0.0	+	70	verb	phrase	1	12	match	plonger	5	1	y	0.83377
682.0869	0.0	PLONGER	70	verb	phrase	1	13	match	plonger	5	1	y	0.83377
682.9865000000001	0.0	+	70	verb	phrase	1	14	match	plonger	5	1	y	0.83377
682.9206	0.0	[response]	70	verb	phrase	1	15	match	plonger	5	1	y	0.83377
684.4858	0.0	+	71	noun	list	1	1	match	tard	5	1	y	0.50727
685.0355000000001	0.2	hlbnd	71	noun	list	1	2	match	tard	5	1	y	0.50727
685.2355	0.0	+	71	noun	list	1	3	match	tard	5	1	y	0.50727
685.6353	0.2	hndz	71	noun	list	1	4	match	tard	5	1	y	0.50727
685.8352000000001	0.0	+	71	noun	list	1	5	match	tard	5	1	y	0.50727
686.235	0.2	sjkg	71	noun	list	1	6	match	tard	5	1	y	0.50727
686.4349000000001	0.0	+	71	noun	list	1	7	match	tard	5	1	y	0.50727
686.8347	0.2	jbmldz	71	noun	list	1	8	match	tard	5	1	y	0.50727
687.0347	0.0	+	71	noun	list	1	9	match	tard	5	1	y	0.50727
687.4345000000001	0.2	tard	71	noun	list	1	10	match	tard	5	1	y	0.50727
687.6344	0.0	+	71	noun	list	1	11	match	tard	5	1	y	0.50727
688.0342	0.0	+	71	noun	list	1	12	match	tard	5	1	y	0.50727
690.0500000000001	0.0	TARD	71	noun	list	1	13	match	tard	5	1	y	0.50727
690.6164	0.0	+	71	noun	list	1	14	match	tard	5	1	y	0.50727
690.5572000000001	0.0	[response]	71	noun	list	1	15	match	tard	5	1	y	0.50727
692.4489000000001	0.0	+	72	verb	list	1	1	nomatch	mieux	-1	1	p	0.54974
692.9987000000001	0.2	svwjpfl	72	verb	list	1	2	nomatch	mieux	-1	1	p	0.54974
693.1986	0.0	+	72	verb	list	1	3	nomatch	mieux	-1	1	p	0.54974
693.5984000000001	0.2	jxrw	72	verb	list	1	4	nomatch	mieux	-1	1	p	0.54974
693.7983	0.0	+	72	verb	list	1	5	nomatch	mieux	-1	1	p	0.54974
694.1981000000001	0.2	gh	72	verb	list	1	6	nomatch	mieux	-1	1	p	0.54974
694.398	0.0	+	72	verb	list	1	7	nomatch	mieux	-1	1	p	0.54974
694.7978	0.2	kwfjqt	72	verb	list	1	8	nomatch	mieux	-1	1	p	0.54974
694.9978000000001	0.0	+	72	verb	list	1	9	nomatch	mieux	-1	1	p	0.54974
695.3976	0.2	vieux	72	verb	list	1	10	nomatch	mieux	-1	1	p	0.54974
695.5975000000001	0.0	+	72	verb	list	1	11	nomatch	mieux	-1	1	p	0.54974
695.9973	0.0	+	72	verb	list	1	12	nomatch	mieux	-1	1	p	0.54974
697.9964	0.0	MIEUX	72	verb	list	1	13	nomatch	mieux	-1	1	p	0.54974
698.6128	0.0	+	72	verb	list	1	14	nomatch	mieux	-1	1	p	0.54974
698.5462	0.0	[response]	72	verb	list	1	15	nomatch	mieux	-1	1	p	0.54974
700.3954	0.0	+	73	verb	list	2	1	match	nager	5	1	y	0.67141
700.9451	0.2	hmb	73	verb	list	2	2	match	nager	5	1	y	0.67141
701.1450000000001	0.0	+	73	verb	list	2	3	match	nager	5	1	y	0.67141
701.5448	0.2	dglq	73	verb	list	2	4	match	nager	5	1	y	0.67141
701.7448	0.0	+	73	verb	list	2	5	match	nager	5	1	y	0.67141
702.1446000000001	0.2	dckl	73	verb	list	2	6	match	nager	5	1	y	0.67141
702.3445	0.0	+	73	verb	list	2	7	match	nager	5	1	y	0.67141
702.7443000000001	0.2	nouveau	73	verb	list	2	8	match	nager	5	1	y	0.67141
702.9442	0.0	+	73	verb	list	2	9	match	nager	5	1	y	0.67141
703.344	0.2	nager	73	verb	list	2	10	match	nager	5	1	y	0.67141
703.5440000000001	0.0	+	73	verb	list	2	11	match	nager	5	1	y	0.67141
703.9438	0.0	+	73	verb	list	2	12	match	nager	5	1	y	0.67141
705.9429	0.0	NAGER	73	verb	list	2	13	match	nager	5	1	y	0.67141
706.6759000000001	0.0	+	73	verb	list	2	14	match	nager	5	1	y	0.67141
706.6143000000001	0.0	[response]	73	verb	list	2	15	match	nager	5	1	y	0.67141
708.3418	0.0	+	74	verb	phrase	3	1	match	ainsi	5	1	y	0.6543
708.8916	0.2	mgnwv	74	verb	phrase	3	2	match	ainsi	5	1	y	0.6543
709.0915	0.0	+	74	verb	phrase	3	3	match	ainsi	5	1	y	0.6543
709.4913	0.2	pmch	74	verb	phrase	3	4	match	ainsi	5	1	y	0.6543
709.6912000000001	0.0	+	74	verb	phrase	3	5	match	ainsi	5	1	y	0.6543
710.091	0.2	doit	74	verb	phrase	3	6	match	ainsi	5	1	y	0.6543
710.291	0.0	+	74	verb	phrase	3	7	match	ainsi	5	1	y	0.6543
710.6908000000001	0.2	galoper	74	verb	phrase	3	8	match	ainsi	5	1	y	0.6543
710.8907	0.0	+	74	verb	phrase	3	9	match	ainsi	5	1	y	0.6543
711.2905000000001	0.2	ainsi	74	verb	phrase	3	10	match	ainsi	5	1	y	0.6543
711.4904	0.0	+	74	verb	phrase	3	11	match	ainsi	5	1	y	0.6543
711.8902	0.0	+	74	verb	phrase	3	12	match	ainsi	5	1	y	0.6543
713.8893	0.0	AINSI	74	verb	phrase	3	13	match	ainsi	5	1	y	0.6543
714.6057000000001	0.0	+	74	verb	phrase	3	14	match	ainsi	5	1	y	0.6543
714.5436000000001	0.0	[response]	74	verb	phrase	3	15	match	ainsi	5	1	y	0.6543
716.2883	0.0	+	75	noun	list	2	1	match	rocher	5	1	y	0.64486
716.8380000000001	0.2	svr	75	noun	list	2	2	match	rocher	5	1	y	0.64486
717.0379	0.0	+	75	noun	list	2	3	match	rocher	5	1	y	0.64486
717.4378	0.2	xgjw	75	noun	list	2	4	match	rocher	5	1	y	0.64486
717.6377	0.0	+	75	noun	list	2	5	match	rocher	5	1	y	0.64486
718.0375	0.2	wgh	75	noun	list	2	6	match	rocher	5	1	y	0.64486
718.2374000000001	0.0	+	75	noun	list	2	7	match	rocher	5	1	y	0.64486
718.6372	0.2	beaucoup	75	noun	list	2	8	match	rocher	5	1	y	0.64486
718.8371000000001	0.0	+	75	noun	list	2	9	match	rocher	5	1	y	0.64486
719.2370000000001	0.2	rocher	75	noun	list	2	10	match	rocher	5	1	y	0.64486
719.4369	0.0	+	75	noun	list	2	11	match	rocher	5	1	y	0.64486
719.8367000000001	0.0	+	75	noun	list	2	12	match	rocher	5	1	y	0.64486
721.8358000000001	0.0	ROCHER	75	noun	list	2	13	match	rocher	5	1	y	0.64486
722.5355000000001	0.0	+	75	noun	list	2	14	match	rocher	5	1	y	0.64486
722.4806000000001	0.0	[response]	75	noun	list	2	15	match	rocher	5	1	y	0.64486
724.2347000000001	0.0	+	76	verb	phrase	2	1	nomatch	sous	-1	1	p	0.99847
724.7845000000001	0.2	pthndb	76	verb	phrase	2	2	nomatch	sous	-1	1	p	0.99847
724.9844	0.0	+	76	verb	phrase	2	3	nomatch	sous	-1	1	p	0.99847
725.3842000000001	0.2	sqt	76	verb	phrase	2	4	nomatch	sous	-1	1	p	0.99847
725.5841	0.0	+	76	verb	phrase	2	5	nomatch	sous	-1	1	p	0.99847
725.9839000000001	0.2	gh	76	verb	phrase	2	6	nomatch	sous	-1	1	p	0.99847
726.1839	0.0	+	76	verb	phrase	2	7	nomatch	sous	-1	1	p	0.99847
726.5837	0.2	plus	76	verb	phrase	2	8	nomatch	sous	-1	1	p	0.99847
726.7836000000001	0.0	+	76	verb	phrase	2	9	nomatch	sous	-1	1	p	0.99847
727.2001	0.2	plonger	76	verb	phrase	2	10	nomatch	sous	-1	1	p	0.99847
727.4000000000001	0.0	+	76	verb	phrase	2	11	nomatch	sous	-1	1	p	0.99847
727.7998	0.0	+	76	verb	phrase	2	12	nomatch	sous	-1	1	p	0.99847
729.7989	0.0	SOUS	76	verb	phrase	2	13	nomatch	sous	-1	1	p	0.99847
730.8651000000001	0.0	+	76	verb	phrase	2	14	nomatch	sous	-1	1	p	0.99847
730.7974	0.0	[response]	76	verb	phrase	2	15	nomatch	sous	-1	1	p	0.99847
732.1979	0.0	+	77	verb	list	4	1	match	chasser	4	1	y	0.54386
732.7476	0.2	rhk	77	verb	list	4	2	match	chasser	4	1	y	0.54386
732.9475000000001	0.0	+	77	verb	list	4	3	match	chasser	4	1	y	0.54386
733.3473	0.2	luc	77	verb	list	4	4	match	chasser	4	1	y	0.54386
733.5472000000001	0.0	+	77	verb	list	4	5	match	chasser	4	1	y	0.54386
733.9471000000001	0.2	son	77	verb	list	4	6	match	chasser	4	1	y	0.54386
734.147	0.0	+	77	verb	list	4	7	match	chasser	4	1	y	0.54386
734.5468000000001	0.2	chasser	77	verb	list	4	8	match	chasser	4	1	y	0.54386
734.7467	0.0	+	77	verb	list	4	9	match	chasser	4	1	y	0.54386
735.1465000000001	0.2	bleu	77	verb	list	4	10	match	chasser	4	1	y	0.54386
735.3464	0.0	+	77	verb	list	4	11	match	chasser	4	1	y	0.54386
735.7463	0.0	+	77	verb	list	4	12	match	chasser	4	1	y	0.54386
737.7454	0.0	CHASSER	77	verb	list	4	13	match	chasser	4	1	y	0.54386
738.3451	0.0	+	77	verb	list	4	14	match	chasser	4	1	y	0.54386
738.2892000000002	0.0	[response]	77	verb	list	4	15	match	chasser	4	1	y	0.54386
740.1443	0.0	+	78	verb	phrase	1	1	nomatch	beau	-1	1	p	0.72375
740.6941	0.2	fcx	78	verb	phrase	1	2	nomatch	beau	-1	1	p	0.72375
740.894	0.0	+	78	verb	phrase	1	3	nomatch	beau	-1	1	p	0.72375
741.2938	0.2	xslt	78	verb	phrase	1	4	nomatch	beau	-1	1	p	0.72375
741.4937000000001	0.0	+	78	verb	phrase	1	5	nomatch	beau	-1	1	p	0.72375
741.8935	0.2	sjkg	78	verb	phrase	1	6	nomatch	beau	-1	1	p	0.72375
742.0934000000001	0.0	+	78	verb	phrase	1	7	nomatch	beau	-1	1	p	0.72375
742.4933000000001	0.2	xzkpvbl	78	verb	phrase	1	8	nomatch	beau	-1	1	p	0.72375
742.6931000000001	0.0	+	78	verb	phrase	1	9	nomatch	beau	-1	1	p	0.72375
743.0930000000001	0.2	mieux	78	verb	phrase	1	10	nomatch	beau	-1	1	p	0.72375
743.2929	0.0	+	78	verb	phrase	1	11	nomatch	beau	-1	1	p	0.72375
743.6927000000001	0.0	+	78	verb	phrase	1	12	nomatch	beau	-1	1	p	0.72375
745.6918000000001	0.0	BEAU	78	verb	phrase	1	13	nomatch	beau	-1	1	p	0.72375
746.4748000000001	0.0	+	78	verb	phrase	1	14	nomatch	beau	-1	1	p	0.72375
746.4156	0.0	[response]	78	verb	phrase	1	15	nomatch	beau	-1	1	p	0.72375
748.0908000000001	0.0	+	79	verb	phrase	3	1	match	nager	4	1	y	0.57996
748.6405000000001	0.2	rplbs	79	verb	phrase	3	2	match	nager	4	1	y	0.57996
748.8404	0.0	+	79	verb	phrase	3	3	match	nager	4	1	y	0.57996
749.2402000000001	0.2	kcbt	79	verb	phrase	3	4	match	nager	4	1	y	0.57996
749.4402	0.0	+	79	verb	phrase	3	5	match	nager	4	1	y	0.57996
749.84	0.2	va	79	verb	phrase	3	6	match	nager	4	1	y	0.57996
750.0399000000001	0.0	+	79	verb	phrase	3	7	match	nager	4	1	y	0.57996
750.4397	0.2	nager	79	verb	phrase	3	8	match	nager	4	1	y	0.57996
750.6396000000001	0.0	+	79	verb	phrase	3	9	match	nager	4	1	y	0.57996
751.0394	0.2	vite	79	verb	phrase	3	10	match	nager	4	1	y	0.57996
751.2394	0.0	+	79	verb	phrase	3	11	match	nager	4	1	y	0.57996
751.6392000000001	0.0	+	79	verb	phrase	3	12	match	nager	4	1	y	0.57996
753.6383000000001	0.0	NAGER	79	verb	phrase	3	13	match	nager	4	1	y	0.57996
754.2713	0.0	+	79	verb	phrase	3	14	match	nager	4	1	y	0.57996
754.2182	0.0	[response]	79	verb	phrase	3	15	match	nager	4	1	y	0.57996
756.0372000000001	0.0	+	80	verb	phrase	1	1	nomatch	avec	-1	1	p	0.73138
756.5870000000001	0.2	nlr	80	verb	phrase	1	2	nomatch	avec	-1	1	p	0.73138
756.7869000000001	0.0	+	80	verb	phrase	1	3	nomatch	avec	-1	1	p	0.73138
757.1867000000001	0.2	xjng	80	verb	phrase	1	4	nomatch	avec	-1	1	p	0.73138
757.3866	0.0	+	80	verb	phrase	1	5	nomatch	avec	-1	1	p	0.73138
757.7864000000001	0.2	gh	80	verb	phrase	1	6	nomatch	avec	-1	1	p	0.73138
757.9863	0.0	+	80	verb	phrase	1	7	nomatch	avec	-1	1	p	0.73138
758.3861	0.2	nrqmbjc	80	verb	phrase	1	8	nomatch	avec	-1	1	p	0.73138
758.5861000000001	0.0	+	80	verb	phrase	1	9	nomatch	avec	-1	1	p	0.73138
758.9859	0.2	beaucoup	80	verb	phrase	1	10	nomatch	avec	-1	1	p	0.73138
759.1858000000001	0.0	+	80	verb	phrase	1	11	nomatch	avec	-1	1	p	0.73138
759.5856	0.0	+	80	verb	phrase	1	12	nomatch	avec	-1	1	p	0.73138
761.5847	0.0	AVEC	80	verb	phrase	1	13	nomatch	avec	-1	1	p	0.73138
762.3677	0.0	+	80	verb	phrase	1	14	nomatch	avec	-1	1	p	0.73138
763.9837	0.0	+	80	verb	phrase	1	15	nomatch	avec	-1	1	p	0.73138
764.9999	0.0	+	80	verb	phrase	1	16	nomatch	avec	-1	1	p	0.73138
765.0998000000001	0.0	+	80	verb	phrase	1	17	nomatch	avec	-1	1	p	0.73138
766.5159000000001	0.0	+	80	verb	phrase	1	18	nomatch	avec	-1	1	p	0.73138
766.6158	0.0	+	80	verb	phrase	1	19	nomatch	avec	-1	1	p	0.73138
767.9985	0.0	+	80	verb	phrase	1	20	nomatch	avec	-1	1	p	0.73138
768.0985000000001	0.0	+	80	verb	phrase	1	21	nomatch	avec	-1	1	p	0.73138
769.5145	0.0	+	80	verb	phrase	1	22	nomatch	avec	-1	1	p	0.73138
769.6145	0.0	+	80	verb	phrase	1	23	nomatch	avec	-1	1	p	0.73138
770.9972	0.0	+	80	verb	phrase	1	24	nomatch	avec	-1	1	p	0.73138
771.0972	0.0	+	80	verb	phrase	1	25	nomatch	avec	-1	1	p	0.73138
772.5132000000001	0.0	+	80	verb	phrase	1	26	nomatch	avec	-1	1	p	0.73138
772.6132	0.0	+	80	verb	phrase	1	27	nomatch	avec	-1	1	p	0.73138
774.0125	0.0	+	80	verb	phrase	1	28	nomatch	avec	-1	1	p	0.73138
774.1125000000001	0.0	+	80	verb	phrase	1	29	nomatch	avec	-1	1	p	0.73138
775.5119000000001	0.0	+	80	verb	phrase	1	30	nomatch	avec	-1	1	p	0.73138
775.6118	0.0	+	80	verb	phrase	1	31	nomatch	avec	-1	1	p	0.73138
777.0112	0.0	+	80	verb	phrase	1	32	nomatch	avec	-1	1	p	0.73138
777.1112	0.0	+	80	verb	phrase	1	33	nomatch	avec	-1	1	p	0.73138
778.5105000000001	0.0	+	80	verb	phrase	1	34	nomatch	avec	-1	1	p	0.73138
778.6105	0.0	+	80	verb	phrase	1	35	nomatch	avec	-1	1	p	0.73138
782.4421000000001	0.0	+	80	verb	phrase	1	36	nomatch	avec	-1	1	p	0.73138
762.3161	0.0	[response]	80	verb	phrase	1	37	nomatch	avec	-1	1	p	0.73138
