onset	duration	stim	trial_number	trial_type	trial_structure	trial_length	sequential_position	probe_type	probe	probe_position	response_correct	response_key	response_time
0.055100000000003035	0.0	+	1	noun	list	2	1	nomatch	doit	-1	1	p	0.71608
0.5382000000000033	0.2	fvpklds	1	noun	list	2	2	nomatch	doit	-1	1	p	0.71608
0.7381000000000029	0.0	+	1	noun	list	2	3	nomatch	doit	-1	1	p	0.71608
1.137900000000002	0.2	qmjf	1	noun	list	2	4	nomatch	doit	-1	1	p	0.71608
1.3379000000000048	0.0	+	1	noun	list	2	5	nomatch	doit	-1	1	p	0.71608
1.7377000000000038	0.2	gh	1	noun	list	2	6	nomatch	doit	-1	1	p	0.71608
1.9376000000000033	0.0	+	1	noun	list	2	7	nomatch	doit	-1	1	p	0.71608
2.3374000000000024	0.2	tablier	1	noun	list	2	8	nomatch	doit	-1	1	p	0.71608
2.537300000000002	0.0	+	1	noun	list	2	9	nomatch	doit	-1	1	p	0.71608
2.937100000000001	0.2	ainsi	1	noun	list	2	10	nomatch	doit	-1	1	p	0.71608
3.1371000000000038	0.0	+	1	noun	list	2	11	nomatch	doit	-1	1	p	0.71608
3.536900000000003	0.0	+	1	noun	list	2	12	nomatch	doit	-1	1	p	0.71608
5.536000000000001	0.0	DOIT	1	noun	list	2	13	nomatch	doit	-1	1	p	0.71608
6.319000000000003	0.0	+	1	noun	list	2	14	nomatch	doit	-1	1	p	0.71608
6.2520000000000024	0.0	[response]	1	noun	list	2	15	nomatch	doit	-1	1	p	0.71608
7.934900000000006	0.0	+	2	noun	list	2	1	nomatch	sablier	-1	1	p	0.51763
8.484700000000004	0.2	fkhmv	2	noun	list	2	2	nomatch	sablier	-1	1	p	0.51763
8.684600000000003	0.0	+	2	noun	list	2	3	nomatch	sablier	-1	1	p	0.51763
9.084400000000002	0.2	kcbt	2	noun	list	2	4	nomatch	sablier	-1	1	p	0.51763
9.284300000000002	0.0	+	2	noun	list	2	5	nomatch	sablier	-1	1	p	0.51763
9.6841	0.2	wtrz	2	noun	list	2	6	nomatch	sablier	-1	1	p	0.51763
9.884	0.0	+	2	noun	list	2	7	nomatch	sablier	-1	1	p	0.51763
10.283800000000006	0.2	mieux	2	noun	list	2	8	nomatch	sablier	-1	1	p	0.51763
10.483800000000002	0.0	+	2	noun	list	2	9	nomatch	sablier	-1	1	p	0.51763
10.883600000000001	0.2	boîtier	2	noun	list	2	10	nomatch	sablier	-1	1	p	0.51763
11.0835	0.0	+	2	noun	list	2	11	nomatch	sablier	-1	1	p	0.51763
11.5	0.0	+	2	noun	list	2	12	nomatch	sablier	-1	1	p	0.51763
13.499100000000006	0.0	SABLIER	2	noun	list	2	13	nomatch	sablier	-1	1	p	0.51763
14.0822	0.0	+	2	noun	list	2	14	nomatch	sablier	-1	1	p	0.51763
14.0167	0.0	[response]	2	noun	list	2	15	nomatch	sablier	-1	1	p	0.51763
15.898000000000003	0.0	+	3	noun	list	1	1	nomatch	plus	-1	1	p	0.50699
16.447800000000008	0.2	hnrpmjw	3	noun	list	1	2	nomatch	plus	-1	1	p	0.50699
16.647700000000007	0.0	+	3	noun	list	1	3	nomatch	plus	-1	1	p	0.50699
17.047500000000007	0.2	xslt	3	noun	list	1	4	nomatch	plus	-1	1	p	0.50699
17.247400000000006	0.0	+	3	noun	list	1	5	nomatch	plus	-1	1	p	0.50699
17.647200000000005	0.2	qtk	3	noun	list	1	6	nomatch	plus	-1	1	p	0.50699
17.847100000000005	0.0	+	3	noun	list	1	7	nomatch	plus	-1	1	p	0.50699
18.247000000000007	0.2	lxjhpct	3	noun	list	1	8	nomatch	plus	-1	1	p	0.50699
18.446900000000007	0.0	+	3	noun	list	1	9	nomatch	plus	-1	1	p	0.50699
18.846700000000006	0.2	moins	3	noun	list	1	10	nomatch	plus	-1	1	p	0.50699
19.046600000000005	0.0	+	3	noun	list	1	11	nomatch	plus	-1	1	p	0.50699
19.446400000000004	0.0	+	3	noun	list	1	12	nomatch	plus	-1	1	p	0.50699
21.445600000000006	0.0	PLUS	3	noun	list	1	13	nomatch	plus	-1	1	p	0.50699
22.012000000000008	0.0	+	3	noun	list	1	14	nomatch	plus	-1	1	p	0.50699
21.952500000000022	0.0	[response]	3	noun	list	1	15	nomatch	plus	-1	1	p	0.50699
23.844500000000004	0.0	+	4	noun	list	2	1	match	tard	5	1	y	0.4591
24.394200000000005	0.2	lhjqc	4	noun	list	2	2	match	tard	5	1	y	0.4591
24.594100000000005	0.0	+	4	noun	list	2	3	match	tard	5	1	y	0.4591
24.994000000000007	0.2	pbxw	4	noun	list	2	4	match	tard	5	1	y	0.4591
25.193900000000006	0.0	+	4	noun	list	2	5	match	tard	5	1	y	0.4591
25.593700000000005	0.2	dckl	4	noun	list	2	6	match	tard	5	1	y	0.4591
25.793600000000005	0.0	+	4	noun	list	2	7	match	tard	5	1	y	0.4591
26.193400000000004	0.2	panier	4	noun	list	2	8	match	tard	5	1	y	0.4591
26.393300000000004	0.0	+	4	noun	list	2	9	match	tard	5	1	y	0.4591
26.793200000000006	0.2	tard	4	noun	list	2	10	match	tard	5	1	y	0.4591
26.993100000000005	0.0	+	4	noun	list	2	11	match	tard	5	1	y	0.4591
27.392900000000004	0.0	+	4	noun	list	2	12	match	tard	5	1	y	0.4591
29.392000000000003	0.0	TARD	4	noun	list	2	13	match	tard	5	1	y	0.4591
29.908400000000007	0.0	+	4	noun	list	2	14	match	tard	5	1	y	0.4591
29.85110000000001	0.0	[response]	4	noun	list	2	15	match	tard	5	1	y	0.4591
31.7909	0.0	+	5	noun	phrase	2	1	match	cendrier	4	1	y	0.52739
32.340700000000005	0.2	bsn	5	noun	phrase	2	2	match	cendrier	4	1	y	0.52739
32.540600000000005	0.0	+	5	noun	phrase	2	3	match	cendrier	4	1	y	0.52739
32.940400000000004	0.2	kdx	5	noun	phrase	2	4	match	cendrier	4	1	y	0.52739
33.1403	0.0	+	5	noun	phrase	2	5	match	cendrier	4	1	y	0.52739
33.5401	0.2	qtk	5	noun	phrase	2	6	match	cendrier	4	1	y	0.52739
33.740100000000005	0.0	+	5	noun	phrase	2	7	match	cendrier	4	1	y	0.52739
34.139900000000004	0.2	cendrier	5	noun	phrase	2	8	match	cendrier	4	1	y	0.52739
34.339800000000004	0.0	+	5	noun	phrase	2	9	match	cendrier	4	1	y	0.52739
34.7396	0.2	noir	5	noun	phrase	2	10	match	cendrier	4	1	y	0.52739
34.9395	0.0	+	5	noun	phrase	2	11	match	cendrier	4	1	y	0.52739
35.339400000000005	0.0	+	5	noun	phrase	2	12	match	cendrier	4	1	y	0.52739
37.3384	0.0	CENDRIER	5	noun	phrase	2	13	match	cendrier	4	1	y	0.52739
37.9215	0.0	+	5	noun	phrase	2	14	match	cendrier	4	1	y	0.52739
37.8658	0.0	[response]	5	noun	phrase	2	15	match	cendrier	4	1	y	0.52739
39.7374	0.0	+	6	noun	phrase	4	1	nomatch	plonger	-1	1	p	0.6071900000000001
40.2871	0.2	nlwhvbz	6	noun	phrase	4	2	nomatch	plonger	-1	1	p	0.6071900000000001
40.48720000000001	0.0	+	6	noun	phrase	4	3	nomatch	plonger	-1	1	p	0.6071900000000001
40.886900000000004	0.2	sur	6	noun	phrase	4	4	nomatch	plonger	-1	1	p	0.6071900000000001
41.086800000000004	0.0	+	6	noun	phrase	4	5	nomatch	plonger	-1	1	p	0.6071900000000001
41.4866	0.2	mon	6	noun	phrase	4	6	nomatch	plonger	-1	1	p	0.6071900000000001
41.6865	0.0	+	6	noun	phrase	4	7	nomatch	plonger	-1	1	p	0.6071900000000001
42.0863	0.2	grand	6	noun	phrase	4	8	nomatch	plonger	-1	1	p	0.6071900000000001
42.286300000000004	0.0	+	6	noun	phrase	4	9	nomatch	plonger	-1	1	p	0.6071900000000001
42.6861	0.2	voilier	6	noun	phrase	4	10	nomatch	plonger	-1	1	p	0.6071900000000001
42.886	0.0	+	6	noun	phrase	4	11	nomatch	plonger	-1	1	p	0.6071900000000001
43.2858	0.0	+	6	noun	phrase	4	12	nomatch	plonger	-1	1	p	0.6071900000000001
45.2849	0.0	PLONGER	6	noun	phrase	4	13	nomatch	plonger	-1	1	p	0.6071900000000001
45.951299999999996	0.0	+	6	noun	phrase	4	14	nomatch	plonger	-1	1	p	0.6071900000000001
45.892100000000006	0.0	[response]	6	noun	phrase	4	15	nomatch	plonger	-1	1	p	0.6071900000000001
47.6838	0.0	+	7	verb	list	1	1	nomatch	trop	-1	1	p	0.5935800000000001
48.23380000000001	0.2	njwlb	7	verb	list	1	2	nomatch	trop	-1	1	p	0.5935800000000001
48.433600000000006	0.0	+	7	verb	list	1	3	nomatch	trop	-1	1	p	0.5935800000000001
48.85	0.2	dglq	7	verb	list	1	4	nomatch	trop	-1	1	p	0.5935800000000001
49.0499	0.0	+	7	verb	list	1	5	nomatch	trop	-1	1	p	0.5935800000000001
49.4497	0.2	sjkg	7	verb	list	1	6	nomatch	trop	-1	1	p	0.5935800000000001
49.6496	0.0	+	7	verb	list	1	7	nomatch	trop	-1	1	p	0.5935800000000001
50.0495	0.2	gstx	7	verb	list	1	8	nomatch	trop	-1	1	p	0.5935800000000001
50.2494	0.0	+	7	verb	list	1	9	nomatch	trop	-1	1	p	0.5935800000000001
50.6492	0.2	rouler	7	verb	list	1	10	nomatch	trop	-1	1	p	0.5935800000000001
50.8491	0.0	+	7	verb	list	1	11	nomatch	trop	-1	1	p	0.5935800000000001
51.2489	0.0	+	7	verb	list	1	12	nomatch	trop	-1	1	p	0.5935800000000001
53.248	0.0	TROP	7	verb	list	1	13	nomatch	trop	-1	1	p	0.5935800000000001
53.89770000000001	0.0	+	7	verb	list	1	14	nomatch	trop	-1	1	p	0.5935800000000001
53.84160000000001	0.0	[response]	7	verb	list	1	15	nomatch	trop	-1	1	p	0.5935800000000001
55.64690000000001	0.0	+	8	noun	phrase	2	1	nomatch	noir	-1	1	p	0.53474
56.1967	0.2	znxhvj	8	noun	phrase	2	2	nomatch	noir	-1	1	p	0.53474
56.3966	0.0	+	8	noun	phrase	2	3	nomatch	noir	-1	1	p	0.53474
56.7964	0.2	mwgt	8	noun	phrase	2	4	nomatch	noir	-1	1	p	0.53474
56.9964	0.0	+	8	noun	phrase	2	5	nomatch	noir	-1	1	p	0.53474
57.3962	0.2	qtk	8	noun	phrase	2	6	nomatch	noir	-1	1	p	0.53474
57.5961	0.0	+	8	noun	phrase	2	7	nomatch	noir	-1	1	p	0.53474
57.9959	0.2	voilier	8	noun	phrase	2	8	nomatch	noir	-1	1	p	0.53474
58.1958	0.0	+	8	noun	phrase	2	9	nomatch	noir	-1	1	p	0.53474
58.5956	0.2	rouge	8	noun	phrase	2	10	nomatch	noir	-1	1	p	0.53474
58.7956	0.0	+	8	noun	phrase	2	11	nomatch	noir	-1	1	p	0.53474
59.1954	0.0	+	8	noun	phrase	2	12	nomatch	noir	-1	1	p	0.53474
61.1945	0.0	NOIR	8	noun	phrase	2	13	nomatch	noir	-1	1	p	0.53474
61.7942	0.0	+	8	noun	phrase	2	14	nomatch	noir	-1	1	p	0.53474
61.7292	0.0	[response]	8	noun	phrase	2	15	nomatch	noir	-1	1	p	0.53474
63.59340000000001	0.0	+	9	noun	list	2	1	nomatch	trop	-1	1	p	0.56368
64.14320000000001	0.2	kcw	9	noun	list	2	2	nomatch	trop	-1	1	p	0.56368
64.34309999999999	0.0	+	9	noun	list	2	3	nomatch	trop	-1	1	p	0.56368
64.74289999999999	0.2	zhgv	9	noun	list	2	4	nomatch	trop	-1	1	p	0.56368
64.9428	0.0	+	9	noun	list	2	5	nomatch	trop	-1	1	p	0.56368
65.3426	0.2	wtrz	9	noun	list	2	6	nomatch	trop	-1	1	p	0.56368
65.54249999999999	0.0	+	9	noun	list	2	7	nomatch	trop	-1	1	p	0.56368
65.94239999999999	0.2	beaucoup	9	noun	list	2	8	nomatch	trop	-1	1	p	0.56368
66.1423	0.0	+	9	noun	list	2	9	nomatch	trop	-1	1	p	0.56368
66.5421	0.2	panier	9	noun	list	2	10	nomatch	trop	-1	1	p	0.56368
66.74199999999999	0.0	+	9	noun	list	2	11	nomatch	trop	-1	1	p	0.56368
67.14179999999999	0.0	+	9	noun	list	2	12	nomatch	trop	-1	1	p	0.56368
69.14090000000002	0.0	TROP	9	noun	list	2	13	nomatch	trop	-1	1	p	0.56368
69.75730000000001	0.0	+	9	noun	list	2	14	nomatch	trop	-1	1	p	0.56368
69.7046	0.0	[response]	9	noun	list	2	15	nomatch	trop	-1	1	p	0.56368
71.53990000000002	0.0	+	10	verb	list	4	1	match	chasser	5	1	y	0.60576
72.08959999999999	0.2	sgrdwl	10	verb	list	4	2	match	chasser	5	1	y	0.60576
72.2895	0.0	+	10	verb	list	4	3	match	chasser	5	1	y	0.60576
72.6894	0.2	sous	10	verb	list	4	4	match	chasser	5	1	y	0.60576
72.88929999999999	0.0	+	10	verb	list	4	5	match	chasser	5	1	y	0.60576
73.28909999999999	0.2	va	10	verb	list	4	6	match	chasser	5	1	y	0.60576
73.489	0.0	+	10	verb	list	4	7	match	chasser	5	1	y	0.60576
73.8888	0.2	nouveau	10	verb	list	4	8	match	chasser	5	1	y	0.60576
74.08870000000002	0.0	+	10	verb	list	4	9	match	chasser	5	1	y	0.60576
74.48859999999999	0.2	chasser	10	verb	list	4	10	match	chasser	5	1	y	0.60576
74.6885	0.0	+	10	verb	list	4	11	match	chasser	5	1	y	0.60576
75.0883	0.0	+	10	verb	list	4	12	match	chasser	5	1	y	0.60576
77.0874	0.0	CHASSER	10	verb	list	4	13	match	chasser	5	1	y	0.60576
77.75380000000001	0.0	+	10	verb	list	4	14	match	chasser	5	1	y	0.60576
77.69319999999999	0.0	[response]	10	verb	list	4	15	match	chasser	5	1	y	0.60576
95.4958	0.0	+	11	noun	list	4	1	nomatch	doit	-1	1	p	0.80006
96.04560000000001	0.2	pbk	11	noun	list	4	2	nomatch	doit	-1	1	p	0.80006
96.24550000000002	0.0	+	11	noun	list	4	3	nomatch	doit	-1	1	p	0.80006
96.64530000000002	0.2	yves	11	noun	list	4	4	nomatch	doit	-1	1	p	0.80006
96.84530000000001	0.0	+	11	noun	list	4	5	nomatch	doit	-1	1	p	0.80006
97.24510000000001	0.2	son	11	noun	list	4	6	nomatch	doit	-1	1	p	0.80006
97.44500000000002	0.0	+	11	noun	list	4	7	nomatch	doit	-1	1	p	0.80006
97.84480000000002	0.2	beaucoup	11	noun	list	4	8	nomatch	doit	-1	1	p	0.80006
98.0447	0.0	+	11	noun	list	4	9	nomatch	doit	-1	1	p	0.80006
98.4445	0.2	tablier	11	noun	list	4	10	nomatch	doit	-1	1	p	0.80006
98.64450000000002	0.0	+	11	noun	list	4	11	nomatch	doit	-1	1	p	0.80006
99.04430000000002	0.0	+	11	noun	list	4	12	nomatch	doit	-1	1	p	0.80006
101.04340000000002	0.0	DOIT	11	noun	list	4	13	nomatch	doit	-1	1	p	0.80006
101.90970000000002	0.0	+	11	noun	list	4	14	nomatch	doit	-1	1	p	0.80006
101.84340000000003	0.0	[response]	11	noun	list	4	15	nomatch	doit	-1	1	p	0.80006
103.44230000000002	0.0	+	12	noun	list	1	1	match	mieux	5	1	y	0.53147
103.99210000000002	0.2	jbhfpld	12	noun	list	1	2	match	mieux	5	1	y	0.53147
104.19200000000001	0.0	+	12	noun	list	1	3	match	mieux	5	1	y	0.53147
104.5918	0.2	xjng	12	noun	list	1	4	match	mieux	5	1	y	0.53147
104.79170000000002	0.0	+	12	noun	list	1	5	match	mieux	5	1	y	0.53147
105.19150000000002	0.2	wtrz	12	noun	list	1	6	match	mieux	5	1	y	0.53147
105.3914	0.0	+	12	noun	list	1	7	match	mieux	5	1	y	0.53147
105.7913	0.2	qvmnfs	12	noun	list	1	8	match	mieux	5	1	y	0.53147
105.99120000000002	0.0	+	12	noun	list	1	9	match	mieux	5	1	y	0.53147
106.39100000000002	0.2	mieux	12	noun	list	1	10	match	mieux	5	1	y	0.53147
106.5909	0.0	+	12	noun	list	1	11	match	mieux	5	1	y	0.53147
106.9907	0.0	+	12	noun	list	1	12	match	mieux	5	1	y	0.53147
108.9898	0.0	MIEUX	12	noun	list	1	13	match	mieux	5	1	y	0.53147
109.5729	0.0	+	12	noun	list	1	14	match	mieux	5	1	y	0.53147
109.52130000000002	0.0	[response]	12	noun	list	1	15	match	mieux	5	1	y	0.53147
111.3888	0.0	+	13	verb	phrase	3	1	match	rouler	4	1	y	0.79102
111.9385	0.2	jkdv	13	verb	phrase	3	2	match	rouler	4	1	y	0.79102
112.13850000000002	0.0	+	13	verb	phrase	3	3	match	rouler	4	1	y	0.79102
112.53820000000002	0.2	zhgv	13	verb	phrase	3	4	match	rouler	4	1	y	0.79102
112.7382	0.0	+	13	verb	phrase	3	5	match	rouler	4	1	y	0.79102
113.138	0.2	va	13	verb	phrase	3	6	match	rouler	4	1	y	0.79102
113.33790000000002	0.0	+	13	verb	phrase	3	7	match	rouler	4	1	y	0.79102
113.73770000000002	0.2	rouler	13	verb	phrase	3	8	match	rouler	4	1	y	0.79102
113.9376	0.0	+	13	verb	phrase	3	9	match	rouler	4	1	y	0.79102
114.3375	0.2	tôt	13	verb	phrase	3	10	match	rouler	4	1	y	0.79102
114.53740000000002	0.0	+	13	verb	phrase	3	11	match	rouler	4	1	y	0.79102
114.93720000000002	0.0	+	13	verb	phrase	3	12	match	rouler	4	1	y	0.79102
116.93630000000002	0.0	ROULER	13	verb	phrase	3	13	match	rouler	4	1	y	0.79102
117.7859	0.0	+	13	verb	phrase	3	14	match	rouler	4	1	y	0.79102
117.72730000000001	0.0	[response]	13	verb	phrase	3	15	match	rouler	4	1	y	0.79102
119.33520000000001	0.0	+	14	verb	phrase	1	1	match	patiner	5	1	y	0.65679
119.88500000000002	0.2	dltvb	14	verb	phrase	1	2	match	patiner	5	1	y	0.65679
120.0849	0.0	+	14	verb	phrase	1	3	match	patiner	5	1	y	0.65679
120.4847	0.2	xgjw	14	verb	phrase	1	4	match	patiner	5	1	y	0.65679
120.68460000000002	0.0	+	14	verb	phrase	1	5	match	patiner	5	1	y	0.65679
121.08440000000002	0.2	dckl	14	verb	phrase	1	6	match	patiner	5	1	y	0.65679
121.2843	0.0	+	14	verb	phrase	1	7	match	patiner	5	1	y	0.65679
121.6842	0.2	hnlbw	14	verb	phrase	1	8	match	patiner	5	1	y	0.65679
121.88410000000002	0.0	+	14	verb	phrase	1	9	match	patiner	5	1	y	0.65679
122.28390000000002	0.2	patiner	14	verb	phrase	1	10	match	patiner	5	1	y	0.65679
122.4838	0.0	+	14	verb	phrase	1	11	match	patiner	5	1	y	0.65679
122.8837	0.0	+	14	verb	phrase	1	12	match	patiner	5	1	y	0.65679
124.89940000000001	0.0	PATINER	14	verb	phrase	1	13	match	patiner	5	1	y	0.65679
125.61580000000001	0.0	+	14	verb	phrase	1	14	match	patiner	5	1	y	0.65679
125.55620000000002	0.0	[response]	14	verb	phrase	1	15	match	patiner	5	1	y	0.65679
127.29830000000001	0.0	+	15	noun	phrase	1	1	match	bleu	5	1	y	0.58308
127.84810000000002	0.2	bkczhtg	15	noun	phrase	1	2	match	bleu	5	1	y	0.58308
128.048	0.0	+	15	noun	phrase	1	3	match	bleu	5	1	y	0.58308
128.4478	0.2	mwgt	15	noun	phrase	1	4	match	bleu	5	1	y	0.58308
128.64770000000001	0.0	+	15	noun	phrase	1	5	match	bleu	5	1	y	0.58308
129.04760000000002	0.2	qtk	15	noun	phrase	1	6	match	bleu	5	1	y	0.58308
129.2475	0.0	+	15	noun	phrase	1	7	match	bleu	5	1	y	0.58308
129.6473	0.2	lmfqszk	15	noun	phrase	1	8	match	bleu	5	1	y	0.58308
129.84720000000002	0.0	+	15	noun	phrase	1	9	match	bleu	5	1	y	0.58308
130.247	0.2	bleu	15	noun	phrase	1	10	match	bleu	5	1	y	0.58308
130.4469	0.0	+	15	noun	phrase	1	11	match	bleu	5	1	y	0.58308
130.8468	0.0	+	15	noun	phrase	1	12	match	bleu	5	1	y	0.58308
132.8459	0.0	BLEU	15	noun	phrase	1	13	match	bleu	5	1	y	0.58308
133.49560000000002	0.0	+	15	noun	phrase	1	14	match	bleu	5	1	y	0.58308
133.4289	0.0	[response]	15	noun	phrase	1	15	match	bleu	5	1	y	0.58308
151.23760000000001	0.0	+	16	noun	list	1	1	nomatch	tard	-1	1	p	0.76249
151.78740000000002	0.2	ckvwhq	16	noun	list	1	2	nomatch	tard	-1	1	p	0.76249
151.9873	0.0	+	16	noun	list	1	3	nomatch	tard	-1	1	p	0.76249
152.3871	0.2	kdx	16	noun	list	1	4	nomatch	tard	-1	1	p	0.76249
152.58700000000002	0.0	+	16	noun	list	1	5	nomatch	tard	-1	1	p	0.76249
152.98690000000002	0.2	dckl	16	noun	list	1	6	nomatch	tard	-1	1	p	0.76249
153.1868	0.0	+	16	noun	list	1	7	nomatch	tard	-1	1	p	0.76249
153.5866	0.2	lxjhpct	16	noun	list	1	8	nomatch	tard	-1	1	p	0.76249
153.78650000000002	0.0	+	16	noun	list	1	9	nomatch	tard	-1	1	p	0.76249
154.18640000000002	0.2	vite	16	noun	list	1	10	nomatch	tard	-1	1	p	0.76249
154.3863	0.0	+	16	noun	list	1	11	nomatch	tard	-1	1	p	0.76249
154.7861	0.0	+	16	noun	list	1	12	nomatch	tard	-1	1	p	0.76249
156.7852	0.0	TARD	16	noun	list	1	13	nomatch	tard	-1	1	p	0.76249
157.60150000000002	0.0	+	16	noun	list	1	14	nomatch	tard	-1	1	p	0.76249
157.54770000000005	0.0	[response]	16	noun	list	1	15	nomatch	tard	-1	1	p	0.76249
159.1841	0.0	+	17	verb	list	2	1	match	voyager	5	1	y	0.63027
159.7339	0.2	nqxdg	17	verb	list	2	2	match	voyager	5	1	y	0.63027
159.93380000000002	0.0	+	17	verb	list	2	3	match	voyager	5	1	y	0.63027
160.33360000000002	0.2	mwgt	17	verb	list	2	4	match	voyager	5	1	y	0.63027
160.5336	0.0	+	17	verb	list	2	5	match	voyager	5	1	y	0.63027
160.95000000000002	0.2	sjkg	17	verb	list	2	6	match	voyager	5	1	y	0.63027
161.1499	0.0	+	17	verb	list	2	7	match	voyager	5	1	y	0.63027
161.5497	0.2	vieux	17	verb	list	2	8	match	voyager	5	1	y	0.63027
161.74960000000002	0.0	+	17	verb	list	2	9	match	voyager	5	1	y	0.63027
162.14950000000002	0.2	voyager	17	verb	list	2	10	match	voyager	5	1	y	0.63027
162.3494	0.0	+	17	verb	list	2	11	match	voyager	5	1	y	0.63027
162.7492	0.0	+	17	verb	list	2	12	match	voyager	5	1	y	0.63027
164.7483	0.0	VOYAGER	17	verb	list	2	13	match	voyager	5	1	y	0.63027
165.43130000000002	0.0	+	17	verb	list	2	14	match	voyager	5	1	y	0.63027
165.3786	0.0	[response]	17	verb	list	2	15	match	voyager	5	1	y	0.63027
167.1472	0.0	+	18	verb	list	3	1	nomatch	dans	-1	1	p	0.5894600000000001
167.697	0.2	srwltx	18	verb	list	3	2	nomatch	dans	-1	1	p	0.5894600000000001
167.89690000000002	0.0	+	18	verb	list	3	3	nomatch	dans	-1	1	p	0.5894600000000001
168.29670000000002	0.2	sqt	18	verb	list	3	4	nomatch	dans	-1	1	p	0.5894600000000001
168.4966	0.0	+	18	verb	list	3	5	nomatch	dans	-1	1	p	0.5894600000000001
168.8965	0.2	mon	18	verb	list	3	6	nomatch	dans	-1	1	p	0.5894600000000001
169.09640000000002	0.0	+	18	verb	list	3	7	nomatch	dans	-1	1	p	0.5894600000000001
169.49620000000002	0.2	nager	18	verb	list	3	8	nomatch	dans	-1	1	p	0.5894600000000001
169.6961	0.0	+	18	verb	list	3	9	nomatch	dans	-1	1	p	0.5894600000000001
170.0959	0.2	bleu	18	verb	list	3	10	nomatch	dans	-1	1	p	0.5894600000000001
170.2958	0.0	+	18	verb	list	3	11	nomatch	dans	-1	1	p	0.5894600000000001
170.69570000000002	0.0	+	18	verb	list	3	12	nomatch	dans	-1	1	p	0.5894600000000001
172.69480000000001	0.0	DANS	18	verb	list	3	13	nomatch	dans	-1	1	p	0.5894600000000001
173.3445	0.0	+	18	verb	list	3	14	nomatch	dans	-1	1	p	0.5894600000000001
173.2842	0.0	[response]	18	verb	list	3	15	nomatch	dans	-1	1	p	0.5894600000000001
175.0937	0.0	+	19	verb	phrase	4	1	match	chasser	4	1	y	0.81982
175.6434	0.2	wdzlx	19	verb	phrase	4	2	match	chasser	4	1	y	0.81982
175.8433	0.0	+	19	verb	phrase	4	3	match	chasser	4	1	y	0.81982
176.2432	0.2	jean	19	verb	phrase	4	4	match	chasser	4	1	y	0.81982
176.44310000000002	0.0	+	19	verb	phrase	4	5	match	chasser	4	1	y	0.81982
176.84290000000001	0.2	peut	19	verb	phrase	4	6	match	chasser	4	1	y	0.81982
177.0428	0.0	+	19	verb	phrase	4	7	match	chasser	4	1	y	0.81982
177.4426	0.2	chasser	19	verb	phrase	4	8	match	chasser	4	1	y	0.81982
177.64260000000002	0.0	+	19	verb	phrase	4	9	match	chasser	4	1	y	0.81982
178.04240000000001	0.2	ainsi	19	verb	phrase	4	10	match	chasser	4	1	y	0.81982
178.2423	0.0	+	19	verb	phrase	4	11	match	chasser	4	1	y	0.81982
178.6421	0.0	+	19	verb	phrase	4	12	match	chasser	4	1	y	0.81982
180.6412	0.0	CHASSER	19	verb	phrase	4	13	match	chasser	4	1	y	0.81982
181.5241	0.0	+	19	verb	phrase	4	14	match	chasser	4	1	y	0.81982
181.461	0.0	[response]	19	verb	phrase	4	15	match	chasser	4	1	y	0.81982
183.04010000000002	0.0	+	20	verb	list	2	1	nomatch	casier	-1	1	p	0.55959
183.5899	0.2	qktxwbs	20	verb	list	2	2	nomatch	casier	-1	1	p	0.55959
183.7898	0.0	+	20	verb	list	2	3	nomatch	casier	-1	1	p	0.55959
184.1896	0.2	pmch	20	verb	list	2	4	nomatch	casier	-1	1	p	0.55959
184.3895	0.0	+	20	verb	list	2	5	nomatch	casier	-1	1	p	0.55959
184.7894	0.2	wtrz	20	verb	list	2	6	nomatch	casier	-1	1	p	0.55959
184.98930000000001	0.0	+	20	verb	list	2	7	nomatch	casier	-1	1	p	0.55959
185.3891	0.2	nager	20	verb	list	2	8	nomatch	casier	-1	1	p	0.55959
185.589	0.0	+	20	verb	list	2	9	nomatch	casier	-1	1	p	0.55959
185.9888	0.2	blanc	20	verb	list	2	10	nomatch	casier	-1	1	p	0.55959
186.1887	0.0	+	20	verb	list	2	11	nomatch	casier	-1	1	p	0.55959
186.5886	0.0	+	20	verb	list	2	12	nomatch	casier	-1	1	p	0.55959
188.5877	0.0	CASIER	20	verb	list	2	13	nomatch	casier	-1	1	p	0.55959
189.2041	0.0	+	20	verb	list	2	14	nomatch	casier	-1	1	p	0.55959
189.1473	0.0	[response]	20	verb	list	2	15	nomatch	casier	-1	1	p	0.55959
198.99970000000002	0.0	+	21	noun	list	3	1	nomatch	vert	-1	1	p	0.80289
199.54940000000002	0.2	xnmvfgd	21	noun	list	3	2	nomatch	vert	-1	1	p	0.80289
199.7493	0.0	+	21	noun	list	3	3	nomatch	vert	-1	1	p	0.80289
200.1492	0.2	zhgv	21	noun	list	3	4	nomatch	vert	-1	1	p	0.80289
200.34910000000002	0.0	+	21	noun	list	3	5	nomatch	vert	-1	1	p	0.80289
200.74890000000002	0.2	mon	21	noun	list	3	6	nomatch	vert	-1	1	p	0.80289
200.9488	0.0	+	21	noun	list	3	7	nomatch	vert	-1	1	p	0.80289
201.3486	0.2	plus	21	noun	list	3	8	nomatch	vert	-1	1	p	0.80289
201.54850000000002	0.0	+	21	noun	list	3	9	nomatch	vert	-1	1	p	0.80289
201.94840000000002	0.2	cendrier	21	noun	list	3	10	nomatch	vert	-1	1	p	0.80289
202.1483	0.0	+	21	noun	list	3	11	nomatch	vert	-1	1	p	0.80289
202.5481	0.0	+	21	noun	list	3	12	nomatch	vert	-1	1	p	0.80289
204.5472	0.0	VERT	21	noun	list	3	13	nomatch	vert	-1	1	p	0.80289
205.4135	0.0	+	21	noun	list	3	14	nomatch	vert	-1	1	p	0.80289
205.3501	0.0	[response]	21	noun	list	3	15	nomatch	vert	-1	1	p	0.80289
206.9461	0.0	+	22	verb	list	1	1	nomatch	peut	-1	1	p	0.51285
207.4959	0.2	fbsm	22	verb	list	1	2	nomatch	peut	-1	1	p	0.51285
207.6958	0.0	+	22	verb	list	1	3	nomatch	peut	-1	1	p	0.51285
208.09560000000002	0.2	jxrw	22	verb	list	1	4	nomatch	peut	-1	1	p	0.51285
208.29550000000003	0.0	+	22	verb	list	1	5	nomatch	peut	-1	1	p	0.51285
208.69540000000003	0.2	sjkg	22	verb	list	1	6	nomatch	peut	-1	1	p	0.51285
208.8953	0.0	+	22	verb	list	1	7	nomatch	peut	-1	1	p	0.51285
209.29510000000002	0.2	hcjsp	22	verb	list	1	8	nomatch	peut	-1	1	p	0.51285
209.49500000000003	0.0	+	22	verb	list	1	9	nomatch	peut	-1	1	p	0.51285
209.8948	0.2	chasser	22	verb	list	1	10	nomatch	peut	-1	1	p	0.51285
210.09470000000002	0.0	+	22	verb	list	1	11	nomatch	peut	-1	1	p	0.51285
210.49460000000002	0.0	+	22	verb	list	1	12	nomatch	peut	-1	1	p	0.51285
212.49370000000002	0.0	PEUT	22	verb	list	1	13	nomatch	peut	-1	1	p	0.51285
213.0601	0.0	+	22	verb	list	1	14	nomatch	peut	-1	1	p	0.51285
213.0065	0.0	[response]	22	verb	list	1	15	nomatch	peut	-1	1	p	0.51285
214.8926	0.0	+	23	noun	phrase	1	1	match	vert	5	1	y	0.43909
215.44230000000002	0.2	mgdwvnx	23	noun	phrase	1	2	match	vert	5	1	y	0.43909
215.6423	0.0	+	23	noun	phrase	1	3	match	vert	5	1	y	0.43909
216.04210000000003	0.2	qmjf	23	noun	phrase	1	4	match	vert	5	1	y	0.43909
216.242	0.0	+	23	noun	phrase	1	5	match	vert	5	1	y	0.43909
216.64180000000002	0.2	wtrz	23	noun	phrase	1	6	match	vert	5	1	y	0.43909
216.84170000000003	0.0	+	23	noun	phrase	1	7	match	vert	5	1	y	0.43909
217.24160000000003	0.2	lhsdrxn	23	noun	phrase	1	8	match	vert	5	1	y	0.43909
217.4415	0.0	+	23	noun	phrase	1	9	match	vert	5	1	y	0.43909
217.84130000000002	0.2	vert	23	noun	phrase	1	10	match	vert	5	1	y	0.43909
218.04120000000003	0.0	+	23	noun	phrase	1	11	match	vert	5	1	y	0.43909
218.441	0.0	+	23	noun	phrase	1	12	match	vert	5	1	y	0.43909
220.4401	0.0	VERT	23	noun	phrase	1	13	match	vert	5	1	y	0.43909
220.9399	0.0	+	23	noun	phrase	1	14	match	vert	5	1	y	0.43909
220.8792	0.0	[response]	23	noun	phrase	1	15	match	vert	5	1	y	0.43909
222.8391	0.0	+	24	noun	phrase	2	1	nomatch	voilier	-1	1	p	0.52287
223.38880000000003	0.2	wbmsjdt	24	noun	phrase	2	2	nomatch	voilier	-1	1	p	0.52287
223.5887	0.0	+	24	noun	phrase	2	3	nomatch	voilier	-1	1	p	0.52287
223.98850000000002	0.2	dglq	24	noun	phrase	2	4	nomatch	voilier	-1	1	p	0.52287
224.1885	0.0	+	24	noun	phrase	2	5	nomatch	voilier	-1	1	p	0.52287
224.58830000000003	0.2	qtk	24	noun	phrase	2	6	nomatch	voilier	-1	1	p	0.52287
224.7882	0.0	+	24	noun	phrase	2	7	nomatch	voilier	-1	1	p	0.52287
225.18800000000002	0.2	petit	24	noun	phrase	2	8	nomatch	voilier	-1	1	p	0.52287
225.38790000000003	0.0	+	24	noun	phrase	2	9	nomatch	voilier	-1	1	p	0.52287
225.78780000000003	0.2	cendrier	24	noun	phrase	2	10	nomatch	voilier	-1	1	p	0.52287
225.9877	0.0	+	24	noun	phrase	2	11	nomatch	voilier	-1	1	p	0.52287
226.38750000000002	0.0	+	24	noun	phrase	2	12	nomatch	voilier	-1	1	p	0.52287
228.38660000000002	0.0	VOILIER	24	noun	phrase	2	13	nomatch	voilier	-1	1	p	0.52287
228.96970000000002	0.0	+	24	noun	phrase	2	14	nomatch	voilier	-1	1	p	0.52287
228.90940000000003	0.0	[response]	24	noun	phrase	2	15	nomatch	voilier	-1	1	p	0.52287
230.78549999999998	0.0	+	25	noun	phrase	1	1	nomatch	doit	-1	1	p	0.55957
231.3353	0.2	gvz	25	noun	phrase	1	2	nomatch	doit	-1	1	p	0.55957
231.5352	0.0	+	25	noun	phrase	1	3	nomatch	doit	-1	1	p	0.55957
231.93500000000003	0.2	kdx	25	noun	phrase	1	4	nomatch	doit	-1	1	p	0.55957
232.1349	0.0	+	25	noun	phrase	1	5	nomatch	doit	-1	1	p	0.55957
232.53470000000002	0.2	wtrz	25	noun	phrase	1	6	nomatch	doit	-1	1	p	0.55957
232.73460000000003	0.0	+	25	noun	phrase	1	7	nomatch	doit	-1	1	p	0.55957
233.13450000000003	0.2	bkmphj	25	noun	phrase	1	8	nomatch	doit	-1	1	p	0.55957
233.3344	0.0	+	25	noun	phrase	1	9	nomatch	doit	-1	1	p	0.55957
233.73420000000002	0.2	rouge	25	noun	phrase	1	10	nomatch	doit	-1	1	p	0.55957
233.93410000000003	0.0	+	25	noun	phrase	1	11	nomatch	doit	-1	1	p	0.55957
234.3339	0.0	+	25	noun	phrase	1	12	nomatch	doit	-1	1	p	0.55957
236.3497	0.0	DOIT	25	noun	phrase	1	13	nomatch	doit	-1	1	p	0.55957
236.9661	0.0	+	25	noun	phrase	1	14	nomatch	doit	-1	1	p	0.55957
236.9093	0.0	[response]	25	noun	phrase	1	15	nomatch	doit	-1	1	p	0.55957
246.7451	0.0	+	26	verb	phrase	2	1	nomatch	beaucoup	-1	1	p	0.58463
247.29480000000004	0.2	zjxmgf	26	verb	phrase	2	2	nomatch	beaucoup	-1	1	p	0.58463
247.4947	0.0	+	26	verb	phrase	2	3	nomatch	beaucoup	-1	1	p	0.58463
247.8946	0.2	pmch	26	verb	phrase	2	4	nomatch	beaucoup	-1	1	p	0.58463
248.09440000000004	0.0	+	26	verb	phrase	2	5	nomatch	beaucoup	-1	1	p	0.58463
248.49430000000004	0.2	dckl	26	verb	phrase	2	6	nomatch	beaucoup	-1	1	p	0.58463
248.6942	0.0	+	26	verb	phrase	2	7	nomatch	beaucoup	-1	1	p	0.58463
249.09400000000002	0.2	mieux	26	verb	phrase	2	8	nomatch	beaucoup	-1	1	p	0.58463
249.29390000000004	0.0	+	26	verb	phrase	2	9	nomatch	beaucoup	-1	1	p	0.58463
249.69380000000004	0.2	voyager	26	verb	phrase	2	10	nomatch	beaucoup	-1	1	p	0.58463
249.8937	0.0	+	26	verb	phrase	2	11	nomatch	beaucoup	-1	1	p	0.58463
250.29350000000002	0.0	+	26	verb	phrase	2	12	nomatch	beaucoup	-1	1	p	0.58463
252.29260000000002	0.0	BEAUCOUP	26	verb	phrase	2	13	nomatch	beaucoup	-1	1	p	0.58463
252.94230000000002	0.0	+	26	verb	phrase	2	14	nomatch	beaucoup	-1	1	p	0.58463
252.8772	0.0	[response]	26	verb	phrase	2	15	nomatch	beaucoup	-1	1	p	0.58463
254.6915	0.0	+	27	noun	list	4	1	nomatch	mon	-1	1	p	0.53485
255.2413	0.2	tkfrgp	27	noun	list	4	2	nomatch	mon	-1	1	p	0.53485
255.4412	0.0	+	27	noun	list	4	3	nomatch	mon	-1	1	p	0.53485
255.84100000000004	0.2	paul	27	noun	list	4	4	nomatch	mon	-1	1	p	0.53485
256.04089999999997	0.0	+	27	noun	list	4	5	nomatch	mon	-1	1	p	0.53485
256.4407	0.2	leur	27	noun	list	4	6	nomatch	mon	-1	1	p	0.53485
256.6407	0.0	+	27	noun	list	4	7	nomatch	mon	-1	1	p	0.53485
257.0405	0.2	plus	27	noun	list	4	8	nomatch	mon	-1	1	p	0.53485
257.24039999999997	0.0	+	27	noun	list	4	9	nomatch	mon	-1	1	p	0.53485
257.6402	0.2	rocher	27	noun	list	4	10	nomatch	mon	-1	1	p	0.53485
257.8401	0.0	+	27	noun	list	4	11	nomatch	mon	-1	1	p	0.53485
258.2399	0.0	+	27	noun	list	4	12	nomatch	mon	-1	1	p	0.53485
260.239	0.0	MON	27	noun	list	4	13	nomatch	mon	-1	1	p	0.53485
260.8388	0.0	+	27	noun	list	4	14	nomatch	mon	-1	1	p	0.53485
260.77389999999997	0.0	[response]	27	noun	list	4	15	nomatch	mon	-1	1	p	0.53485
262.638	0.0	+	28	noun	list	4	1	match	sans	2	1	y	0.9087
263.1877	0.2	dpfvkl	28	noun	list	4	2	match	sans	2	1	y	0.9087
263.38759999999996	0.0	+	28	noun	list	4	3	match	sans	2	1	y	0.9087
263.78749999999997	0.2	sans	28	noun	list	4	4	match	sans	2	1	y	0.9087
263.9874	0.0	+	28	noun	list	4	5	match	sans	2	1	y	0.9087
264.3872	0.2	va	28	noun	list	4	6	match	sans	2	1	y	0.9087
264.58709999999996	0.0	+	28	noun	list	4	7	match	sans	2	1	y	0.9087
264.9869	0.2	panier	28	noun	list	4	8	match	sans	2	1	y	0.9087
265.1868	0.0	+	28	noun	list	4	9	match	sans	2	1	y	0.9087
265.5866	0.2	vite	28	noun	list	4	10	match	sans	2	1	y	0.9087
265.78659999999996	0.0	+	28	noun	list	4	11	match	sans	2	1	y	0.9087
266.1864	0.0	+	28	noun	list	4	12	match	sans	2	1	y	0.9087
268.1855	0.0	SANS	28	noun	list	4	13	match	sans	2	1	y	0.9087
269.1517	0.0	+	28	noun	list	4	14	match	sans	2	1	y	0.9087
269.0942	0.0	[response]	28	noun	list	4	15	match	sans	2	1	y	0.9087
270.58439999999996	0.0	+	29	noun	list	3	1	nomatch	beaucoup	-1	1	p	0.59301
271.13419999999996	0.2	xjsq	29	noun	list	3	2	nomatch	beaucoup	-1	1	p	0.59301
271.3341	0.0	+	29	noun	list	3	3	nomatch	beaucoup	-1	1	p	0.59301
271.7339	0.2	xgjw	29	noun	list	3	4	nomatch	beaucoup	-1	1	p	0.59301
271.93379999999996	0.0	+	29	noun	list	3	5	nomatch	beaucoup	-1	1	p	0.59301
272.3336	0.2	mon	29	noun	list	3	6	nomatch	beaucoup	-1	1	p	0.59301
272.5336	0.0	+	29	noun	list	3	7	nomatch	beaucoup	-1	1	p	0.59301
272.95	0.2	plus	29	noun	list	3	8	nomatch	beaucoup	-1	1	p	0.59301
273.1499	0.0	+	29	noun	list	3	9	nomatch	beaucoup	-1	1	p	0.59301
273.5498	0.2	rocher	29	noun	list	3	10	nomatch	beaucoup	-1	1	p	0.59301
273.74969999999996	0.0	+	29	noun	list	3	11	nomatch	beaucoup	-1	1	p	0.59301
274.1495	0.0	+	29	noun	list	3	12	nomatch	beaucoup	-1	1	p	0.59301
276.1486	0.0	BEAUCOUP	29	noun	list	3	13	nomatch	beaucoup	-1	1	p	0.59301
276.7983	0.0	+	29	noun	list	3	14	nomatch	beaucoup	-1	1	p	0.59301
276.74160000000006	0.0	[response]	29	noun	list	3	15	nomatch	beaucoup	-1	1	p	0.59301
278.54749999999996	0.0	+	30	verb	list	4	1	match	rouge	5	1	y	0.5190800000000001
279.09729999999996	0.2	njq	30	verb	list	4	2	match	rouge	5	1	y	0.5190800000000001
279.2972	0.0	+	30	verb	list	4	3	match	rouge	5	1	y	0.5190800000000001
279.697	0.2	marc	30	verb	list	4	4	match	rouge	5	1	y	0.5190800000000001
279.89689999999996	0.0	+	30	verb	list	4	5	match	rouge	5	1	y	0.5190800000000001
280.29679999999996	0.2	leur	30	verb	list	4	6	match	rouge	5	1	y	0.5190800000000001
280.4967	0.0	+	30	verb	list	4	7	match	rouge	5	1	y	0.5190800000000001
280.8965	0.2	voyager	30	verb	list	4	8	match	rouge	5	1	y	0.5190800000000001
281.09639999999996	0.0	+	30	verb	list	4	9	match	rouge	5	1	y	0.5190800000000001
281.4962	0.2	rouge	30	verb	list	4	10	match	rouge	5	1	y	0.5190800000000001
281.6961	0.0	+	30	verb	list	4	11	match	rouge	5	1	y	0.5190800000000001
282.096	0.0	+	30	verb	list	4	12	match	rouge	5	1	y	0.5190800000000001
284.0951	0.0	ROUGE	30	verb	list	4	13	match	rouge	5	1	y	0.5190800000000001
284.6781	0.0	+	30	verb	list	4	14	match	rouge	5	1	y	0.5190800000000001
284.61420000000004	0.0	[response]	30	verb	list	4	15	match	rouge	5	1	y	0.5190800000000001
286.49399999999997	0.0	+	31	verb	phrase	2	1	match	tard	5	1	y	0.52489
287.0437	0.2	gmhcrfx	31	verb	phrase	2	2	match	tard	5	1	y	0.52489
287.2437	0.0	+	31	verb	phrase	2	3	match	tard	5	1	y	0.52489
287.64349999999996	0.2	xslt	31	verb	phrase	2	4	match	tard	5	1	y	0.52489
287.8434	0.0	+	31	verb	phrase	2	5	match	tard	5	1	y	0.52489
288.2432	0.2	gh	31	verb	phrase	2	6	match	tard	5	1	y	0.52489
288.44309999999996	0.0	+	31	verb	phrase	2	7	match	tard	5	1	y	0.52489
288.84299999999996	0.2	galoper	31	verb	phrase	2	8	match	tard	5	1	y	0.52489
289.0429	0.0	+	31	verb	phrase	2	9	match	tard	5	1	y	0.52489
289.4427	0.2	tard	31	verb	phrase	2	10	match	tard	5	1	y	0.52489
289.64259999999996	0.0	+	31	verb	phrase	2	11	match	tard	5	1	y	0.52489
290.0424	0.0	+	31	verb	phrase	2	12	match	tard	5	1	y	0.52489
292.0415	0.0	TARD	31	verb	phrase	2	13	match	tard	5	1	y	0.52489
292.6246	0.0	+	31	verb	phrase	2	14	match	tard	5	1	y	0.52489
292.5664	0.0	[response]	31	verb	phrase	2	15	match	tard	5	1	y	0.52489
294.4405	0.0	+	32	noun	phrase	3	1	nomatch	vieux	-1	1	p	0.6050400000000001
294.99019999999996	0.2	vfpkj	32	noun	phrase	3	2	nomatch	vieux	-1	1	p	0.6050400000000001
295.1901	0.0	+	32	noun	phrase	3	3	nomatch	vieux	-1	1	p	0.6050400000000001
295.5899	0.2	dglq	32	noun	phrase	3	4	nomatch	vieux	-1	1	p	0.6050400000000001
295.78979999999996	0.0	+	32	noun	phrase	3	5	nomatch	vieux	-1	1	p	0.6050400000000001
296.18969999999996	0.2	leur	32	noun	phrase	3	6	nomatch	vieux	-1	1	p	0.6050400000000001
296.3896	0.0	+	32	noun	phrase	3	7	nomatch	vieux	-1	1	p	0.6050400000000001
296.7894	0.2	nouveau	32	noun	phrase	3	8	nomatch	vieux	-1	1	p	0.6050400000000001
296.98929999999996	0.0	+	32	noun	phrase	3	9	nomatch	vieux	-1	1	p	0.6050400000000001
297.3891	0.2	cendrier	32	noun	phrase	3	10	nomatch	vieux	-1	1	p	0.6050400000000001
297.589	0.0	+	32	noun	phrase	3	11	nomatch	vieux	-1	1	p	0.6050400000000001
297.9889	0.0	+	32	noun	phrase	3	12	nomatch	vieux	-1	1	p	0.6050400000000001
299.988	0.0	VIEUX	32	noun	phrase	3	13	nomatch	vieux	-1	1	p	0.6050400000000001
300.6543	0.0	+	32	noun	phrase	3	14	nomatch	vieux	-1	1	p	0.6050400000000001
300.59299999999996	0.0	[response]	32	noun	phrase	3	15	nomatch	vieux	-1	1	p	0.6050400000000001
302.38689999999997	0.0	+	33	noun	list	1	1	nomatch	rocher	-1	1	p	0.53474
302.9367	0.2	jzvchw	33	noun	list	1	2	nomatch	rocher	-1	1	p	0.53474
303.1366	0.0	+	33	noun	list	1	3	nomatch	rocher	-1	1	p	0.53474
303.53639999999996	0.2	kdx	33	noun	list	1	4	nomatch	rocher	-1	1	p	0.53474
303.73629999999997	0.0	+	33	noun	list	1	5	nomatch	rocher	-1	1	p	0.53474
304.1361	0.2	dckl	33	noun	list	1	6	nomatch	rocher	-1	1	p	0.53474
304.33599999999996	0.0	+	33	noun	list	1	7	nomatch	rocher	-1	1	p	0.53474
304.73589999999996	0.2	hwsx	33	noun	list	1	8	nomatch	rocher	-1	1	p	0.53474
304.9358	0.0	+	33	noun	list	1	9	nomatch	rocher	-1	1	p	0.53474
305.3356	0.2	sablier	33	noun	list	1	10	nomatch	rocher	-1	1	p	0.53474
305.53549999999996	0.0	+	33	noun	list	1	11	nomatch	rocher	-1	1	p	0.53474
305.9353	0.0	+	33	noun	list	1	12	nomatch	rocher	-1	1	p	0.53474
307.9344	0.0	ROCHER	33	noun	list	1	13	nomatch	rocher	-1	1	p	0.53474
308.5342	0.0	+	33	noun	list	1	14	nomatch	rocher	-1	1	p	0.53474
308.4692	0.0	[response]	33	noun	list	1	15	nomatch	rocher	-1	1	p	0.53474
310.34999999999997	0.0	+	34	noun	phrase	1	1	nomatch	patiner	-1	1	p	0.63795
310.89979999999997	0.2	cvbrtgf	34	noun	phrase	1	2	nomatch	patiner	-1	1	p	0.63795
311.0997	0.0	+	34	noun	phrase	1	3	nomatch	patiner	-1	1	p	0.63795
311.49949999999995	0.2	jxrw	34	noun	phrase	1	4	nomatch	patiner	-1	1	p	0.63795
311.69939999999997	0.0	+	34	noun	phrase	1	5	nomatch	patiner	-1	1	p	0.63795
312.0992	0.2	qtk	34	noun	phrase	1	6	nomatch	patiner	-1	1	p	0.63795
312.2992	0.0	+	34	noun	phrase	1	7	nomatch	patiner	-1	1	p	0.63795
312.69899999999996	0.2	kbqhrxgp	34	noun	phrase	1	8	nomatch	patiner	-1	1	p	0.63795
312.89889999999997	0.0	+	34	noun	phrase	1	9	nomatch	patiner	-1	1	p	0.63795
313.2987	0.2	blanc	34	noun	phrase	1	10	nomatch	patiner	-1	1	p	0.63795
313.4986	0.0	+	34	noun	phrase	1	11	nomatch	patiner	-1	1	p	0.63795
313.8984	0.0	+	34	noun	phrase	1	12	nomatch	patiner	-1	1	p	0.63795
315.8975	0.0	PATINER	34	noun	phrase	1	13	nomatch	patiner	-1	1	p	0.63795
316.5972	0.0	+	34	noun	phrase	1	14	nomatch	patiner	-1	1	p	0.63795
316.53549999999996	0.0	[response]	34	noun	phrase	1	15	nomatch	patiner	-1	1	p	0.63795
318.2965	0.0	+	35	noun	list	3	1	match	tard	5	1	y	0.77004
318.8462	0.2	cxv	35	noun	list	3	2	match	tard	5	1	y	0.77004
319.04609999999997	0.0	+	35	noun	list	3	3	match	tard	5	1	y	0.77004
319.44599999999997	0.2	pbxw	35	noun	list	3	4	match	tard	5	1	y	0.77004
319.6459	0.0	+	35	noun	list	3	5	match	tard	5	1	y	0.77004
320.04569999999995	0.2	va	35	noun	list	3	6	match	tard	5	1	y	0.77004
320.24559999999997	0.0	+	35	noun	list	3	7	match	tard	5	1	y	0.77004
320.6454	0.2	sablier	35	noun	list	3	8	match	tard	5	1	y	0.77004
320.8453	0.0	+	35	noun	list	3	9	match	tard	5	1	y	0.77004
321.24519999999995	0.2	tard	35	noun	list	3	10	match	tard	5	1	y	0.77004
321.44509999999997	0.0	+	35	noun	list	3	11	match	tard	5	1	y	0.77004
321.8449	0.0	+	35	noun	list	3	12	match	tard	5	1	y	0.77004
323.844	0.0	TARD	35	noun	list	3	13	match	tard	5	1	y	0.77004
324.67699999999996	0.0	+	35	noun	list	3	14	match	tard	5	1	y	0.77004
324.614	0.0	[response]	35	noun	list	3	15	match	tard	5	1	y	0.77004
326.24289999999996	0.0	+	36	verb	list	2	1	nomatch	beau	-1	1	p	1.0295
326.79269999999997	0.2	plrs	36	verb	list	2	2	nomatch	beau	-1	1	p	1.0295
326.9926	0.0	+	36	verb	list	2	3	nomatch	beau	-1	1	p	1.0295
327.3924	0.2	dglq	36	verb	list	2	4	nomatch	beau	-1	1	p	1.0295
327.59229999999997	0.0	+	36	verb	list	2	5	nomatch	beau	-1	1	p	1.0295
327.99219999999997	0.2	dckl	36	verb	list	2	6	nomatch	beau	-1	1	p	1.0295
328.1921	0.0	+	36	verb	list	2	7	nomatch	beau	-1	1	p	1.0295
328.5919	0.2	grand	36	verb	list	2	8	nomatch	beau	-1	1	p	1.0295
328.79179999999997	0.0	+	36	verb	list	2	9	nomatch	beau	-1	1	p	1.0295
329.1916	0.2	patiner	36	verb	list	2	10	nomatch	beau	-1	1	p	1.0295
329.3915	0.0	+	36	verb	list	2	11	nomatch	beau	-1	1	p	1.0295
329.7914	0.0	+	36	verb	list	2	12	nomatch	beau	-1	1	p	1.0295
331.7905	0.0	BEAU	36	verb	list	2	13	nomatch	beau	-1	1	p	1.0295
332.8733	0.0	+	36	verb	list	2	14	nomatch	beau	-1	1	p	1.0295
332.82	0.0	[response]	36	verb	list	2	15	nomatch	beau	-1	1	p	1.0295
342.1858	0.0	+	37	noun	phrase	2	1	nomatch	tablier	-1	1	p	0.95896
342.7356	0.2	bhxw	37	noun	phrase	2	2	nomatch	tablier	-1	1	p	0.95896
342.9355	0.0	+	37	noun	phrase	2	3	nomatch	tablier	-1	1	p	0.95896
343.33529999999996	0.2	qmjf	37	noun	phrase	2	4	nomatch	tablier	-1	1	p	0.95896
343.5352	0.0	+	37	noun	phrase	2	5	nomatch	tablier	-1	1	p	0.95896
343.935	0.2	wgh	37	noun	phrase	2	6	nomatch	tablier	-1	1	p	0.95896
344.135	0.0	+	37	noun	phrase	2	7	nomatch	tablier	-1	1	p	0.95896
344.53479999999996	0.2	boîtier	37	noun	phrase	2	8	nomatch	tablier	-1	1	p	0.95896
344.7347	0.0	+	37	noun	phrase	2	9	nomatch	tablier	-1	1	p	0.95896
345.1345	0.2	bleu	37	noun	phrase	2	10	nomatch	tablier	-1	1	p	0.95896
345.33439999999996	0.0	+	37	noun	phrase	2	11	nomatch	tablier	-1	1	p	0.95896
345.7342	0.0	+	37	noun	phrase	2	12	nomatch	tablier	-1	1	p	0.95896
347.75	0.0	TABLIER	37	noun	phrase	2	13	nomatch	tablier	-1	1	p	0.95896
348.76619999999997	0.0	+	37	noun	phrase	2	14	nomatch	tablier	-1	1	p	0.95896
348.709	0.0	[response]	37	noun	phrase	2	15	nomatch	tablier	-1	1	p	0.95896
366.1418	0.0	+	38	noun	phrase	3	1	match	sablier	4	1	y	0.60597
366.6916	0.2	fxcmgqr	38	noun	phrase	3	2	match	sablier	4	1	y	0.60597
366.8915	0.0	+	38	noun	phrase	3	3	match	sablier	4	1	y	0.60597
367.2913	0.2	kdx	38	noun	phrase	3	4	match	sablier	4	1	y	0.60597
367.4912	0.0	+	38	noun	phrase	3	5	match	sablier	4	1	y	0.60597
367.89099999999996	0.2	mon	38	noun	phrase	3	6	match	sablier	4	1	y	0.60597
368.0909	0.0	+	38	noun	phrase	3	7	match	sablier	4	1	y	0.60597
368.4908	0.2	sablier	38	noun	phrase	3	8	match	sablier	4	1	y	0.60597
368.6907	0.0	+	38	noun	phrase	3	9	match	sablier	4	1	y	0.60597
369.09049999999996	0.2	blanc	38	noun	phrase	3	10	match	sablier	4	1	y	0.60597
369.2904	0.0	+	38	noun	phrase	3	11	match	sablier	4	1	y	0.60597
369.6902	0.0	+	38	noun	phrase	3	12	match	sablier	4	1	y	0.60597
371.6893	0.0	SABLIER	38	noun	phrase	3	13	match	sablier	4	1	y	0.60597
372.35569999999996	0.0	+	38	noun	phrase	3	14	match	sablier	4	1	y	0.60597
372.2953	0.0	[response]	38	noun	phrase	3	15	match	sablier	4	1	y	0.60597
374.0883	0.0	+	39	noun	phrase	4	1	match	petit	4	1	y	0.83815
374.638	0.2	hmzw	39	noun	phrase	4	2	match	petit	4	1	y	0.83815
374.8379	0.0	+	39	noun	phrase	4	3	match	petit	4	1	y	0.83815
375.23769999999996	0.2	sans	39	noun	phrase	4	4	match	petit	4	1	y	0.83815
375.4377	0.0	+	39	noun	phrase	4	5	match	petit	4	1	y	0.83815
375.8375	0.2	leur	39	noun	phrase	4	6	match	petit	4	1	y	0.83815
376.0374	0.0	+	39	noun	phrase	4	7	match	petit	4	1	y	0.83815
376.43719999999996	0.2	petit	39	noun	phrase	4	8	match	petit	4	1	y	0.83815
376.6371	0.0	+	39	noun	phrase	4	9	match	petit	4	1	y	0.83815
377.037	0.2	tablier	39	noun	phrase	4	10	match	petit	4	1	y	0.83815
377.2369	0.0	+	39	noun	phrase	4	11	match	petit	4	1	y	0.83815
377.63669999999996	0.0	+	39	noun	phrase	4	12	match	petit	4	1	y	0.83815
379.63579999999996	0.0	PETIT	39	noun	phrase	4	13	match	petit	4	1	y	0.83815
380.5354	0.0	+	39	noun	phrase	4	14	match	petit	4	1	y	0.83815
380.47389999999996	0.0	[response]	39	noun	phrase	4	15	match	petit	4	1	y	0.83815
382.0347	0.0	+	40	noun	phrase	3	1	nomatch	tard	-1	1	p	0.63023
382.5845	0.2	cjlp	40	noun	phrase	3	2	nomatch	tard	-1	1	p	0.63023
382.7844	0.0	+	40	noun	phrase	3	3	nomatch	tard	-1	1	p	0.63023
383.1842	0.2	mwgt	40	noun	phrase	3	4	nomatch	tard	-1	1	p	0.63023
383.3841	0.0	+	40	noun	phrase	3	5	nomatch	tard	-1	1	p	0.63023
383.78389999999996	0.2	son	40	noun	phrase	3	6	nomatch	tard	-1	1	p	0.63023
383.9838	0.0	+	40	noun	phrase	3	7	nomatch	tard	-1	1	p	0.63023
384.3837	0.2	casier	40	noun	phrase	3	8	nomatch	tard	-1	1	p	0.63023
384.5836	0.0	+	40	noun	phrase	3	9	nomatch	tard	-1	1	p	0.63023
385.0	0.2	rouge	40	noun	phrase	3	10	nomatch	tard	-1	1	p	0.63023
385.2	0.0	+	40	noun	phrase	3	11	nomatch	tard	-1	1	p	0.63023
385.59979999999996	0.0	+	40	noun	phrase	3	12	nomatch	tard	-1	1	p	0.63023
387.59889999999996	0.0	TARD	40	noun	phrase	3	13	nomatch	tard	-1	1	p	0.63023
388.2819	0.0	+	40	noun	phrase	3	14	nomatch	tard	-1	1	p	0.63023
388.22909999999996	0.0	[response]	40	noun	phrase	3	15	nomatch	tard	-1	1	p	0.63023
389.9978	0.0	+	41	noun	phrase	1	1	match	vieux	5	1	y	0.56759
390.5476	0.2	xjcfvm	41	noun	phrase	1	2	match	vieux	5	1	y	0.56759
390.7475	0.0	+	41	noun	phrase	1	3	match	vieux	5	1	y	0.56759
391.1473	0.2	kdx	41	noun	phrase	1	4	match	vieux	5	1	y	0.56759
391.3472	0.0	+	41	noun	phrase	1	5	match	vieux	5	1	y	0.56759
391.7471	0.2	wtrz	41	noun	phrase	1	6	match	vieux	5	1	y	0.56759
391.947	0.0	+	41	noun	phrase	1	7	match	vieux	5	1	y	0.56759
392.3468	0.2	qvmnfs	41	noun	phrase	1	8	match	vieux	5	1	y	0.56759
392.5467	0.0	+	41	noun	phrase	1	9	match	vieux	5	1	y	0.56759
392.94649999999996	0.2	vieux	41	noun	phrase	1	10	match	vieux	5	1	y	0.56759
393.14639999999997	0.0	+	41	noun	phrase	1	11	match	vieux	5	1	y	0.56759
393.5462	0.0	+	41	noun	phrase	1	12	match	vieux	5	1	y	0.56759
395.5454	0.0	VIEUX	41	noun	phrase	1	13	match	vieux	5	1	y	0.56759
396.17839999999995	0.0	+	41	noun	phrase	1	14	match	vieux	5	1	y	0.56759
396.113	0.0	[response]	41	noun	phrase	1	15	match	vieux	5	1	y	0.56759
397.9443	0.0	+	42	verb	list	2	1	match	beau	4	1	y	0.80386
398.49399999999997	0.2	zmrt	42	verb	list	2	2	match	beau	4	1	y	0.80386
398.69399999999996	0.0	+	42	verb	list	2	3	match	beau	4	1	y	0.80386
399.0938	0.2	jxrw	42	verb	list	2	4	match	beau	4	1	y	0.80386
399.2937	0.0	+	42	verb	list	2	5	match	beau	4	1	y	0.80386
399.6935	0.2	dckl	42	verb	list	2	6	match	beau	4	1	y	0.80386
399.8934	0.0	+	42	verb	list	2	7	match	beau	4	1	y	0.80386
400.29319999999996	0.2	beau	42	verb	list	2	8	match	beau	4	1	y	0.80386
400.49309999999997	0.0	+	42	verb	list	2	9	match	beau	4	1	y	0.80386
400.893	0.2	jongler	42	verb	list	2	10	match	beau	4	1	y	0.80386
401.0929	0.0	+	42	verb	list	2	11	match	beau	4	1	y	0.80386
401.49269999999996	0.0	+	42	verb	list	2	12	match	beau	4	1	y	0.80386
403.49179999999996	0.0	BEAU	42	verb	list	2	13	match	beau	4	1	y	0.80386
404.3581	0.0	+	42	verb	list	2	14	match	beau	4	1	y	0.80386
404.29569999999995	0.0	[response]	42	verb	list	2	15	match	beau	4	1	y	0.80386
405.8907	0.0	+	43	verb	phrase	1	1	match	nager	5	1	y	0.54312
406.4405	0.2	spqcv	43	verb	phrase	1	2	match	nager	5	1	y	0.54312
406.6404	0.0	+	43	verb	phrase	1	3	match	nager	5	1	y	0.54312
407.04019999999997	0.2	kcbt	43	verb	phrase	1	4	match	nager	5	1	y	0.54312
407.2401	0.0	+	43	verb	phrase	1	5	match	nager	5	1	y	0.54312
407.64	0.2	gh	43	verb	phrase	1	6	match	nager	5	1	y	0.54312
407.8399	0.0	+	43	verb	phrase	1	7	match	nager	5	1	y	0.54312
408.23969999999997	0.2	fxjts	43	verb	phrase	1	8	match	nager	5	1	y	0.54312
408.4396	0.0	+	43	verb	phrase	1	9	match	nager	5	1	y	0.54312
408.83939999999996	0.2	nager	43	verb	phrase	1	10	match	nager	5	1	y	0.54312
409.03929999999997	0.0	+	43	verb	phrase	1	11	match	nager	5	1	y	0.54312
409.43919999999997	0.0	+	43	verb	phrase	1	12	match	nager	5	1	y	0.54312
411.43829999999997	0.0	NAGER	43	verb	phrase	1	13	match	nager	5	1	y	0.54312
412.03799999999995	0.0	+	43	verb	phrase	1	14	match	nager	5	1	y	0.54312
411.9814	0.0	[response]	43	verb	phrase	1	15	match	nager	5	1	y	0.54312
413.8372	0.0	+	44	verb	phrase	3	1	match	plus	4	1	y	0.5467
414.38689999999997	0.2	kthqm	44	verb	phrase	3	2	match	plus	4	1	y	0.5467
414.58689999999996	0.0	+	44	verb	phrase	3	3	match	plus	4	1	y	0.5467
414.9867	0.2	xjng	44	verb	phrase	3	4	match	plus	4	1	y	0.5467
415.1866	0.0	+	44	verb	phrase	3	5	match	plus	4	1	y	0.5467
415.58639999999997	0.2	peut	44	verb	phrase	3	6	match	plus	4	1	y	0.5467
415.7863	0.0	+	44	verb	phrase	3	7	match	plus	4	1	y	0.5467
416.1862	0.2	plus	44	verb	phrase	3	8	match	plus	4	1	y	0.5467
416.3861	0.0	+	44	verb	phrase	3	9	match	plus	4	1	y	0.5467
416.78589999999997	0.2	plonger	44	verb	phrase	3	10	match	plus	4	1	y	0.5467
416.9858	0.0	+	44	verb	phrase	3	11	match	plus	4	1	y	0.5467
417.38559999999995	0.0	+	44	verb	phrase	3	12	match	plus	4	1	y	0.5467
419.3847	0.0	PLUS	44	verb	phrase	3	13	match	plus	4	1	y	0.5467
419.98449999999997	0.0	+	44	verb	phrase	3	14	match	plus	4	1	y	0.5467
419.93140000000005	0.0	[response]	44	verb	phrase	3	15	match	plus	4	1	y	0.5467
429.7967	0.0	+	45	noun	phrase	4	1	match	sur	2	1	y	0.665
430.3465	0.2	ndfx	45	noun	phrase	4	2	match	sur	2	1	y	0.665
430.5464	0.0	+	45	noun	phrase	4	3	match	sur	2	1	y	0.665
430.9462	0.2	sur	45	noun	phrase	4	4	match	sur	2	1	y	0.665
431.1461	0.0	+	45	noun	phrase	4	5	match	sur	2	1	y	0.665
431.546	0.2	leur	45	noun	phrase	4	6	match	sur	2	1	y	0.665
431.7459	0.0	+	45	noun	phrase	4	7	match	sur	2	1	y	0.665
432.1457	0.2	panier	45	noun	phrase	4	8	match	sur	2	1	y	0.665
432.3456	0.0	+	45	noun	phrase	4	9	match	sur	2	1	y	0.665
432.74539999999996	0.2	noir	45	noun	phrase	4	10	match	sur	2	1	y	0.665
432.9453	0.0	+	45	noun	phrase	4	11	match	sur	2	1	y	0.665
433.3452	0.0	+	45	noun	phrase	4	12	match	sur	2	1	y	0.665
435.3443	0.0	SUR	45	noun	phrase	4	13	match	sur	2	1	y	0.665
436.0773	0.0	+	45	noun	phrase	4	14	match	sur	2	1	y	0.665
436.0093	0.0	[response]	45	noun	phrase	4	15	match	sur	2	1	y	0.665
437.7432	0.0	+	46	verb	phrase	1	1	match	tard	5	1	y	0.46913
438.293	0.2	wtv	46	verb	phrase	1	2	match	tard	5	1	y	0.46913
438.49289999999996	0.0	+	46	verb	phrase	1	3	match	tard	5	1	y	0.46913
438.8927	0.2	pmch	46	verb	phrase	1	4	match	tard	5	1	y	0.46913
439.0926	0.0	+	46	verb	phrase	1	5	match	tard	5	1	y	0.46913
439.4924	0.2	sjkg	46	verb	phrase	1	6	match	tard	5	1	y	0.46913
439.6923	0.0	+	46	verb	phrase	1	7	match	tard	5	1	y	0.46913
440.0922	0.2	szhnxjw	46	verb	phrase	1	8	match	tard	5	1	y	0.46913
440.2921	0.0	+	46	verb	phrase	1	9	match	tard	5	1	y	0.46913
440.6919	0.2	tard	46	verb	phrase	1	10	match	tard	5	1	y	0.46913
440.8918	0.0	+	46	verb	phrase	1	11	match	tard	5	1	y	0.46913
441.29159999999996	0.0	+	46	verb	phrase	1	12	match	tard	5	1	y	0.46913
443.29069999999996	0.0	TARD	46	verb	phrase	1	13	match	tard	5	1	y	0.46913
443.8238	0.0	+	46	verb	phrase	1	14	match	tard	5	1	y	0.46913
443.75989999999996	0.0	[response]	46	verb	phrase	1	15	match	tard	5	1	y	0.46913
445.68969999999996	0.0	+	47	noun	list	1	1	nomatch	tablier	-1	1	p	0.54225
446.2394	0.2	qjxpnvt	47	noun	list	1	2	nomatch	tablier	-1	1	p	0.54225
446.4393	0.0	+	47	noun	list	1	3	nomatch	tablier	-1	1	p	0.54225
446.8391	0.2	xjng	47	noun	list	1	4	nomatch	tablier	-1	1	p	0.54225
447.03909999999996	0.0	+	47	noun	list	1	5	nomatch	tablier	-1	1	p	0.54225
447.4389	0.2	wgh	47	noun	list	1	6	nomatch	tablier	-1	1	p	0.54225
447.6388	0.0	+	47	noun	list	1	7	nomatch	tablier	-1	1	p	0.54225
448.0386	0.2	kzglwpns	47	noun	list	1	8	nomatch	tablier	-1	1	p	0.54225
448.2385	0.0	+	47	noun	list	1	9	nomatch	tablier	-1	1	p	0.54225
448.63829999999996	0.2	cendrier	47	noun	list	1	10	nomatch	tablier	-1	1	p	0.54225
448.8382	0.0	+	47	noun	list	1	11	nomatch	tablier	-1	1	p	0.54225
449.2381	0.0	+	47	noun	list	1	12	nomatch	tablier	-1	1	p	0.54225
451.2372	0.0	TABLIER	47	noun	list	1	13	nomatch	tablier	-1	1	p	0.54225
451.83689999999996	0.0	+	47	noun	list	1	14	nomatch	tablier	-1	1	p	0.54225
451.7794	0.0	[response]	47	noun	list	1	15	nomatch	tablier	-1	1	p	0.54225
453.6361	0.0	+	48	verb	phrase	3	1	nomatch	dans	-1	1	p	0.52525
454.1859	0.2	swz	48	verb	phrase	3	2	nomatch	dans	-1	1	p	0.52525
454.38579999999996	0.0	+	48	verb	phrase	3	3	nomatch	dans	-1	1	p	0.52525
454.7856	0.2	sqt	48	verb	phrase	3	4	nomatch	dans	-1	1	p	0.52525
454.9855	0.0	+	48	verb	phrase	3	5	nomatch	dans	-1	1	p	0.52525
455.3853	0.2	peut	48	verb	phrase	3	6	nomatch	dans	-1	1	p	0.52525
455.5852	0.0	+	48	verb	phrase	3	7	nomatch	dans	-1	1	p	0.52525
455.9851	0.2	patiner	48	verb	phrase	3	8	nomatch	dans	-1	1	p	0.52525
456.185	0.0	+	48	verb	phrase	3	9	nomatch	dans	-1	1	p	0.52525
456.5848	0.2	tard	48	verb	phrase	3	10	nomatch	dans	-1	1	p	0.52525
456.7847	0.0	+	48	verb	phrase	3	11	nomatch	dans	-1	1	p	0.52525
457.18449999999996	0.0	+	48	verb	phrase	3	12	nomatch	dans	-1	1	p	0.52525
459.18359999999996	0.0	DANS	48	verb	phrase	3	13	nomatch	dans	-1	1	p	0.52525
459.76669999999996	0.0	+	48	verb	phrase	3	14	nomatch	dans	-1	1	p	0.52525
459.70889999999997	0.0	[response]	48	verb	phrase	3	15	nomatch	dans	-1	1	p	0.52525
461.5992	0.0	+	49	verb	list	1	1	match	noir	5	1	y	0.4906
462.149	0.2	sjrd	49	verb	list	1	2	match	noir	5	1	y	0.4906
462.34889999999996	0.0	+	49	verb	list	1	3	match	noir	5	1	y	0.4906
462.7487	0.2	pmch	49	verb	list	1	4	match	noir	5	1	y	0.4906
462.9486	0.0	+	49	verb	list	1	5	match	noir	5	1	y	0.4906
463.34839999999997	0.2	qtk	49	verb	list	1	6	match	noir	5	1	y	0.4906
463.5484	0.0	+	49	verb	list	1	7	match	noir	5	1	y	0.4906
463.94819999999993	0.2	trpncbk	49	verb	list	1	8	match	noir	5	1	y	0.4906
464.1481	0.0	+	49	verb	list	1	9	match	noir	5	1	y	0.4906
464.5479	0.2	noir	49	verb	list	1	10	match	noir	5	1	y	0.4906
464.7478	0.0	+	49	verb	list	1	11	match	noir	5	1	y	0.4906
465.1476	0.0	+	49	verb	list	1	12	match	noir	5	1	y	0.4906
467.1468	0.0	NOIR	49	verb	list	1	13	match	noir	5	1	y	0.4906
467.6965	0.0	+	49	verb	list	1	14	match	noir	5	1	y	0.4906
467.63739999999996	0.0	[response]	49	verb	list	1	15	match	noir	5	1	y	0.4906
477.5421	0.0	+	50	noun	phrase	1	1	match	grand	5	1	y	0.55767
478.0919	0.2	glhdf	50	noun	phrase	1	2	match	grand	5	1	y	0.55767
478.29179999999997	0.0	+	50	noun	phrase	1	3	match	grand	5	1	y	0.55767
478.6916	0.2	jxrw	50	noun	phrase	1	4	match	grand	5	1	y	0.55767
478.89149999999995	0.0	+	50	noun	phrase	1	5	match	grand	5	1	y	0.55767
479.2913	0.2	wgh	50	noun	phrase	1	6	match	grand	5	1	y	0.55767
479.49119999999994	0.0	+	50	noun	phrase	1	7	match	grand	5	1	y	0.55767
479.89109999999994	0.2	kbqhrxgp	50	noun	phrase	1	8	match	grand	5	1	y	0.55767
480.091	0.0	+	50	noun	phrase	1	9	match	grand	5	1	y	0.55767
480.49080000000004	0.2	grand	50	noun	phrase	1	10	match	grand	5	1	y	0.55767
480.6907	0.0	+	50	noun	phrase	1	11	match	grand	5	1	y	0.55767
481.0905	0.0	+	50	noun	phrase	1	12	match	grand	5	1	y	0.55767
483.0896	0.0	GRAND	50	noun	phrase	1	13	match	grand	5	1	y	0.55767
483.706	0.0	+	50	noun	phrase	1	14	match	grand	5	1	y	0.55767
483.6473	0.0	[response]	50	noun	phrase	1	15	match	grand	5	1	y	0.55767
485.4886	0.0	+	51	noun	list	1	1	nomatch	luc	-1	1	p	0.51008
486.03829999999994	0.2	kglnzm	51	noun	list	1	2	nomatch	luc	-1	1	p	0.51008
486.2382	0.0	+	51	noun	list	1	3	nomatch	luc	-1	1	p	0.51008
486.6381	0.2	qmjf	51	noun	list	1	4	nomatch	luc	-1	1	p	0.51008
486.83799999999997	0.0	+	51	noun	list	1	5	nomatch	luc	-1	1	p	0.51008
487.2378	0.2	gh	51	noun	list	1	6	nomatch	luc	-1	1	p	0.51008
487.43769999999995	0.0	+	51	noun	list	1	7	nomatch	luc	-1	1	p	0.51008
487.8375	0.2	fxjts	51	noun	list	1	8	nomatch	luc	-1	1	p	0.51008
488.03739999999993	0.0	+	51	noun	list	1	9	nomatch	luc	-1	1	p	0.51008
488.43729999999994	0.2	rocher	51	noun	list	1	10	nomatch	luc	-1	1	p	0.51008
488.6372	0.0	+	51	noun	list	1	11	nomatch	luc	-1	1	p	0.51008
489.03700000000003	0.0	+	51	noun	list	1	12	nomatch	luc	-1	1	p	0.51008
491.03610000000003	0.0	LUC	51	noun	list	1	13	nomatch	luc	-1	1	p	0.51008
491.60249999999996	0.0	+	51	noun	list	1	14	nomatch	luc	-1	1	p	0.51008
491.5462	0.0	[response]	51	noun	list	1	15	nomatch	luc	-1	1	p	0.51008
493.43499999999995	0.0	+	52	verb	list	3	1	nomatch	panier	-1	1	p	0.43289
493.98479999999995	0.2	pcj	52	verb	list	3	2	nomatch	panier	-1	1	p	0.43289
494.1847	0.0	+	52	verb	list	3	3	nomatch	panier	-1	1	p	0.43289
494.58449999999993	0.2	xgjw	52	verb	list	3	4	nomatch	panier	-1	1	p	0.43289
494.7844	0.0	+	52	verb	list	3	5	nomatch	panier	-1	1	p	0.43289
495.18420000000003	0.2	son	52	verb	list	3	6	nomatch	panier	-1	1	p	0.43289
495.38419999999996	0.0	+	52	verb	list	3	7	nomatch	panier	-1	1	p	0.43289
495.784	0.2	galoper	52	verb	list	3	8	nomatch	panier	-1	1	p	0.43289
495.98389999999995	0.0	+	52	verb	list	3	9	nomatch	panier	-1	1	p	0.43289
496.3837	0.2	blanc	52	verb	list	3	10	nomatch	panier	-1	1	p	0.43289
496.58359999999993	0.0	+	52	verb	list	3	11	nomatch	panier	-1	1	p	0.43289
497.0001	0.0	+	52	verb	list	3	12	nomatch	panier	-1	1	p	0.43289
498.9992	0.0	PANIER	52	verb	list	3	13	nomatch	panier	-1	1	p	0.43289
499.499	0.0	+	52	verb	list	3	14	nomatch	panier	-1	1	p	0.43289
499.4321	0.0	[response]	52	verb	list	3	15	nomatch	panier	-1	1	p	0.43289
501.3981	0.0	+	53	verb	phrase	1	1	nomatch	avec	-1	1	p	0.56107
501.9479	0.2	wrkxvjl	53	verb	phrase	1	2	nomatch	avec	-1	1	p	0.56107
502.14779999999996	0.0	+	53	verb	phrase	1	3	nomatch	avec	-1	1	p	0.56107
502.5476	0.2	pmch	53	verb	phrase	1	4	nomatch	avec	-1	1	p	0.56107
502.74749999999995	0.0	+	53	verb	phrase	1	5	nomatch	avec	-1	1	p	0.56107
503.14739999999995	0.2	dckl	53	verb	phrase	1	6	nomatch	avec	-1	1	p	0.56107
503.3473	0.0	+	53	verb	phrase	1	7	nomatch	avec	-1	1	p	0.56107
503.74709999999993	0.2	rgkf	53	verb	phrase	1	8	nomatch	avec	-1	1	p	0.56107
503.947	0.0	+	53	verb	phrase	1	9	nomatch	avec	-1	1	p	0.56107
504.34680000000003	0.2	rouler	53	verb	phrase	1	10	nomatch	avec	-1	1	p	0.56107
504.5467	0.0	+	53	verb	phrase	1	11	nomatch	avec	-1	1	p	0.56107
504.9465	0.0	+	53	verb	phrase	1	12	nomatch	avec	-1	1	p	0.56107
506.9457	0.0	AVEC	53	verb	phrase	1	13	nomatch	avec	-1	1	p	0.56107
507.5621	0.0	+	53	verb	phrase	1	14	nomatch	avec	-1	1	p	0.56107
507.5067	0.0	[response]	53	verb	phrase	1	15	nomatch	avec	-1	1	p	0.56107
509.3446	0.0	+	54	noun	phrase	1	1	nomatch	vieux	-1	1	p	0.42005
509.8944	0.2	bzfhv	54	noun	phrase	1	2	nomatch	vieux	-1	1	p	0.42005
510.0943	0.0	+	54	noun	phrase	1	3	nomatch	vieux	-1	1	p	0.42005
510.4941	0.2	qmjf	54	noun	phrase	1	4	nomatch	vieux	-1	1	p	0.42005
510.69399999999996	0.0	+	54	noun	phrase	1	5	nomatch	vieux	-1	1	p	0.42005
511.0938	0.2	wtrz	54	noun	phrase	1	6	nomatch	vieux	-1	1	p	0.42005
511.29369999999994	0.0	+	54	noun	phrase	1	7	nomatch	vieux	-1	1	p	0.42005
511.6935	0.2	bkmphj	54	noun	phrase	1	8	nomatch	vieux	-1	1	p	0.42005
511.8935	0.0	+	54	noun	phrase	1	9	nomatch	vieux	-1	1	p	0.42005
512.2932999999999	0.2	petit	54	noun	phrase	1	10	nomatch	vieux	-1	1	p	0.42005
512.4932	0.0	+	54	noun	phrase	1	11	nomatch	vieux	-1	1	p	0.42005
512.893	0.0	+	54	noun	phrase	1	12	nomatch	vieux	-1	1	p	0.42005
514.8921	0.0	VIEUX	54	noun	phrase	1	13	nomatch	vieux	-1	1	p	0.42005
515.3752	0.0	+	54	noun	phrase	1	14	nomatch	vieux	-1	1	p	0.42005
515.3122	0.0	[response]	54	noun	phrase	1	15	nomatch	vieux	-1	1	p	0.42005
525.2875	0.0	+	55	noun	list	4	1	match	mon	3	1	y	0.44808
525.8371999999999	0.2	dgx	55	noun	list	4	2	match	mon	3	1	y	0.44808
526.0371	0.0	+	55	noun	list	4	3	match	mon	3	1	y	0.44808
526.437	0.2	jade	55	noun	list	4	4	match	mon	3	1	y	0.44808
526.6369	0.0	+	55	noun	list	4	5	match	mon	3	1	y	0.44808
527.0367	0.2	mon	55	noun	list	4	6	match	mon	3	1	y	0.44808
527.2366	0.0	+	55	noun	list	4	7	match	mon	3	1	y	0.44808
527.6364	0.2	beaucoup	55	noun	list	4	8	match	mon	3	1	y	0.44808
527.8362999999999	0.0	+	55	noun	list	4	9	match	mon	3	1	y	0.44808
528.2361999999999	0.2	sablier	55	noun	list	4	10	match	mon	3	1	y	0.44808
528.4361	0.0	+	55	noun	list	4	11	match	mon	3	1	y	0.44808
528.8359	0.0	+	55	noun	list	4	12	match	mon	3	1	y	0.44808
530.835	0.0	MON	55	noun	list	4	13	match	mon	3	1	y	0.44808
531.3348	0.0	+	55	noun	list	4	14	match	mon	3	1	y	0.44808
531.2831	0.0	[response]	55	noun	list	4	15	match	mon	3	1	y	0.44808
541.247	0.0	+	56	verb	phrase	1	1	match	plonger	5	1	y	0.60886
541.7968	0.2	bzpnrg	56	verb	phrase	1	2	match	plonger	5	1	y	0.60886
541.9967	0.0	+	56	verb	phrase	1	3	match	plonger	5	1	y	0.60886
542.3965	0.2	xslt	56	verb	phrase	1	4	match	plonger	5	1	y	0.60886
542.5964	0.0	+	56	verb	phrase	1	5	match	plonger	5	1	y	0.60886
542.9963	0.2	gh	56	verb	phrase	1	6	match	plonger	5	1	y	0.60886
543.1962	0.0	+	56	verb	phrase	1	7	match	plonger	5	1	y	0.60886
543.596	0.2	pbqvx	56	verb	phrase	1	8	match	plonger	5	1	y	0.60886
543.7959	0.0	+	56	verb	phrase	1	9	match	plonger	5	1	y	0.60886
544.1957	0.2	plonger	56	verb	phrase	1	10	match	plonger	5	1	y	0.60886
544.3956	0.0	+	56	verb	phrase	1	11	match	plonger	5	1	y	0.60886
544.7954	0.0	+	56	verb	phrase	1	12	match	plonger	5	1	y	0.60886
546.7946	0.0	PLONGER	56	verb	phrase	1	13	match	plonger	5	1	y	0.60886
547.4609	0.0	+	56	verb	phrase	1	14	match	plonger	5	1	y	0.60886
547.4034	0.0	[response]	56	verb	phrase	1	15	match	plonger	5	1	y	0.60886
549.1935	0.0	+	57	verb	phrase	4	1	nomatch	marc	-1	1	p	0.61491
549.7432	0.2	djt	57	verb	phrase	4	2	nomatch	marc	-1	1	p	0.61491
549.9431	0.0	+	57	verb	phrase	4	3	nomatch	marc	-1	1	p	0.61491
550.343	0.2	paul	57	verb	phrase	4	4	nomatch	marc	-1	1	p	0.61491
550.5429	0.0	+	57	verb	phrase	4	5	nomatch	marc	-1	1	p	0.61491
550.9427	0.2	va	57	verb	phrase	4	6	nomatch	marc	-1	1	p	0.61491
551.1426	0.0	+	57	verb	phrase	4	7	nomatch	marc	-1	1	p	0.61491
551.5423999999999	0.2	mieux	57	verb	phrase	4	8	nomatch	marc	-1	1	p	0.61491
551.7424	0.0	+	57	verb	phrase	4	9	nomatch	marc	-1	1	p	0.61491
552.1422	0.2	nager	57	verb	phrase	4	10	nomatch	marc	-1	1	p	0.61491
552.3421	0.0	+	57	verb	phrase	4	11	nomatch	marc	-1	1	p	0.61491
552.7419	0.0	+	57	verb	phrase	4	12	nomatch	marc	-1	1	p	0.61491
554.741	0.0	MARC	57	verb	phrase	4	13	nomatch	marc	-1	1	p	0.61491
555.4073999999999	0.0	+	57	verb	phrase	4	14	nomatch	marc	-1	1	p	0.61491
555.3559000000001	0.0	[response]	57	verb	phrase	4	15	nomatch	marc	-1	1	p	0.61491
557.1399	0.0	+	58	verb	list	1	1	match	voyager	5	1	y	0.39773
557.6897	0.2	pml	58	verb	list	1	2	match	voyager	5	1	y	0.39773
557.8896	0.0	+	58	verb	list	1	3	match	voyager	5	1	y	0.39773
558.2894	0.2	pmch	58	verb	list	1	4	match	voyager	5	1	y	0.39773
558.4893	0.0	+	58	verb	list	1	5	match	voyager	5	1	y	0.39773
558.8892	0.2	wtrz	58	verb	list	1	6	match	voyager	5	1	y	0.39773
559.0891	0.0	+	58	verb	list	1	7	match	voyager	5	1	y	0.39773
559.4889	0.2	hmfc	58	verb	list	1	8	match	voyager	5	1	y	0.39773
559.6888	0.0	+	58	verb	list	1	9	match	voyager	5	1	y	0.39773
560.0885999999999	0.2	voyager	58	verb	list	1	10	match	voyager	5	1	y	0.39773
560.2886	0.0	+	58	verb	list	1	11	match	voyager	5	1	y	0.39773
560.6884	0.0	+	58	verb	list	1	12	match	voyager	5	1	y	0.39773
562.6875	0.0	VOYAGER	58	verb	list	1	13	match	voyager	5	1	y	0.39773
563.1373	0.0	+	58	verb	list	1	14	match	voyager	5	1	y	0.39773
563.0852	0.0	[response]	58	verb	list	1	15	match	voyager	5	1	y	0.39773
581.0959	0.0	+	59	verb	list	1	1	nomatch	beau	-1	1	p	0.46435
581.6457	0.2	qlzgxsc	59	verb	list	1	2	nomatch	beau	-1	1	p	0.46435
581.8456	0.0	+	59	verb	list	1	3	nomatch	beau	-1	1	p	0.46435
582.2454	0.2	jxrw	59	verb	list	1	4	nomatch	beau	-1	1	p	0.46435
582.4453	0.0	+	59	verb	list	1	5	nomatch	beau	-1	1	p	0.46435
582.8451	0.2	dckl	59	verb	list	1	6	nomatch	beau	-1	1	p	0.46435
583.0450999999999	0.0	+	59	verb	list	1	7	nomatch	beau	-1	1	p	0.46435
583.4449	0.2	trpncbk	59	verb	list	1	8	nomatch	beau	-1	1	p	0.46435
583.6448	0.0	+	59	verb	list	1	9	nomatch	beau	-1	1	p	0.46435
584.0446	0.2	petit	59	verb	list	1	10	nomatch	beau	-1	1	p	0.46435
584.2445	0.0	+	59	verb	list	1	11	nomatch	beau	-1	1	p	0.46435
584.6442999999999	0.0	+	59	verb	list	1	12	nomatch	beau	-1	1	p	0.46435
586.6435	0.0	BEAU	59	verb	list	1	13	nomatch	beau	-1	1	p	0.46435
587.1599	0.0	+	59	verb	list	1	14	nomatch	beau	-1	1	p	0.46435
587.1078	0.0	[response]	59	verb	list	1	15	nomatch	beau	-1	1	p	0.46435
589.0423999999999	0.0	+	60	verb	list	4	1	match	pour	2	1	y	0.62892
589.5921	0.2	fxng	60	verb	list	4	2	match	pour	2	1	y	0.62892
589.792	0.0	+	60	verb	list	4	3	match	pour	2	1	y	0.62892
590.1919	0.2	pour	60	verb	list	4	4	match	pour	2	1	y	0.62892
590.3918	0.0	+	60	verb	list	4	5	match	pour	2	1	y	0.62892
590.7916	0.2	peut	60	verb	list	4	6	match	pour	2	1	y	0.62892
590.9915	0.0	+	60	verb	list	4	7	match	pour	2	1	y	0.62892
591.3913	0.2	grand	60	verb	list	4	8	match	pour	2	1	y	0.62892
591.5912	0.0	+	60	verb	list	4	9	match	pour	2	1	y	0.62892
591.9911	0.2	rouler	60	verb	list	4	10	match	pour	2	1	y	0.62892
592.191	0.0	+	60	verb	list	4	11	match	pour	2	1	y	0.62892
592.5908	0.0	+	60	verb	list	4	12	match	pour	2	1	y	0.62892
594.5899	0.0	POUR	60	verb	list	4	13	match	pour	2	1	y	0.62892
595.2728999999999	0.0	+	60	verb	list	4	14	match	pour	2	1	y	0.62892
595.2188	0.0	[response]	60	verb	list	4	15	match	pour	2	1	y	0.62892
596.9888	0.0	+	61	verb	phrase	3	1	nomatch	va	-1	1	p	0.48472
597.5386	0.2	kplf	61	verb	phrase	3	2	nomatch	va	-1	1	p	0.48472
597.7384999999999	0.0	+	61	verb	phrase	3	3	nomatch	va	-1	1	p	0.48472
598.1383	0.2	xgjw	61	verb	phrase	3	4	nomatch	va	-1	1	p	0.48472
598.3382	0.0	+	61	verb	phrase	3	5	nomatch	va	-1	1	p	0.48472
598.7379999999999	0.2	doit	61	verb	phrase	3	6	nomatch	va	-1	1	p	0.48472
598.938	0.0	+	61	verb	phrase	3	7	nomatch	va	-1	1	p	0.48472
599.3378	0.2	chasser	61	verb	phrase	3	8	nomatch	va	-1	1	p	0.48472
599.5377	0.0	+	61	verb	phrase	3	9	nomatch	va	-1	1	p	0.48472
599.9375	0.2	loin	61	verb	phrase	3	10	nomatch	va	-1	1	p	0.48472
600.1374	0.0	+	61	verb	phrase	3	11	nomatch	va	-1	1	p	0.48472
600.5373	0.0	+	61	verb	phrase	3	12	nomatch	va	-1	1	p	0.48472
602.5364	0.0	VA	61	verb	phrase	3	13	nomatch	va	-1	1	p	0.48472
603.0861	0.0	+	61	verb	phrase	3	14	nomatch	va	-1	1	p	0.48472
603.0210999999999	0.0	[response]	61	verb	phrase	3	15	nomatch	va	-1	1	p	0.48472
604.9353	0.0	+	62	noun	phrase	3	1	nomatch	grand	-1	1	p	0.62891
605.485	0.2	vwdpxb	62	noun	phrase	3	2	nomatch	grand	-1	1	p	0.62891
605.685	0.0	+	62	noun	phrase	3	3	nomatch	grand	-1	1	p	0.62891
606.0848	0.2	dglq	62	noun	phrase	3	4	nomatch	grand	-1	1	p	0.62891
606.2846999999999	0.0	+	62	noun	phrase	3	5	nomatch	grand	-1	1	p	0.62891
606.6845	0.2	leur	62	noun	phrase	3	6	nomatch	grand	-1	1	p	0.62891
606.8844	0.0	+	62	noun	phrase	3	7	nomatch	grand	-1	1	p	0.62891
607.2841999999999	0.2	voilier	62	noun	phrase	3	8	nomatch	grand	-1	1	p	0.62891
607.4841	0.0	+	62	noun	phrase	3	9	nomatch	grand	-1	1	p	0.62891
607.884	0.2	blanc	62	noun	phrase	3	10	nomatch	grand	-1	1	p	0.62891
608.0839	0.0	+	62	noun	phrase	3	11	nomatch	grand	-1	1	p	0.62891
608.4837	0.0	+	62	noun	phrase	3	12	nomatch	grand	-1	1	p	0.62891
610.4995	0.0	GRAND	62	noun	phrase	3	13	nomatch	grand	-1	1	p	0.62891
611.1825	0.0	+	62	noun	phrase	3	14	nomatch	grand	-1	1	p	0.62891
611.1283999999999	0.0	[response]	62	noun	phrase	3	15	nomatch	grand	-1	1	p	0.62891
612.8984	0.0	+	63	verb	list	4	1	match	vert	5	1	y	0.85427
613.4481	0.2	tnvcm	63	verb	list	4	2	match	vert	5	1	y	0.85427
613.6481	0.0	+	63	verb	list	4	3	match	vert	5	1	y	0.85427
614.0479	0.2	marc	63	verb	list	4	4	match	vert	5	1	y	0.85427
614.2478	0.0	+	63	verb	list	4	5	match	vert	5	1	y	0.85427
614.6476	0.2	mon	63	verb	list	4	6	match	vert	5	1	y	0.85427
614.8475	0.0	+	63	verb	list	4	7	match	vert	5	1	y	0.85427
615.2473	0.2	patiner	63	verb	list	4	8	match	vert	5	1	y	0.85427
615.4472999999999	0.0	+	63	verb	list	4	9	match	vert	5	1	y	0.85427
615.8471	0.2	vert	63	verb	list	4	10	match	vert	5	1	y	0.85427
616.047	0.0	+	63	verb	list	4	11	match	vert	5	1	y	0.85427
616.4467999999999	0.0	+	63	verb	list	4	12	match	vert	5	1	y	0.85427
618.4458999999999	0.0	VERT	63	verb	list	4	13	match	vert	5	1	y	0.85427
619.3622	0.0	+	63	verb	list	4	14	match	vert	5	1	y	0.85427
619.3002	0.0	[response]	63	verb	list	4	15	match	vert	5	1	y	0.85427
620.8448999999999	0.0	+	64	verb	phrase	4	1	nomatch	casier	-1	1	p	0.51716
621.3946	0.2	pczklwn	64	verb	phrase	4	2	nomatch	casier	-1	1	p	0.51716
621.5944999999999	0.0	+	64	verb	phrase	4	3	nomatch	casier	-1	1	p	0.51716
621.9943	0.2	yves	64	verb	phrase	4	4	nomatch	casier	-1	1	p	0.51716
622.1943	0.0	+	64	verb	phrase	4	5	nomatch	casier	-1	1	p	0.51716
622.5941	0.2	doit	64	verb	phrase	4	6	nomatch	casier	-1	1	p	0.51716
622.794	0.0	+	64	verb	phrase	4	7	nomatch	casier	-1	1	p	0.51716
623.1938	0.2	plus	64	verb	phrase	4	8	nomatch	casier	-1	1	p	0.51716
623.3937	0.0	+	64	verb	phrase	4	9	nomatch	casier	-1	1	p	0.51716
623.7935	0.2	rouler	64	verb	phrase	4	10	nomatch	casier	-1	1	p	0.51716
623.9934999999999	0.0	+	64	verb	phrase	4	11	nomatch	casier	-1	1	p	0.51716
624.3933	0.0	+	64	verb	phrase	4	12	nomatch	casier	-1	1	p	0.51716
626.3924	0.0	CASIER	64	verb	phrase	4	13	nomatch	casier	-1	1	p	0.51716
626.9755	0.0	+	64	verb	phrase	4	14	nomatch	casier	-1	1	p	0.51716
626.9095	0.0	[response]	64	verb	phrase	4	15	nomatch	casier	-1	1	p	0.51716
628.7913	0.0	+	65	verb	phrase	2	1	match	loin	5	1	y	0.63804
629.3411	0.2	htrsfd	65	verb	phrase	2	2	match	loin	5	1	y	0.63804
629.5409999999999	0.0	+	65	verb	phrase	2	3	match	loin	5	1	y	0.63804
629.9408	0.2	kcbt	65	verb	phrase	2	4	match	loin	5	1	y	0.63804
630.1407	0.0	+	65	verb	phrase	2	5	match	loin	5	1	y	0.63804
630.5405	0.2	sjkg	65	verb	phrase	2	6	match	loin	5	1	y	0.63804
630.7404	0.0	+	65	verb	phrase	2	7	match	loin	5	1	y	0.63804
631.1403	0.2	voyager	65	verb	phrase	2	8	match	loin	5	1	y	0.63804
631.3402	0.0	+	65	verb	phrase	2	9	match	loin	5	1	y	0.63804
631.74	0.2	loin	65	verb	phrase	2	10	match	loin	5	1	y	0.63804
631.9399	0.0	+	65	verb	phrase	2	11	match	loin	5	1	y	0.63804
632.3397	0.0	+	65	verb	phrase	2	12	match	loin	5	1	y	0.63804
634.3388	0.0	LOIN	65	verb	phrase	2	13	match	loin	5	1	y	0.63804
635.0385	0.0	+	65	verb	phrase	2	14	match	loin	5	1	y	0.63804
634.9769	0.0	[response]	65	verb	phrase	2	15	match	loin	5	1	y	0.63804
636.7378	0.0	+	66	verb	phrase	2	1	nomatch	ainsi	-1	1	p	1.0379
637.2875	0.2	vklw	66	verb	phrase	2	2	nomatch	ainsi	-1	1	p	1.0379
637.4874	0.0	+	66	verb	phrase	2	3	nomatch	ainsi	-1	1	p	1.0379
637.8873	0.2	xslt	66	verb	phrase	2	4	nomatch	ainsi	-1	1	p	1.0379
638.0871999999999	0.0	+	66	verb	phrase	2	5	nomatch	ainsi	-1	1	p	1.0379
638.487	0.2	dckl	66	verb	phrase	2	6	nomatch	ainsi	-1	1	p	1.0379
638.6869	0.0	+	66	verb	phrase	2	7	nomatch	ainsi	-1	1	p	1.0379
639.0867	0.2	chasser	66	verb	phrase	2	8	nomatch	ainsi	-1	1	p	1.0379
639.2866	0.0	+	66	verb	phrase	2	9	nomatch	ainsi	-1	1	p	1.0379
639.6865	0.2	vite	66	verb	phrase	2	10	nomatch	ainsi	-1	1	p	1.0379
639.8864	0.0	+	66	verb	phrase	2	11	nomatch	ainsi	-1	1	p	1.0379
640.2862	0.0	+	66	verb	phrase	2	12	nomatch	ainsi	-1	1	p	1.0379
642.2853	0.0	AINSI	66	verb	phrase	2	13	nomatch	ainsi	-1	1	p	1.0379
643.3847999999999	0.0	+	66	verb	phrase	2	14	nomatch	ainsi	-1	1	p	1.0379
643.3231999999999	0.0	[response]	66	verb	phrase	2	15	nomatch	ainsi	-1	1	p	1.0379
644.6842	0.0	+	67	verb	phrase	1	1	nomatch	plus	-1	1	p	1.234
645.234	0.2	xbznjpg	67	verb	phrase	1	2	nomatch	plus	-1	1	p	1.234
645.4339	0.0	+	67	verb	phrase	1	3	nomatch	plus	-1	1	p	1.234
645.8337	0.2	zhgv	67	verb	phrase	1	4	nomatch	plus	-1	1	p	1.234
646.0503	0.0	+	67	verb	phrase	1	5	nomatch	plus	-1	1	p	1.234
646.4501	0.2	sjkg	67	verb	phrase	1	6	nomatch	plus	-1	1	p	1.234
646.65	0.0	+	67	verb	phrase	1	7	nomatch	plus	-1	1	p	1.234
647.0498	0.2	trpncbk	67	verb	phrase	1	8	nomatch	plus	-1	1	p	1.234
647.2497999999999	0.0	+	67	verb	phrase	1	9	nomatch	plus	-1	1	p	1.234
647.6496	0.2	moins	67	verb	phrase	1	10	nomatch	plus	-1	1	p	1.234
647.8495	0.0	+	67	verb	phrase	1	11	nomatch	plus	-1	1	p	1.234
648.2493	0.0	+	67	verb	phrase	1	12	nomatch	plus	-1	1	p	1.234
650.2484	0.0	PLUS	67	verb	phrase	1	13	nomatch	plus	-1	1	p	1.234
651.5477999999999	0.0	+	67	verb	phrase	1	14	nomatch	plus	-1	1	p	1.234
651.4824	0.0	[response]	67	verb	phrase	1	15	nomatch	plus	-1	1	p	1.234
652.6473	0.0	+	68	noun	list	1	1	match	ainsi	5	1	y	0.48827
653.1971	0.2	cxpzj	68	noun	list	1	2	match	ainsi	5	1	y	0.48827
653.3969999999999	0.0	+	68	noun	list	1	3	match	ainsi	5	1	y	0.48827
653.7968	0.2	kdx	68	noun	list	1	4	match	ainsi	5	1	y	0.48827
653.9967	0.0	+	68	noun	list	1	5	match	ainsi	5	1	y	0.48827
654.3966	0.2	gh	68	noun	list	1	6	match	ainsi	5	1	y	0.48827
654.5965	0.0	+	68	noun	list	1	7	match	ainsi	5	1	y	0.48827
654.9963	0.2	dbtgrkh	68	noun	list	1	8	match	ainsi	5	1	y	0.48827
655.1962	0.0	+	68	noun	list	1	9	match	ainsi	5	1	y	0.48827
655.596	0.2	ainsi	68	noun	list	1	10	match	ainsi	5	1	y	0.48827
655.7959	0.0	+	68	noun	list	1	11	match	ainsi	5	1	y	0.48827
656.1958	0.0	+	68	noun	list	1	12	match	ainsi	5	1	y	0.48827
658.1949	0.0	AINSI	68	noun	list	1	13	match	ainsi	5	1	y	0.48827
658.7446	0.0	+	68	noun	list	1	14	match	ainsi	5	1	y	0.48827
658.6831	0.0	[response]	68	noun	list	1	15	match	ainsi	5	1	y	0.48827
660.5938	0.0	+	69	verb	phrase	1	1	nomatch	mon	-1	1	p	0.43417
661.1435	0.2	rgmpxq	69	verb	phrase	1	2	nomatch	mon	-1	1	p	0.43417
661.3435	0.0	+	69	verb	phrase	1	3	nomatch	mon	-1	1	p	0.43417
661.7433	0.2	pmch	69	verb	phrase	1	4	nomatch	mon	-1	1	p	0.43417
661.9431999999999	0.0	+	69	verb	phrase	1	5	nomatch	mon	-1	1	p	0.43417
662.343	0.2	dckl	69	verb	phrase	1	6	nomatch	mon	-1	1	p	0.43417
662.5429	0.0	+	69	verb	phrase	1	7	nomatch	mon	-1	1	p	0.43417
662.9427	0.2	hqw	69	verb	phrase	1	8	nomatch	mon	-1	1	p	0.43417
663.1427	0.0	+	69	verb	phrase	1	9	nomatch	mon	-1	1	p	0.43417
663.5425	0.2	patiner	69	verb	phrase	1	10	nomatch	mon	-1	1	p	0.43417
663.7424	0.0	+	69	verb	phrase	1	11	nomatch	mon	-1	1	p	0.43417
664.1422	0.0	+	69	verb	phrase	1	12	nomatch	mon	-1	1	p	0.43417
666.1413	0.0	MON	69	verb	phrase	1	13	nomatch	mon	-1	1	p	0.43417
666.6410999999999	0.0	+	69	verb	phrase	1	14	nomatch	mon	-1	1	p	0.43417
666.5755	0.0	[response]	69	verb	phrase	1	15	nomatch	mon	-1	1	p	0.43417
668.5403	0.0	+	70	noun	list	3	1	nomatch	tôt	-1	1	p	0.51793
669.09	0.2	xdbtvc	70	noun	list	3	2	nomatch	tôt	-1	1	p	0.51793
669.2899	0.0	+	70	noun	list	3	3	nomatch	tôt	-1	1	p	0.51793
669.6897	0.2	kcbt	70	noun	list	3	4	nomatch	tôt	-1	1	p	0.51793
669.8896	0.0	+	70	noun	list	3	5	nomatch	tôt	-1	1	p	0.51793
670.2895	0.2	leur	70	noun	list	3	6	nomatch	tôt	-1	1	p	0.51793
670.4893999999999	0.0	+	70	noun	list	3	7	nomatch	tôt	-1	1	p	0.51793
670.8892	0.2	mieux	70	noun	list	3	8	nomatch	tôt	-1	1	p	0.51793
671.0891	0.0	+	70	noun	list	3	9	nomatch	tôt	-1	1	p	0.51793
671.4889	0.2	voilier	70	noun	list	3	10	nomatch	tôt	-1	1	p	0.51793
671.6888	0.0	+	70	noun	list	3	11	nomatch	tôt	-1	1	p	0.51793
672.0887	0.0	+	70	noun	list	3	12	nomatch	tôt	-1	1	p	0.51793
674.0878	0.0	TÔT	70	noun	list	3	13	nomatch	tôt	-1	1	p	0.51793
674.6709	0.0	+	70	noun	list	3	14	nomatch	tôt	-1	1	p	0.51793
674.6057000000001	0.0	[response]	70	noun	list	3	15	nomatch	tôt	-1	1	p	0.51793
676.4866999999999	0.0	+	71	verb	list	3	1	match	nouveau	4	1	y	0.59847
677.0364999999999	0.2	psdwzn	71	verb	list	3	2	match	nouveau	4	1	y	0.59847
677.2364	0.0	+	71	verb	list	3	3	match	nouveau	4	1	y	0.59847
677.6362	0.2	kdx	71	verb	list	3	4	match	nouveau	4	1	y	0.59847
677.8361	0.0	+	71	verb	list	3	5	match	nouveau	4	1	y	0.59847
678.2359	0.2	va	71	verb	list	3	6	match	nouveau	4	1	y	0.59847
678.4358	0.0	+	71	verb	list	3	7	match	nouveau	4	1	y	0.59847
678.8357	0.2	nouveau	71	verb	list	3	8	match	nouveau	4	1	y	0.59847
679.0355999999999	0.0	+	71	verb	list	3	9	match	nouveau	4	1	y	0.59847
679.4354	0.2	nager	71	verb	list	3	10	match	nouveau	4	1	y	0.59847
679.6353	0.0	+	71	verb	list	3	11	match	nouveau	4	1	y	0.59847
680.0350999999999	0.0	+	71	verb	list	3	12	match	nouveau	4	1	y	0.59847
682.0341999999999	0.0	NOUVEAU	71	verb	list	3	13	match	nouveau	4	1	y	0.59847
682.7006	0.0	+	71	verb	list	3	14	match	nouveau	4	1	y	0.59847
682.6327	0.0	[response]	71	verb	list	3	15	match	nouveau	4	1	y	0.59847
684.4498	0.0	+	72	noun	phrase	1	1	nomatch	casier	-1	1	p	0.4300800000000001
684.9996	0.2	xjzsmg	72	noun	phrase	1	2	nomatch	casier	-1	1	p	0.4300800000000001
685.1995	0.0	+	72	noun	phrase	1	3	nomatch	casier	-1	1	p	0.4300800000000001
685.5993	0.2	dglq	72	noun	phrase	1	4	nomatch	casier	-1	1	p	0.4300800000000001
685.7991999999999	0.0	+	72	noun	phrase	1	5	nomatch	casier	-1	1	p	0.4300800000000001
686.1990999999999	0.2	qtk	72	noun	phrase	1	6	nomatch	casier	-1	1	p	0.4300800000000001
686.399	0.0	+	72	noun	phrase	1	7	nomatch	casier	-1	1	p	0.4300800000000001
686.7988	0.2	hmfc	72	noun	phrase	1	8	nomatch	casier	-1	1	p	0.4300800000000001
686.9987	0.0	+	72	noun	phrase	1	9	nomatch	casier	-1	1	p	0.4300800000000001
687.3985	0.2	tablier	72	noun	phrase	1	10	nomatch	casier	-1	1	p	0.4300800000000001
687.5984	0.0	+	72	noun	phrase	1	11	nomatch	casier	-1	1	p	0.4300800000000001
687.9982	0.0	+	72	noun	phrase	1	12	nomatch	casier	-1	1	p	0.4300800000000001
689.9973	0.0	CASIER	72	noun	phrase	1	13	nomatch	casier	-1	1	p	0.4300800000000001
690.4805	0.0	+	72	noun	phrase	1	14	nomatch	casier	-1	1	p	0.4300800000000001
690.4274	0.0	[response]	72	noun	phrase	1	15	nomatch	casier	-1	1	p	0.4300800000000001
692.3963	0.0	+	73	verb	phrase	1	1	match	galoper	5	1	y	0.47806
692.946	0.2	fzvh	73	verb	phrase	1	2	match	galoper	5	1	y	0.47806
693.1459	0.0	+	73	verb	phrase	1	3	match	galoper	5	1	y	0.47806
693.5458	0.2	sqt	73	verb	phrase	1	4	match	galoper	5	1	y	0.47806
693.7456999999999	0.0	+	73	verb	phrase	1	5	match	galoper	5	1	y	0.47806
694.1455	0.2	gh	73	verb	phrase	1	6	match	galoper	5	1	y	0.47806
694.3453999999999	0.0	+	73	verb	phrase	1	7	match	galoper	5	1	y	0.47806
694.7452	0.2	mchd	73	verb	phrase	1	8	match	galoper	5	1	y	0.47806
694.9451	0.0	+	73	verb	phrase	1	9	match	galoper	5	1	y	0.47806
695.345	0.2	galoper	73	verb	phrase	1	10	match	galoper	5	1	y	0.47806
695.5449	0.0	+	73	verb	phrase	1	11	match	galoper	5	1	y	0.47806
695.9447	0.0	+	73	verb	phrase	1	12	match	galoper	5	1	y	0.47806
697.9438	0.0	GALOPER	73	verb	phrase	1	13	match	galoper	5	1	y	0.47806
698.4769	0.0	+	73	verb	phrase	1	14	match	galoper	5	1	y	0.47806
698.4218999999999	0.0	[response]	73	verb	phrase	1	15	match	galoper	5	1	y	0.47806
700.3427	0.0	+	74	verb	phrase	4	1	nomatch	rouler	-1	1	p	0.51863
700.8924999999999	0.2	phg	74	verb	phrase	4	2	nomatch	rouler	-1	1	p	0.51863
701.0924	0.0	+	74	verb	phrase	4	3	nomatch	rouler	-1	1	p	0.51863
701.4922	0.2	paul	74	verb	phrase	4	4	nomatch	rouler	-1	1	p	0.51863
701.6921	0.0	+	74	verb	phrase	4	5	nomatch	rouler	-1	1	p	0.51863
702.0919	0.2	va	74	verb	phrase	4	6	nomatch	rouler	-1	1	p	0.51863
702.2918999999999	0.0	+	74	verb	phrase	4	7	nomatch	rouler	-1	1	p	0.51863
702.6917	0.2	beaucoup	74	verb	phrase	4	8	nomatch	rouler	-1	1	p	0.51863
702.8915999999999	0.0	+	74	verb	phrase	4	9	nomatch	rouler	-1	1	p	0.51863
703.2914	0.2	jongler	74	verb	phrase	4	10	nomatch	rouler	-1	1	p	0.51863
703.4913	0.0	+	74	verb	phrase	4	11	nomatch	rouler	-1	1	p	0.51863
703.8910999999999	0.0	+	74	verb	phrase	4	12	nomatch	rouler	-1	1	p	0.51863
705.8903	0.0	ROULER	74	verb	phrase	4	13	nomatch	rouler	-1	1	p	0.51863
706.4733	0.0	+	74	verb	phrase	4	14	nomatch	rouler	-1	1	p	0.51863
706.4089000000001	0.0	[response]	74	verb	phrase	4	15	nomatch	rouler	-1	1	p	0.51863
716.2855999999999	0.0	+	75	noun	phrase	4	1	match	son	3	1	y	0.5118
716.8353999999999	0.2	tvxrmd	75	noun	phrase	4	2	match	son	3	1	y	0.5118
717.0353	0.0	+	75	noun	phrase	4	3	match	son	3	1	y	0.5118
717.4351	0.2	sous	75	noun	phrase	4	4	match	son	3	1	y	0.5118
717.635	0.0	+	75	noun	phrase	4	5	match	son	3	1	y	0.5118
718.0348	0.2	son	75	noun	phrase	4	6	match	son	3	1	y	0.5118
718.2348	0.0	+	75	noun	phrase	4	7	match	son	3	1	y	0.5118
718.6346	0.2	nouveau	75	noun	phrase	4	8	match	son	3	1	y	0.5118
718.8344999999999	0.0	+	75	noun	phrase	4	9	match	son	3	1	y	0.5118
719.2343	0.2	cendrier	75	noun	phrase	4	10	match	son	3	1	y	0.5118
719.4342	0.0	+	75	noun	phrase	4	11	match	son	3	1	y	0.5118
719.834	0.0	+	75	noun	phrase	4	12	match	son	3	1	y	0.5118
721.8498	0.0	SON	75	noun	phrase	4	13	match	son	3	1	y	0.5118
722.4162	0.0	+	75	noun	phrase	4	14	match	son	3	1	y	0.5118
722.3616	0.0	[response]	75	noun	phrase	4	15	match	son	3	1	y	0.5118
724.2487	0.0	+	76	verb	list	3	1	nomatch	rouler	-1	1	p	0.51579
724.7985	0.2	mkdsgv	76	verb	list	3	2	nomatch	rouler	-1	1	p	0.51579
724.9984	0.0	+	76	verb	list	3	3	nomatch	rouler	-1	1	p	0.51579
725.3982	0.2	pmch	76	verb	list	3	4	nomatch	rouler	-1	1	p	0.51579
725.5980999999999	0.0	+	76	verb	list	3	5	nomatch	rouler	-1	1	p	0.51579
725.9979	0.2	mon	76	verb	list	3	6	nomatch	rouler	-1	1	p	0.51579
726.1979	0.0	+	76	verb	list	3	7	nomatch	rouler	-1	1	p	0.51579
726.5977	0.2	plonger	76	verb	list	3	8	nomatch	rouler	-1	1	p	0.51579
726.7976	0.0	+	76	verb	list	3	9	nomatch	rouler	-1	1	p	0.51579
727.1974	0.2	vert	76	verb	list	3	10	nomatch	rouler	-1	1	p	0.51579
727.3973	0.0	+	76	verb	list	3	11	nomatch	rouler	-1	1	p	0.51579
727.7972	0.0	+	76	verb	list	3	12	nomatch	rouler	-1	1	p	0.51579
729.7963	0.0	ROULER	76	verb	list	3	13	nomatch	rouler	-1	1	p	0.51579
730.3793	0.0	+	76	verb	list	3	14	nomatch	rouler	-1	1	p	0.51579
730.312	0.0	[response]	76	verb	list	3	15	nomatch	rouler	-1	1	p	0.51579
732.1952	0.0	+	77	verb	list	1	1	nomatch	chasser	-1	1	p	0.65651
732.745	0.2	vgjz	77	verb	list	1	2	nomatch	chasser	-1	1	p	0.65651
732.9449	0.0	+	77	verb	list	1	3	nomatch	chasser	-1	1	p	0.65651
733.3447	0.2	xgjw	77	verb	list	1	4	nomatch	chasser	-1	1	p	0.65651
733.5446	0.0	+	77	verb	list	1	5	nomatch	chasser	-1	1	p	0.65651
733.9444	0.2	wgh	77	verb	list	1	6	nomatch	chasser	-1	1	p	0.65651
734.1442999999999	0.0	+	77	verb	list	1	7	nomatch	chasser	-1	1	p	0.65651
734.5441	0.2	nxbt	77	verb	list	1	8	nomatch	chasser	-1	1	p	0.65651
734.7441	0.0	+	77	verb	list	1	9	nomatch	chasser	-1	1	p	0.65651
735.1439	0.2	jongler	77	verb	list	1	10	nomatch	chasser	-1	1	p	0.65651
735.3438	0.0	+	77	verb	list	1	11	nomatch	chasser	-1	1	p	0.65651
735.7436	0.0	+	77	verb	list	1	12	nomatch	chasser	-1	1	p	0.65651
737.7427	0.0	CHASSER	77	verb	list	1	13	nomatch	chasser	-1	1	p	0.65651
738.4591	0.0	+	77	verb	list	1	14	nomatch	chasser	-1	1	p	0.65651
738.3992000000001	0.0	[response]	77	verb	list	1	15	nomatch	chasser	-1	1	p	0.65651
740.1417	0.0	+	78	verb	list	1	1	match	vieux	5	1	y	0.58108
740.6913999999999	0.2	fdzl	78	verb	list	1	2	match	vieux	5	1	y	0.58108
740.8913	0.0	+	78	verb	list	1	3	match	vieux	5	1	y	0.58108
741.2911	0.2	dglq	78	verb	list	1	4	match	vieux	5	1	y	0.58108
741.491	0.0	+	78	verb	list	1	5	match	vieux	5	1	y	0.58108
741.8909	0.2	sjkg	78	verb	list	1	6	match	vieux	5	1	y	0.58108
742.0908	0.0	+	78	verb	list	1	7	match	vieux	5	1	y	0.58108
742.4906	0.2	sgfhr	78	verb	list	1	8	match	vieux	5	1	y	0.58108
742.6904999999999	0.0	+	78	verb	list	1	9	match	vieux	5	1	y	0.58108
743.0903	0.2	vieux	78	verb	list	1	10	match	vieux	5	1	y	0.58108
743.2902	0.0	+	78	verb	list	1	11	match	vieux	5	1	y	0.58108
743.6901	0.0	+	78	verb	list	1	12	match	vieux	5	1	y	0.58108
745.6892	0.0	VIEUX	78	verb	list	1	13	match	vieux	5	1	y	0.58108
746.3222	0.0	+	78	verb	list	1	14	match	vieux	5	1	y	0.58108
746.2703	0.0	[response]	78	verb	list	1	15	match	vieux	5	1	y	0.58108
748.0880999999999	0.0	+	79	noun	list	1	1	nomatch	vert	-1	1	p	0.39154000000000005
748.6379	0.2	msgdz	79	noun	list	1	2	nomatch	vert	-1	1	p	0.39154000000000005
748.8378	0.0	+	79	noun	list	1	3	nomatch	vert	-1	1	p	0.39154000000000005
749.2375999999999	0.2	sqt	79	noun	list	1	4	nomatch	vert	-1	1	p	0.39154000000000005
749.4375	0.0	+	79	noun	list	1	5	nomatch	vert	-1	1	p	0.39154000000000005
749.8373	0.2	wtrz	79	noun	list	1	6	nomatch	vert	-1	1	p	0.39154000000000005
750.0372	0.0	+	79	noun	list	1	7	nomatch	vert	-1	1	p	0.39154000000000005
750.4371	0.2	kzglwpns	79	noun	list	1	8	nomatch	vert	-1	1	p	0.39154000000000005
750.637	0.0	+	79	noun	list	1	9	nomatch	vert	-1	1	p	0.39154000000000005
751.0368	0.2	panier	79	noun	list	1	10	nomatch	vert	-1	1	p	0.39154000000000005
751.2366999999999	0.0	+	79	noun	list	1	11	nomatch	vert	-1	1	p	0.39154000000000005
751.6365	0.0	+	79	noun	list	1	12	nomatch	vert	-1	1	p	0.39154000000000005
753.6356	0.0	VERT	79	noun	list	1	13	nomatch	vert	-1	1	p	0.39154000000000005
754.0853999999999	0.0	+	79	noun	list	1	14	nomatch	vert	-1	1	p	0.39154000000000005
754.0272	0.0	[response]	79	noun	list	1	15	nomatch	vert	-1	1	p	0.39154000000000005
756.0346	0.0	+	80	verb	list	1	1	nomatch	voyager	-1	1	p	0.56387
756.5843	0.2	gvsrf	80	verb	list	1	2	nomatch	voyager	-1	1	p	0.56387
756.7841999999999	0.0	+	80	verb	list	1	3	nomatch	voyager	-1	1	p	0.56387
757.184	0.2	hndz	80	verb	list	1	4	nomatch	voyager	-1	1	p	0.56387
757.384	0.0	+	80	verb	list	1	5	nomatch	voyager	-1	1	p	0.56387
757.7837999999999	0.2	dckl	80	verb	list	1	6	nomatch	voyager	-1	1	p	0.56387
757.9837	0.0	+	80	verb	list	1	7	nomatch	voyager	-1	1	p	0.56387
758.4001999999999	0.2	jrvwb	80	verb	list	1	8	nomatch	voyager	-1	1	p	0.56387
758.6001	0.0	+	80	verb	list	1	9	nomatch	voyager	-1	1	p	0.56387
758.9999	0.2	patiner	80	verb	list	1	10	nomatch	voyager	-1	1	p	0.56387
759.1998	0.0	+	80	verb	list	1	11	nomatch	voyager	-1	1	p	0.56387
759.5996	0.0	+	80	verb	list	1	12	nomatch	voyager	-1	1	p	0.56387
761.5987	0.0	VOYAGER	80	verb	list	1	13	nomatch	voyager	-1	1	p	0.56387
762.2151	0.0	+	80	verb	list	1	14	nomatch	voyager	-1	1	p	0.56387
763.9977	0.0	+	80	verb	list	1	15	nomatch	voyager	-1	1	p	0.56387
765.0141	0.0	+	80	verb	list	1	16	nomatch	voyager	-1	1	p	0.56387
765.1138	0.0	+	80	verb	list	1	17	nomatch	voyager	-1	1	p	0.56387
766.5132	0.0	+	80	verb	list	1	18	nomatch	voyager	-1	1	p	0.56387
766.6132	0.0	+	80	verb	list	1	19	nomatch	voyager	-1	1	p	0.56387
768.0126	0.0	+	80	verb	list	1	20	nomatch	voyager	-1	1	p	0.56387
768.1125	0.0	+	80	verb	list	1	21	nomatch	voyager	-1	1	p	0.56387
769.5119	0.0	+	80	verb	list	1	22	nomatch	voyager	-1	1	p	0.56387
769.6118	0.0	+	80	verb	list	1	23	nomatch	voyager	-1	1	p	0.56387
771.0112	0.0	+	80	verb	list	1	24	nomatch	voyager	-1	1	p	0.56387
771.1111999999999	0.0	+	80	verb	list	1	25	nomatch	voyager	-1	1	p	0.56387
772.5106	0.0	+	80	verb	list	1	26	nomatch	voyager	-1	1	p	0.56387
772.6105	0.0	+	80	verb	list	1	27	nomatch	voyager	-1	1	p	0.56387
774.0099	0.0	+	80	verb	list	1	28	nomatch	voyager	-1	1	p	0.56387
774.1098	0.0	+	80	verb	list	1	29	nomatch	voyager	-1	1	p	0.56387
775.5092	0.0	+	80	verb	list	1	30	nomatch	voyager	-1	1	p	0.56387
775.6092	0.0	+	80	verb	list	1	31	nomatch	voyager	-1	1	p	0.56387
777.0085	0.0	+	80	verb	list	1	32	nomatch	voyager	-1	1	p	0.56387
777.1084999999999	0.0	+	80	verb	list	1	33	nomatch	voyager	-1	1	p	0.56387
778.5079	0.0	+	80	verb	list	1	34	nomatch	voyager	-1	1	p	0.56387
778.6078	0.0	+	80	verb	list	1	35	nomatch	voyager	-1	1	p	0.56387
783.2891	0.0	+	80	verb	list	1	36	nomatch	voyager	-1	1	p	0.56387
762.1626	0.0	[response]	80	verb	list	1	37	nomatch	voyager	-1	1	p	0.56387
