onset	duration	stim	trial_number	trial_type	trial_structure	trial_length	sequential_position	probe_type	probe	probe_position	response_correct	response_key	response_time
0.06259999999999621	0.0	+	1	noun	list	3	1	nomatch	mon	-1	1	p	1.0799
0.5456999999999965	0.2	hcftl	1	noun	list	3	2	nomatch	mon	-1	1	p	1.0799
0.745599999999996	0.0	+	1	noun	list	3	3	nomatch	mon	-1	1	p	1.0799
1.1454000000000022	0.2	xjng	1	noun	list	3	4	nomatch	mon	-1	1	p	1.0799
1.345399999999998	0.0	+	1	noun	list	3	5	nomatch	mon	-1	1	p	1.0799
1.745199999999997	0.2	leur	1	noun	list	3	6	nomatch	mon	-1	1	p	1.0799
1.9450999999999965	0.0	+	1	noun	list	3	7	nomatch	mon	-1	1	p	1.0799
2.3448999999999955	0.2	moins	1	noun	list	3	8	nomatch	mon	-1	1	p	1.0799
2.544800000000002	0.0	+	1	noun	list	3	9	nomatch	mon	-1	1	p	1.0799
2.9446999999999974	0.2	tablier	1	noun	list	3	10	nomatch	mon	-1	1	p	1.0799
3.144599999999997	0.0	+	1	noun	list	3	11	nomatch	mon	-1	1	p	1.0799
3.544399999999996	0.0	+	1	noun	list	3	12	nomatch	mon	-1	1	p	1.0799
5.543500000000002	0.0	MON	1	noun	list	3	13	nomatch	mon	-1	1	p	1.0799
6.676300000000005	0.0	+	1	noun	list	3	14	nomatch	mon	-1	1	p	1.0799
6.623399999999997	0.0	[response]	1	noun	list	3	15	nomatch	mon	-1	1	p	1.0799
7.942399999999999	0.0	+	2	noun	phrase	1	1	match	beau	5	1	y	0.58242
8.492200000000004	0.2	lhx	2	noun	phrase	1	2	match	beau	5	1	y	0.58242
8.692100000000003	0.0	+	2	noun	phrase	1	3	match	beau	5	1	y	0.58242
9.091900000000003	0.2	pbxw	2	noun	phrase	1	4	match	beau	5	1	y	0.58242
9.291800000000002	0.0	+	2	noun	phrase	1	5	match	beau	5	1	y	0.58242
9.691600000000001	0.2	qtk	2	noun	phrase	1	6	match	beau	5	1	y	0.58242
9.891600000000004	0.0	+	2	noun	phrase	1	7	match	beau	5	1	y	0.58242
10.291400000000003	0.2	lhsdrxn	2	noun	phrase	1	8	match	beau	5	1	y	0.58242
10.491300000000003	0.0	+	2	noun	phrase	1	9	match	beau	5	1	y	0.58242
10.891100000000002	0.2	beau	2	noun	phrase	1	10	match	beau	5	1	y	0.58242
11.091000000000001	0.0	+	2	noun	phrase	1	11	match	beau	5	1	y	0.58242
11.4908	0.0	+	2	noun	phrase	1	12	match	beau	5	1	y	0.58242
13.490000000000002	0.0	BEAU	2	noun	phrase	1	13	match	beau	5	1	y	0.58242
14.139699999999998	0.0	+	2	noun	phrase	1	14	match	beau	5	1	y	0.58242
14.072399999999995	0.0	[response]	2	noun	phrase	1	15	match	beau	5	1	y	0.58242
23.885299999999994	0.0	+	3	noun	phrase	1	1	match	blanc	5	1	y	0.55132
24.4351	0.2	bprdk	3	noun	phrase	1	2	match	blanc	5	1	y	0.55132
24.634999999999998	0.0	+	3	noun	phrase	1	3	match	blanc	5	1	y	0.55132
25.034799999999997	0.2	qmjf	3	noun	phrase	1	4	match	blanc	5	1	y	0.55132
25.234699999999997	0.0	+	3	noun	phrase	1	5	match	blanc	5	1	y	0.55132
25.634499999999996	0.2	wtrz	3	noun	phrase	1	6	match	blanc	5	1	y	0.55132
25.834399999999995	0.0	+	3	noun	phrase	1	7	match	blanc	5	1	y	0.55132
26.234299999999998	0.2	jbmldz	3	noun	phrase	1	8	match	blanc	5	1	y	0.55132
26.434199999999997	0.0	+	3	noun	phrase	1	9	match	blanc	5	1	y	0.55132
26.833999999999996	0.2	blanc	3	noun	phrase	1	10	match	blanc	5	1	y	0.55132
27.033899999999996	0.0	+	3	noun	phrase	1	11	match	blanc	5	1	y	0.55132
27.433699999999995	0.0	+	3	noun	phrase	1	12	match	blanc	5	1	y	0.55132
29.449499999999993	0.0	BLANC	3	noun	phrase	1	13	match	blanc	5	1	y	0.55132
30.065899999999992	0.0	+	3	noun	phrase	1	14	match	blanc	5	1	y	0.55132
30.000800000000005	0.0	[response]	3	noun	phrase	1	15	match	blanc	5	1	y	0.55132
31.848400000000005	0.0	+	4	noun	list	1	1	match	trop	5	1	y	0.47059000000000006
32.398199999999996	0.2	gdb	4	noun	list	1	2	match	trop	5	1	y	0.47059000000000006
32.598099999999995	0.0	+	4	noun	list	1	3	match	trop	5	1	y	0.47059000000000006
32.997899999999994	0.2	sqt	4	noun	list	1	4	match	trop	5	1	y	0.47059000000000006
33.197799999999994	0.0	+	4	noun	list	1	5	match	trop	5	1	y	0.47059000000000006
33.597699999999996	0.2	wgh	4	noun	list	1	6	match	trop	5	1	y	0.47059000000000006
33.797599999999996	0.0	+	4	noun	list	1	7	match	trop	5	1	y	0.47059000000000006
34.197399999999995	0.2	bkmphj	4	noun	list	1	8	match	trop	5	1	y	0.47059000000000006
34.397299999999994	0.0	+	4	noun	list	1	9	match	trop	5	1	y	0.47059000000000006
34.79709999999999	0.2	trop	4	noun	list	1	10	match	trop	5	1	y	0.47059000000000006
34.99699999999999	0.0	+	4	noun	list	1	11	match	trop	5	1	y	0.47059000000000006
35.39679999999999	0.0	+	4	noun	list	1	12	match	trop	5	1	y	0.47059000000000006
37.395900000000005	0.0	TROP	4	noun	list	1	13	match	trop	5	1	y	0.47059000000000006
37.928999999999995	0.0	+	4	noun	list	1	14	match	trop	5	1	y	0.47059000000000006
37.866499999999995	0.0	[response]	4	noun	list	1	15	match	trop	5	1	y	0.47059000000000006
39.794900000000005	0.0	+	5	noun	list	1	1	match	casier	5	1	y	0.55612
40.34459999999999	0.2	qtzkmfc	5	noun	list	1	2	match	casier	5	1	y	0.55612
40.54449999999999	0.0	+	5	noun	list	1	3	match	casier	5	1	y	0.55612
40.944399999999995	0.2	qmjf	5	noun	list	1	4	match	casier	5	1	y	0.55612
41.144299999999994	0.0	+	5	noun	list	1	5	match	casier	5	1	y	0.55612
41.54409999999999	0.2	gh	5	noun	list	1	6	match	casier	5	1	y	0.55612
41.74399999999999	0.0	+	5	noun	list	1	7	match	casier	5	1	y	0.55612
42.143800000000006	0.2	lfhb	5	noun	list	1	8	match	casier	5	1	y	0.55612
42.343799999999995	0.0	+	5	noun	list	1	9	match	casier	5	1	y	0.55612
42.743599999999994	0.2	casier	5	noun	list	1	10	match	casier	5	1	y	0.55612
42.94349999999999	0.0	+	5	noun	list	1	11	match	casier	5	1	y	0.55612
43.34329999999999	0.0	+	5	noun	list	1	12	match	casier	5	1	y	0.55612
45.342400000000005	0.0	CASIER	5	noun	list	1	13	match	casier	5	1	y	0.55612
45.958800000000004	0.0	+	5	noun	list	1	14	match	casier	5	1	y	0.55612
45.898500000000006	0.0	[response]	5	noun	list	1	15	match	casier	5	1	y	0.55612
47.7413	0.0	+	6	noun	phrase	1	1	nomatch	rocher	-1	1	p	0.56808
48.29109999999999	0.2	hqt	6	noun	phrase	1	2	nomatch	rocher	-1	1	p	0.56808
48.49099999999999	0.0	+	6	noun	phrase	1	3	nomatch	rocher	-1	1	p	0.56808
48.890800000000006	0.2	hndz	6	noun	phrase	1	4	nomatch	rocher	-1	1	p	0.56808
49.090700000000005	0.0	+	6	noun	phrase	1	5	nomatch	rocher	-1	1	p	0.56808
49.49059999999999	0.2	qtk	6	noun	phrase	1	6	nomatch	rocher	-1	1	p	0.56808
49.69049999999999	0.0	+	6	noun	phrase	1	7	nomatch	rocher	-1	1	p	0.56808
50.09029999999999	0.2	hmfc	6	noun	phrase	1	8	nomatch	rocher	-1	1	p	0.56808
50.290200000000006	0.0	+	6	noun	phrase	1	9	nomatch	rocher	-1	1	p	0.56808
50.690000000000005	0.2	boîtier	6	noun	phrase	1	10	nomatch	rocher	-1	1	p	0.56808
50.889900000000004	0.0	+	6	noun	phrase	1	11	nomatch	rocher	-1	1	p	0.56808
51.2897	0.0	+	6	noun	phrase	1	12	nomatch	rocher	-1	1	p	0.56808
53.288900000000005	0.0	ROCHER	6	noun	phrase	1	13	nomatch	rocher	-1	1	p	0.56808
53.9219	0.0	+	6	noun	phrase	1	14	nomatch	rocher	-1	1	p	0.56808
53.8569	0.0	[response]	6	noun	phrase	1	15	nomatch	rocher	-1	1	p	0.56808
55.687999999999995	0.0	+	7	verb	phrase	2	1	nomatch	mieux	-1	1	p	0.58599
56.23759999999999	0.2	hgnwxl	7	verb	phrase	2	2	nomatch	mieux	-1	1	p	0.58599
56.43749999999999	0.0	+	7	verb	phrase	2	3	nomatch	mieux	-1	1	p	0.58599
56.83729999999999	0.2	zhgv	7	verb	phrase	2	4	nomatch	mieux	-1	1	p	0.58599
57.037200000000006	0.0	+	7	verb	phrase	2	5	nomatch	mieux	-1	1	p	0.58599
57.437000000000005	0.2	gh	7	verb	phrase	2	6	nomatch	mieux	-1	1	p	0.58599
57.636900000000004	0.0	+	7	verb	phrase	2	7	nomatch	mieux	-1	1	p	0.58599
58.03679999999999	0.2	beaucoup	7	verb	phrase	2	8	nomatch	mieux	-1	1	p	0.58599
58.23669999999999	0.0	+	7	verb	phrase	2	9	nomatch	mieux	-1	1	p	0.58599
58.636500000000005	0.2	patiner	7	verb	phrase	2	10	nomatch	mieux	-1	1	p	0.58599
58.836400000000005	0.0	+	7	verb	phrase	2	11	nomatch	mieux	-1	1	p	0.58599
59.236200000000004	0.0	+	7	verb	phrase	2	12	nomatch	mieux	-1	1	p	0.58599
61.2353	0.0	MIEUX	7	verb	phrase	2	13	nomatch	mieux	-1	1	p	0.58599
61.885	0.0	+	7	verb	phrase	2	14	nomatch	mieux	-1	1	p	0.58599
61.821300000000015	0.0	[response]	7	verb	phrase	2	15	nomatch	mieux	-1	1	p	0.58599
63.6342	0.0	+	8	noun	list	3	1	match	tôt	5	1	y	0.71918
64.184	0.2	dxbqjcl	8	noun	list	3	2	match	tôt	5	1	y	0.71918
64.38390000000001	0.0	+	8	noun	list	3	3	match	tôt	5	1	y	0.71918
64.78370000000001	0.2	pbxw	8	noun	list	3	4	match	tôt	5	1	y	0.71918
64.9837	0.0	+	8	noun	list	3	5	match	tôt	5	1	y	0.71918
65.40010000000001	0.2	peut	8	noun	list	3	6	match	tôt	5	1	y	0.71918
65.6	0.0	+	8	noun	list	3	7	match	tôt	5	1	y	0.71918
65.9999	0.2	cendrier	8	noun	list	3	8	match	tôt	5	1	y	0.71918
66.19980000000001	0.0	+	8	noun	list	3	9	match	tôt	5	1	y	0.71918
66.59960000000001	0.2	tôt	8	noun	list	3	10	match	tôt	5	1	y	0.71918
66.7995	0.0	+	8	noun	list	3	11	match	tôt	5	1	y	0.71918
67.1993	0.0	+	8	noun	list	3	12	match	tôt	5	1	y	0.71918
69.1985	0.0	TÔT	8	noun	list	3	13	match	tôt	5	1	y	0.71918
69.98140000000001	0.0	+	8	noun	list	3	14	match	tôt	5	1	y	0.71918
69.9176	0.0	[response]	8	noun	list	3	15	match	tôt	5	1	y	0.71918
71.5974	0.0	+	9	verb	phrase	4	1	match	tard	5	1	y	0.7166
72.1471	0.2	cmk	9	verb	phrase	4	2	match	tard	5	1	y	0.7166
72.34700000000001	0.0	+	9	verb	phrase	4	3	match	tard	5	1	y	0.7166
72.74690000000001	0.2	paul	9	verb	phrase	4	4	match	tard	5	1	y	0.7166
72.9468	0.0	+	9	verb	phrase	4	5	match	tard	5	1	y	0.7166
73.3466	0.2	va	9	verb	phrase	4	6	match	tard	5	1	y	0.7166
73.54650000000001	0.0	+	9	verb	phrase	4	7	match	tard	5	1	y	0.7166
73.94630000000001	0.2	plonger	9	verb	phrase	4	8	match	tard	5	1	y	0.7166
74.1462	0.0	+	9	verb	phrase	4	9	match	tard	5	1	y	0.7166
74.54599999999999	0.2	tard	9	verb	phrase	4	10	match	tard	5	1	y	0.7166
74.74600000000001	0.0	+	9	verb	phrase	4	11	match	tard	5	1	y	0.7166
75.14580000000001	0.0	+	9	verb	phrase	4	12	match	tard	5	1	y	0.7166
77.1449	0.0	TARD	9	verb	phrase	4	13	match	tard	5	1	y	0.7166
77.9279	0.0	+	9	verb	phrase	4	14	match	tard	5	1	y	0.7166
77.8615	0.0	[response]	9	verb	phrase	4	15	match	tard	5	1	y	0.7166
87.5403	0.0	+	10	noun	list	2	1	nomatch	son	-1	1	p	0.50891
88.09	0.2	gsn	10	noun	list	2	2	nomatch	son	-1	1	p	0.50891
88.28990000000002	0.0	+	10	noun	list	2	3	nomatch	son	-1	1	p	0.50891
88.68970000000002	0.2	xslt	10	noun	list	2	4	nomatch	son	-1	1	p	0.50891
88.8897	0.0	+	10	noun	list	2	5	nomatch	son	-1	1	p	0.50891
89.2895	0.2	qtk	10	noun	list	2	6	nomatch	son	-1	1	p	0.50891
89.48940000000002	0.0	+	10	noun	list	2	7	nomatch	son	-1	1	p	0.50891
89.88920000000002	0.2	plus	10	noun	list	2	8	nomatch	son	-1	1	p	0.50891
90.0891	0.0	+	10	noun	list	2	9	nomatch	son	-1	1	p	0.50891
90.4889	0.2	sablier	10	noun	list	2	10	nomatch	son	-1	1	p	0.50891
90.6891	0.0	+	10	noun	list	2	11	nomatch	son	-1	1	p	0.50891
91.08870000000002	0.0	+	10	noun	list	2	12	nomatch	son	-1	1	p	0.50891
93.08780000000002	0.0	SON	10	noun	list	2	13	nomatch	son	-1	1	p	0.50891
93.6542	0.0	+	10	noun	list	2	14	nomatch	son	-1	1	p	0.50891
93.5967	0.0	[response]	10	noun	list	2	15	nomatch	son	-1	1	p	0.50891
95.48670000000001	0.0	+	11	noun	phrase	1	1	match	cendrier	5	1	y	0.47206000000000004
96.03650000000002	0.2	mvgsjp	11	noun	phrase	1	2	match	cendrier	5	1	y	0.47206000000000004
96.2364	0.0	+	11	noun	phrase	1	3	match	cendrier	5	1	y	0.47206000000000004
96.6362	0.2	mwgt	11	noun	phrase	1	4	match	cendrier	5	1	y	0.47206000000000004
96.83610000000002	0.0	+	11	noun	phrase	1	5	match	cendrier	5	1	y	0.47206000000000004
97.23590000000002	0.2	wgh	11	noun	phrase	1	6	match	cendrier	5	1	y	0.47206000000000004
97.4358	0.0	+	11	noun	phrase	1	7	match	cendrier	5	1	y	0.47206000000000004
97.8357	0.2	qvwgclr	11	noun	phrase	1	8	match	cendrier	5	1	y	0.47206000000000004
98.03560000000002	0.0	+	11	noun	phrase	1	9	match	cendrier	5	1	y	0.47206000000000004
98.43540000000002	0.2	cendrier	11	noun	phrase	1	10	match	cendrier	5	1	y	0.47206000000000004
98.6353	0.0	+	11	noun	phrase	1	11	match	cendrier	5	1	y	0.47206000000000004
99.0351	0.0	+	11	noun	phrase	1	12	match	cendrier	5	1	y	0.47206000000000004
101.0342	0.0	CENDRIER	11	noun	phrase	1	13	match	cendrier	5	1	y	0.47206000000000004
101.56730000000002	0.0	+	11	noun	phrase	1	14	match	cendrier	5	1	y	0.47206000000000004
101.50630000000001	0.0	[response]	11	noun	phrase	1	15	match	cendrier	5	1	y	0.47206000000000004
103.44980000000001	0.0	+	12	noun	phrase	2	1	match	rocher	5	1	y	0.4607
103.99960000000002	0.2	cblsgkp	12	noun	phrase	2	2	match	rocher	5	1	y	0.4607
104.1995	0.0	+	12	noun	phrase	2	3	match	rocher	5	1	y	0.4607
104.5993	0.2	kdx	12	noun	phrase	2	4	match	rocher	5	1	y	0.4607
104.79920000000001	0.0	+	12	noun	phrase	2	5	match	rocher	5	1	y	0.4607
105.19910000000002	0.2	wtrz	12	noun	phrase	2	6	match	rocher	5	1	y	0.4607
105.399	0.0	+	12	noun	phrase	2	7	match	rocher	5	1	y	0.4607
105.7988	0.2	vieux	12	noun	phrase	2	8	match	rocher	5	1	y	0.4607
105.99870000000001	0.0	+	12	noun	phrase	2	9	match	rocher	5	1	y	0.4607
106.39850000000001	0.2	rocher	12	noun	phrase	2	10	match	rocher	5	1	y	0.4607
106.5984	0.0	+	12	noun	phrase	2	11	match	rocher	5	1	y	0.4607
106.9982	0.0	+	12	noun	phrase	2	12	match	rocher	5	1	y	0.4607
108.9974	0.0	ROCHER	12	noun	phrase	2	13	match	rocher	5	1	y	0.4607
109.5138	0.0	+	12	noun	phrase	2	14	match	rocher	5	1	y	0.4607
109.45800000000003	0.0	[response]	12	noun	phrase	2	15	match	rocher	5	1	y	0.4607
119.39270000000002	0.0	+	13	verb	phrase	1	1	match	chasser	5	1	y	0.48548
119.9425	0.2	psrgqc	13	verb	phrase	1	2	match	chasser	5	1	y	0.48548
120.14240000000001	0.0	+	13	verb	phrase	1	3	match	chasser	5	1	y	0.48548
120.54220000000001	0.2	kcbt	13	verb	phrase	1	4	match	chasser	5	1	y	0.48548
120.7421	0.0	+	13	verb	phrase	1	5	match	chasser	5	1	y	0.48548
121.14189999999999	0.2	gh	13	verb	phrase	1	6	match	chasser	5	1	y	0.48548
121.3418	0.0	+	13	verb	phrase	1	7	match	chasser	5	1	y	0.48548
121.74170000000001	0.2	hwsx	13	verb	phrase	1	8	match	chasser	5	1	y	0.48548
121.9416	0.0	+	13	verb	phrase	1	9	match	chasser	5	1	y	0.48548
122.3414	0.2	chasser	13	verb	phrase	1	10	match	chasser	5	1	y	0.48548
122.5413	0.0	+	13	verb	phrase	1	11	match	chasser	5	1	y	0.48548
122.9411	0.0	+	13	verb	phrase	1	12	match	chasser	5	1	y	0.48548
124.94030000000001	0.0	CHASSER	13	verb	phrase	1	13	match	chasser	5	1	y	0.48548
125.49000000000001	0.0	+	13	verb	phrase	1	14	match	chasser	5	1	y	0.48548
125.4257	0.0	[response]	13	verb	phrase	1	15	match	chasser	5	1	y	0.48548
127.3392	0.0	+	14	noun	phrase	1	1	nomatch	rouge	-1	1	p	0.43449000000000004
127.8889	0.2	lwz	14	noun	phrase	1	2	nomatch	rouge	-1	1	p	0.43449000000000004
128.0888	0.0	+	14	noun	phrase	1	3	nomatch	rouge	-1	1	p	0.43449000000000004
128.4887	0.2	hndz	14	noun	phrase	1	4	nomatch	rouge	-1	1	p	0.43449000000000004
128.6886	0.0	+	14	noun	phrase	1	5	nomatch	rouge	-1	1	p	0.43449000000000004
129.0884	0.2	wgh	14	noun	phrase	1	6	nomatch	rouge	-1	1	p	0.43449000000000004
129.2883	0.0	+	14	noun	phrase	1	7	nomatch	rouge	-1	1	p	0.43449000000000004
129.68810000000002	0.2	dbtgrkh	14	noun	phrase	1	8	nomatch	rouge	-1	1	p	0.43449000000000004
129.888	0.0	+	14	noun	phrase	1	9	nomatch	rouge	-1	1	p	0.43449000000000004
130.2879	0.2	vert	14	noun	phrase	1	10	nomatch	rouge	-1	1	p	0.43449000000000004
130.4878	0.0	+	14	noun	phrase	1	11	nomatch	rouge	-1	1	p	0.43449000000000004
130.8876	0.0	+	14	noun	phrase	1	12	nomatch	rouge	-1	1	p	0.43449000000000004
132.88670000000002	0.0	ROUGE	14	noun	phrase	1	13	nomatch	rouge	-1	1	p	0.43449000000000004
133.3865	0.0	+	14	noun	phrase	1	14	nomatch	rouge	-1	1	p	0.43449000000000004
133.3212	0.0	[response]	14	noun	phrase	1	15	nomatch	rouge	-1	1	p	0.43449000000000004
135.28560000000002	0.0	+	15	noun	list	3	1	match	va	3	1	y	0.671
135.8354	0.2	zvgpljb	15	noun	list	3	2	match	va	3	1	y	0.671
136.0353	0.0	+	15	noun	list	3	3	match	va	3	1	y	0.671
136.4351	0.2	kdx	15	noun	list	3	4	match	va	3	1	y	0.671
136.6351	0.0	+	15	noun	list	3	5	match	va	3	1	y	0.671
137.0349	0.2	va	15	noun	list	3	6	match	va	3	1	y	0.671
137.2348	0.0	+	15	noun	list	3	7	match	va	3	1	y	0.671
137.6346	0.2	boîtier	15	noun	list	3	8	match	va	3	1	y	0.671
137.83450000000002	0.0	+	15	noun	list	3	9	match	va	3	1	y	0.671
138.23430000000002	0.2	ainsi	15	noun	list	3	10	match	va	3	1	y	0.671
138.4342	0.0	+	15	noun	list	3	11	match	va	3	1	y	0.671
138.8341	0.0	+	15	noun	list	3	12	match	va	3	1	y	0.671
140.84980000000002	0.0	VA	15	noun	list	3	13	match	va	3	1	y	0.671
141.58280000000002	0.0	+	15	noun	list	3	14	match	va	3	1	y	0.671
141.5208	0.0	[response]	15	noun	list	3	15	match	va	3	1	y	0.671
143.2487	0.0	+	16	verb	list	4	1	nomatch	vite	-1	1	p	0.5864300000000001
143.79850000000002	0.2	hwcmxr	16	verb	list	4	2	nomatch	vite	-1	1	p	0.5864300000000001
143.9984	0.0	+	16	verb	list	4	3	nomatch	vite	-1	1	p	0.5864300000000001
144.3982	0.2	paul	16	verb	list	4	4	nomatch	vite	-1	1	p	0.5864300000000001
144.59810000000002	0.0	+	16	verb	list	4	5	nomatch	vite	-1	1	p	0.5864300000000001
144.99800000000002	0.2	son	16	verb	list	4	6	nomatch	vite	-1	1	p	0.5864300000000001
145.1979	0.0	+	16	verb	list	4	7	nomatch	vite	-1	1	p	0.5864300000000001
145.5977	0.2	galoper	16	verb	list	4	8	nomatch	vite	-1	1	p	0.5864300000000001
145.79760000000002	0.0	+	16	verb	list	4	9	nomatch	vite	-1	1	p	0.5864300000000001
146.19740000000002	0.2	blanc	16	verb	list	4	10	nomatch	vite	-1	1	p	0.5864300000000001
146.3973	0.0	+	16	verb	list	4	11	nomatch	vite	-1	1	p	0.5864300000000001
146.7972	0.0	+	16	verb	list	4	12	nomatch	vite	-1	1	p	0.5864300000000001
148.7963	0.0	VITE	16	verb	list	4	13	nomatch	vite	-1	1	p	0.5864300000000001
149.446	0.0	+	16	verb	list	4	14	nomatch	vite	-1	1	p	0.5864300000000001
149.3827	0.0	[response]	16	verb	list	4	15	nomatch	vite	-1	1	p	0.5864300000000001
151.1952	0.0	+	17	noun	list	1	1	nomatch	rocher	-1	1	p	0.52171
151.745	0.2	srwd	17	noun	list	1	2	nomatch	rocher	-1	1	p	0.52171
151.94490000000002	0.0	+	17	noun	list	1	3	nomatch	rocher	-1	1	p	0.52171
152.34470000000002	0.2	pbxw	17	noun	list	1	4	nomatch	rocher	-1	1	p	0.52171
152.5446	0.0	+	17	noun	list	1	5	nomatch	rocher	-1	1	p	0.52171
152.9444	0.2	gh	17	noun	list	1	6	nomatch	rocher	-1	1	p	0.52171
153.14430000000002	0.0	+	17	noun	list	1	7	nomatch	rocher	-1	1	p	0.52171
153.54420000000002	0.2	lfhb	17	noun	list	1	8	nomatch	rocher	-1	1	p	0.52171
153.7441	0.0	+	17	noun	list	1	9	nomatch	rocher	-1	1	p	0.52171
154.1439	0.2	boîtier	17	noun	list	1	10	nomatch	rocher	-1	1	p	0.52171
154.34380000000002	0.0	+	17	noun	list	1	11	nomatch	rocher	-1	1	p	0.52171
154.74360000000001	0.0	+	17	noun	list	1	12	nomatch	rocher	-1	1	p	0.52171
156.7427	0.0	ROCHER	17	noun	list	1	13	nomatch	rocher	-1	1	p	0.52171
157.32580000000002	0.0	+	17	noun	list	1	14	nomatch	rocher	-1	1	p	0.52171
157.26440000000002	0.0	[response]	17	noun	list	1	15	nomatch	rocher	-1	1	p	0.52171
159.14170000000001	0.0	+	18	noun	list	4	1	nomatch	patiner	-1	1	p	0.68829
159.69140000000002	0.2	fjbzt	18	noun	list	4	2	nomatch	patiner	-1	1	p	0.68829
159.8913	0.0	+	18	noun	list	4	3	nomatch	patiner	-1	1	p	0.68829
160.2911	0.2	dans	18	noun	list	4	4	nomatch	patiner	-1	1	p	0.68829
160.49110000000002	0.0	+	18	noun	list	4	5	nomatch	patiner	-1	1	p	0.68829
160.89090000000002	0.2	peut	18	noun	list	4	6	nomatch	patiner	-1	1	p	0.68829
161.0908	0.0	+	18	noun	list	4	7	nomatch	patiner	-1	1	p	0.68829
161.4906	0.2	cendrier	18	noun	list	4	8	nomatch	patiner	-1	1	p	0.68829
161.69050000000001	0.0	+	18	noun	list	4	9	nomatch	patiner	-1	1	p	0.68829
162.09040000000002	0.2	loin	18	noun	list	4	10	nomatch	patiner	-1	1	p	0.68829
162.2903	0.0	+	18	noun	list	4	11	nomatch	patiner	-1	1	p	0.68829
162.6901	0.0	+	18	noun	list	4	12	nomatch	patiner	-1	1	p	0.68829
164.6892	0.0	PATINER	18	noun	list	4	13	nomatch	patiner	-1	1	p	0.68829
165.43880000000001	0.0	+	18	noun	list	4	14	nomatch	patiner	-1	1	p	0.68829
165.37750000000003	0.0	[response]	18	noun	list	4	15	nomatch	patiner	-1	1	p	0.68829
167.0881	0.0	+	19	verb	list	1	1	nomatch	marc	-1	1	p	0.48542
167.6379	0.2	grh	19	verb	list	1	2	nomatch	marc	-1	1	p	0.48542
167.83780000000002	0.0	+	19	verb	list	1	3	nomatch	marc	-1	1	p	0.48542
168.23760000000001	0.2	kdx	19	verb	list	1	4	nomatch	marc	-1	1	p	0.48542
168.4375	0.0	+	19	verb	list	1	5	nomatch	marc	-1	1	p	0.48542
168.8373	0.2	dckl	19	verb	list	1	6	nomatch	marc	-1	1	p	0.48542
169.0372	0.0	+	19	verb	list	1	7	nomatch	marc	-1	1	p	0.48542
169.43710000000002	0.2	hcjsp	19	verb	list	1	8	nomatch	marc	-1	1	p	0.48542
169.637	0.0	+	19	verb	list	1	9	nomatch	marc	-1	1	p	0.48542
170.0368	0.2	jongler	19	verb	list	1	10	nomatch	marc	-1	1	p	0.48542
170.2367	0.0	+	19	verb	list	1	11	nomatch	marc	-1	1	p	0.48542
170.6365	0.0	+	19	verb	list	1	12	nomatch	marc	-1	1	p	0.48542
172.6356	0.0	MARC	19	verb	list	1	13	nomatch	marc	-1	1	p	0.48542
173.18540000000002	0.0	+	19	verb	list	1	14	nomatch	marc	-1	1	p	0.48542
173.1211	0.0	[response]	19	verb	list	1	15	nomatch	marc	-1	1	p	0.48542
175.0346	0.0	+	20	noun	phrase	2	1	nomatch	beau	-1	1	p	0.50441
175.5843	0.2	gclq	20	noun	phrase	2	2	nomatch	beau	-1	1	p	0.50441
175.7842	0.0	+	20	noun	phrase	2	3	nomatch	beau	-1	1	p	0.50441
176.1841	0.2	pbxw	20	noun	phrase	2	4	nomatch	beau	-1	1	p	0.50441
176.38400000000001	0.0	+	20	noun	phrase	2	5	nomatch	beau	-1	1	p	0.50441
176.7838	0.2	wgh	20	noun	phrase	2	6	nomatch	beau	-1	1	p	0.50441
176.9837	0.0	+	20	noun	phrase	2	7	nomatch	beau	-1	1	p	0.50441
177.3843	0.2	vieux	20	noun	phrase	2	8	nomatch	beau	-1	1	p	0.50441
177.6001	0.0	+	20	noun	phrase	2	9	nomatch	beau	-1	1	p	0.50441
177.9999	0.2	sablier	20	noun	phrase	2	10	nomatch	beau	-1	1	p	0.50441
178.1998	0.0	+	20	noun	phrase	2	11	nomatch	beau	-1	1	p	0.50441
178.5996	0.0	+	20	noun	phrase	2	12	nomatch	beau	-1	1	p	0.50441
180.5987	0.0	BEAU	20	noun	phrase	2	13	nomatch	beau	-1	1	p	0.50441
181.1652	0.0	+	20	noun	phrase	2	14	nomatch	beau	-1	1	p	0.50441
181.10320000000002	0.0	[response]	20	noun	phrase	2	15	nomatch	beau	-1	1	p	0.50441
182.9977	0.0	+	21	noun	phrase	4	1	nomatch	pour	-1	1	p	0.61171
183.5475	0.2	ctjr	21	noun	phrase	4	2	nomatch	pour	-1	1	p	0.61171
183.7474	0.0	+	21	noun	phrase	4	3	nomatch	pour	-1	1	p	0.61171
184.1472	0.2	sans	21	noun	phrase	4	4	nomatch	pour	-1	1	p	0.61171
184.3471	0.0	+	21	noun	phrase	4	5	nomatch	pour	-1	1	p	0.61171
184.7469	0.2	son	21	noun	phrase	4	6	nomatch	pour	-1	1	p	0.61171
184.9468	0.0	+	21	noun	phrase	4	7	nomatch	pour	-1	1	p	0.61171
185.3466	0.2	rocher	21	noun	phrase	4	8	nomatch	pour	-1	1	p	0.61171
185.5466	0.0	+	21	noun	phrase	4	9	nomatch	pour	-1	1	p	0.61171
185.9464	0.2	bleu	21	noun	phrase	4	10	nomatch	pour	-1	1	p	0.61171
186.1463	0.0	+	21	noun	phrase	4	11	nomatch	pour	-1	1	p	0.61171
186.5461	0.0	+	21	noun	phrase	4	12	nomatch	pour	-1	1	p	0.61171
188.5452	0.0	POUR	21	noun	phrase	4	13	nomatch	pour	-1	1	p	0.61171
189.2116	0.0	+	21	noun	phrase	4	14	nomatch	pour	-1	1	p	0.61171
189.1569	0.0	[response]	21	noun	phrase	4	15	nomatch	pour	-1	1	p	0.61171
190.94410000000002	0.0	+	22	noun	list	3	1	match	vite	5	1	y	0.59368
191.4939	0.2	rkc	22	noun	list	3	2	match	vite	5	1	y	0.59368
191.6938	0.0	+	22	noun	list	3	3	match	vite	5	1	y	0.59368
192.0936	0.2	qmjf	22	noun	list	3	4	match	vite	5	1	y	0.59368
192.2935	0.0	+	22	noun	list	3	5	match	vite	5	1	y	0.59368
192.6934	0.2	va	22	noun	list	3	6	match	vite	5	1	y	0.59368
192.8933	0.0	+	22	noun	list	3	7	match	vite	5	1	y	0.59368
193.2931	0.2	tablier	22	noun	list	3	8	match	vite	5	1	y	0.59368
193.493	0.0	+	22	noun	list	3	9	match	vite	5	1	y	0.59368
193.8928	0.2	vite	22	noun	list	3	10	match	vite	5	1	y	0.59368
194.0927	0.0	+	22	noun	list	3	11	match	vite	5	1	y	0.59368
194.4926	0.0	+	22	noun	list	3	12	match	vite	5	1	y	0.59368
196.49169999999998	0.0	VITE	22	noun	list	3	13	match	vite	5	1	y	0.59368
197.14140000000003	0.0	+	22	noun	list	3	14	match	vite	5	1	y	0.59368
197.08530000000002	0.0	[response]	22	noun	list	3	15	match	vite	5	1	y	0.59368
198.8906	0.0	+	23	noun	list	1	1	match	loin	5	1	y	0.48531
199.4404	0.2	dbxrtm	23	noun	list	1	2	match	loin	5	1	y	0.48531
199.64030000000002	0.0	+	23	noun	list	1	3	match	loin	5	1	y	0.48531
200.0401	0.2	pbxw	23	noun	list	1	4	match	loin	5	1	y	0.48531
200.24	0.0	+	23	noun	list	1	5	match	loin	5	1	y	0.48531
200.63979999999998	0.2	gh	23	noun	list	1	6	match	loin	5	1	y	0.48531
200.8397	0.0	+	23	noun	list	1	7	match	loin	5	1	y	0.48531
201.2396	0.2	kbqhrxgp	23	noun	list	1	8	match	loin	5	1	y	0.48531
201.4395	0.0	+	23	noun	list	1	9	match	loin	5	1	y	0.48531
201.83929999999998	0.2	loin	23	noun	list	1	10	match	loin	5	1	y	0.48531
202.0392	0.0	+	23	noun	list	1	11	match	loin	5	1	y	0.48531
202.43900000000002	0.0	+	23	noun	list	1	12	match	loin	5	1	y	0.48531
204.43810000000002	0.0	LOIN	23	noun	list	1	13	match	loin	5	1	y	0.48531
204.98790000000002	0.0	+	23	noun	list	1	14	match	loin	5	1	y	0.48531
204.92340000000002	0.0	[response]	23	noun	list	1	15	match	loin	5	1	y	0.48531
206.83710000000002	0.0	+	24	noun	list	1	1	match	rocher	5	1	y	0.4305800000000001
207.3868	0.2	jfqlz	24	noun	list	1	2	match	rocher	5	1	y	0.4305800000000001
207.5867	0.0	+	24	noun	list	1	3	match	rocher	5	1	y	0.4305800000000001
207.98649999999998	0.2	kcbt	24	noun	list	1	4	match	rocher	5	1	y	0.4305800000000001
208.1864	0.0	+	24	noun	list	1	5	match	rocher	5	1	y	0.4305800000000001
208.5863	0.2	qtk	24	noun	list	1	6	match	rocher	5	1	y	0.4305800000000001
208.7862	0.0	+	24	noun	list	1	7	match	rocher	5	1	y	0.4305800000000001
209.18599999999998	0.2	szvn	24	noun	list	1	8	match	rocher	5	1	y	0.4305800000000001
209.3859	0.0	+	24	noun	list	1	9	match	rocher	5	1	y	0.4305800000000001
209.78570000000002	0.2	rocher	24	noun	list	1	10	match	rocher	5	1	y	0.4305800000000001
209.9857	0.0	+	24	noun	list	1	11	match	rocher	5	1	y	0.4305800000000001
210.38549999999998	0.0	+	24	noun	list	1	12	match	rocher	5	1	y	0.4305800000000001
212.38459999999998	0.0	ROCHER	24	noun	list	1	13	match	rocher	5	1	y	0.4305800000000001
212.8677	0.0	+	24	noun	list	1	14	match	rocher	5	1	y	0.4305800000000001
212.8152	0.0	[response]	24	noun	list	1	15	match	rocher	5	1	y	0.4305800000000001
214.7835	0.0	+	25	noun	list	4	1	match	peut	3	1	y	0.5207
215.3499	0.2	twjcvh	25	noun	list	4	2	match	peut	3	1	y	0.5207
215.5498	0.0	+	25	noun	list	4	3	match	peut	3	1	y	0.5207
215.9497	0.2	dans	25	noun	list	4	4	match	peut	3	1	y	0.5207
216.14960000000002	0.0	+	25	noun	list	4	5	match	peut	3	1	y	0.5207
216.5494	0.2	peut	25	noun	list	4	6	match	peut	3	1	y	0.5207
216.7493	0.0	+	25	noun	list	4	7	match	peut	3	1	y	0.5207
217.14910000000003	0.2	sablier	25	noun	list	4	8	match	peut	3	1	y	0.5207
217.349	0.0	+	25	noun	list	4	9	match	peut	3	1	y	0.5207
217.7489	0.2	tard	25	noun	list	4	10	match	peut	3	1	y	0.5207
217.9488	0.0	+	25	noun	list	4	11	match	peut	3	1	y	0.5207
218.34860000000003	0.0	+	25	noun	list	4	12	match	peut	3	1	y	0.5207
220.34770000000003	0.0	PEUT	25	noun	list	4	13	match	peut	3	1	y	0.5207
220.93080000000003	0.0	+	25	noun	list	4	14	match	peut	3	1	y	0.5207
220.8684	0.0	[response]	25	noun	list	4	15	match	peut	3	1	y	0.5207
222.7466	0.0	+	26	noun	phrase	2	1	match	nouveau	4	1	y	0.6389
223.2964	0.2	gfnpq	26	noun	phrase	2	2	match	nouveau	4	1	y	0.6389
223.49630000000002	0.0	+	26	noun	phrase	2	3	match	nouveau	4	1	y	0.6389
223.8961	0.2	dglq	26	noun	phrase	2	4	match	nouveau	4	1	y	0.6389
224.096	0.0	+	26	noun	phrase	2	5	match	nouveau	4	1	y	0.6389
224.4959	0.2	wtrz	26	noun	phrase	2	6	match	nouveau	4	1	y	0.6389
224.69580000000002	0.0	+	26	noun	phrase	2	7	match	nouveau	4	1	y	0.6389
225.0956	0.2	nouveau	26	noun	phrase	2	8	match	nouveau	4	1	y	0.6389
225.2955	0.0	+	26	noun	phrase	2	9	match	nouveau	4	1	y	0.6389
225.69530000000003	0.2	boîtier	26	noun	phrase	2	10	match	nouveau	4	1	y	0.6389
225.8952	0.0	+	26	noun	phrase	2	11	match	nouveau	4	1	y	0.6389
226.29500000000002	0.0	+	26	noun	phrase	2	12	match	nouveau	4	1	y	0.6389
228.2942	0.0	NOUVEAU	26	noun	phrase	2	13	match	nouveau	4	1	y	0.6389
228.9939	0.0	+	26	noun	phrase	2	14	match	nouveau	4	1	y	0.6389
228.93310000000002	0.0	[response]	26	noun	phrase	2	15	match	nouveau	4	1	y	0.6389
230.69330000000002	0.0	+	27	noun	phrase	1	1	match	casier	5	1	y	0.42632
231.2428	0.2	spdwhzx	27	noun	phrase	1	2	match	casier	5	1	y	0.42632
231.4427	0.0	+	27	noun	phrase	1	3	match	casier	5	1	y	0.42632
231.8426	0.2	jxrw	27	noun	phrase	1	4	match	casier	5	1	y	0.42632
232.04250000000002	0.0	+	27	noun	phrase	1	5	match	casier	5	1	y	0.42632
232.4423	0.2	wgh	27	noun	phrase	1	6	match	casier	5	1	y	0.42632
232.6422	0.0	+	27	noun	phrase	1	7	match	casier	5	1	y	0.42632
233.04200000000003	0.2	gstx	27	noun	phrase	1	8	match	casier	5	1	y	0.42632
233.24200000000002	0.0	+	27	noun	phrase	1	9	match	casier	5	1	y	0.42632
233.6418	0.2	casier	27	noun	phrase	1	10	match	casier	5	1	y	0.42632
233.8417	0.0	+	27	noun	phrase	1	11	match	casier	5	1	y	0.42632
234.24150000000003	0.0	+	27	noun	phrase	1	12	match	casier	5	1	y	0.42632
236.24060000000003	0.0	CASIER	27	noun	phrase	1	13	match	casier	5	1	y	0.42632
236.7237	0.0	+	27	noun	phrase	1	14	match	casier	5	1	y	0.42632
236.6669	0.0	[response]	27	noun	phrase	1	15	match	casier	5	1	y	0.42632
238.6395	0.0	+	28	verb	phrase	1	1	match	plus	5	1	y	0.4803200000000001
239.1893	0.2	hxtbwfv	28	verb	phrase	1	2	match	plus	5	1	y	0.4803200000000001
239.38920000000002	0.0	+	28	verb	phrase	1	3	match	plus	5	1	y	0.4803200000000001
239.789	0.2	pmch	28	verb	phrase	1	4	match	plus	5	1	y	0.4803200000000001
239.9889	0.0	+	28	verb	phrase	1	5	match	plus	5	1	y	0.4803200000000001
240.3888	0.2	dckl	28	verb	phrase	1	6	match	plus	5	1	y	0.4803200000000001
240.58870000000002	0.0	+	28	verb	phrase	1	7	match	plus	5	1	y	0.4803200000000001
240.9885	0.2	szhnxjw	28	verb	phrase	1	8	match	plus	5	1	y	0.4803200000000001
241.1884	0.0	+	28	verb	phrase	1	9	match	plus	5	1	y	0.4803200000000001
241.58820000000003	0.2	plus	28	verb	phrase	1	10	match	plus	5	1	y	0.4803200000000001
241.7881	0.0	+	28	verb	phrase	1	11	match	plus	5	1	y	0.4803200000000001
242.188	0.0	+	28	verb	phrase	1	12	match	plus	5	1	y	0.4803200000000001
244.1871	0.0	PLUS	28	verb	phrase	1	13	match	plus	5	1	y	0.4803200000000001
244.72020000000003	0.0	+	28	verb	phrase	1	14	match	plus	5	1	y	0.4803200000000001
244.6674	0.0	[response]	28	verb	phrase	1	15	match	plus	5	1	y	0.4803200000000001
246.586	0.0	+	29	verb	phrase	3	1	nomatch	marc	-1	1	p	0.53179
247.13580000000002	0.2	gpslnv	29	verb	phrase	3	2	nomatch	marc	-1	1	p	0.53179
247.33570000000003	0.0	+	29	verb	phrase	3	3	nomatch	marc	-1	1	p	0.53179
247.7355	0.2	xjng	29	verb	phrase	3	4	nomatch	marc	-1	1	p	0.53179
247.93540000000002	0.0	+	29	verb	phrase	3	5	nomatch	marc	-1	1	p	0.53179
248.3352	0.2	doit	29	verb	phrase	3	6	nomatch	marc	-1	1	p	0.53179
248.5351	0.0	+	29	verb	phrase	3	7	nomatch	marc	-1	1	p	0.53179
248.93490000000003	0.2	jongler	29	verb	phrase	3	8	nomatch	marc	-1	1	p	0.53179
249.13490000000002	0.0	+	29	verb	phrase	3	9	nomatch	marc	-1	1	p	0.53179
249.5347	0.2	vite	29	verb	phrase	3	10	nomatch	marc	-1	1	p	0.53179
249.7346	0.0	+	29	verb	phrase	3	11	nomatch	marc	-1	1	p	0.53179
250.13440000000003	0.0	+	29	verb	phrase	3	12	nomatch	marc	-1	1	p	0.53179
252.15019999999998	0.0	MARC	29	verb	phrase	3	13	nomatch	marc	-1	1	p	0.53179
252.73329999999999	0.0	+	29	verb	phrase	3	14	nomatch	marc	-1	1	p	0.53179
252.68200000000007	0.0	[response]	29	verb	phrase	3	15	nomatch	marc	-1	1	p	0.53179
254.5491	0.0	+	30	noun	list	2	1	nomatch	noir	-1	1	p	0.89656
255.09890000000001	0.2	rfvq	30	noun	list	2	2	nomatch	noir	-1	1	p	0.89656
255.29880000000003	0.0	+	30	noun	list	2	3	nomatch	noir	-1	1	p	0.89656
255.6986	0.2	kdx	30	noun	list	2	4	nomatch	noir	-1	1	p	0.89656
255.8985	0.0	+	30	noun	list	2	5	nomatch	noir	-1	1	p	0.89656
256.2983	0.2	gh	30	noun	list	2	6	nomatch	noir	-1	1	p	0.89656
256.4982	0.0	+	30	noun	list	2	7	nomatch	noir	-1	1	p	0.89656
256.8981	0.2	cendrier	30	noun	list	2	8	nomatch	noir	-1	1	p	0.89656
257.098	0.0	+	30	noun	list	2	9	nomatch	noir	-1	1	p	0.89656
257.4978	0.2	tard	30	noun	list	2	10	nomatch	noir	-1	1	p	0.89656
257.6977	0.0	+	30	noun	list	2	11	nomatch	noir	-1	1	p	0.89656
258.0975	0.0	+	30	noun	list	2	12	nomatch	noir	-1	1	p	0.89656
260.0966	0.0	NOIR	30	noun	list	2	13	nomatch	noir	-1	1	p	0.89656
261.0462	0.0	+	30	noun	list	2	14	nomatch	noir	-1	1	p	0.89656
260.9932	0.0	[response]	30	noun	list	2	15	nomatch	noir	-1	1	p	0.89656
262.4956	0.0	+	31	noun	phrase	1	1	nomatch	vite	-1	1	p	0.79889
263.0453	0.2	jzsg	31	noun	phrase	1	2	nomatch	vite	-1	1	p	0.79889
263.2452	0.0	+	31	noun	phrase	1	3	nomatch	vite	-1	1	p	0.79889
263.6451	0.2	mwgt	31	noun	phrase	1	4	nomatch	vite	-1	1	p	0.79889
263.845	0.0	+	31	noun	phrase	1	5	nomatch	vite	-1	1	p	0.79889
264.2448	0.2	wgh	31	noun	phrase	1	6	nomatch	vite	-1	1	p	0.79889
264.4447	0.0	+	31	noun	phrase	1	7	nomatch	vite	-1	1	p	0.79889
264.8445	0.2	lmfqszk	31	noun	phrase	1	8	nomatch	vite	-1	1	p	0.79889
265.0444	0.0	+	31	noun	phrase	1	9	nomatch	vite	-1	1	p	0.79889
265.4443	0.2	nouveau	31	noun	phrase	1	10	nomatch	vite	-1	1	p	0.79889
265.6442	0.0	+	31	noun	phrase	1	11	nomatch	vite	-1	1	p	0.79889
266.044	0.0	+	31	noun	phrase	1	12	nomatch	vite	-1	1	p	0.79889
268.0431	0.0	VITE	31	noun	phrase	1	13	nomatch	vite	-1	1	p	0.79889
268.9094	0.0	+	31	noun	phrase	1	14	nomatch	vite	-1	1	p	0.79889
268.842	0.0	[response]	31	noun	phrase	1	15	nomatch	vite	-1	1	p	0.79889
270.442	0.0	+	32	noun	list	1	1	match	beaucoup	5	1	y	0.5897000000000001
270.9918	0.2	jtrgk	32	noun	list	1	2	match	beaucoup	5	1	y	0.5897000000000001
271.1917	0.0	+	32	noun	list	1	3	match	beaucoup	5	1	y	0.5897000000000001
271.5915	0.2	kcbt	32	noun	list	1	4	match	beaucoup	5	1	y	0.5897000000000001
271.7914	0.0	+	32	noun	list	1	5	match	beaucoup	5	1	y	0.5897000000000001
272.1913	0.2	wtrz	32	noun	list	1	6	match	beaucoup	5	1	y	0.5897000000000001
272.3912	0.0	+	32	noun	list	1	7	match	beaucoup	5	1	y	0.5897000000000001
272.791	0.2	dbtgrkh	32	noun	list	1	8	match	beaucoup	5	1	y	0.5897000000000001
272.9909	0.0	+	32	noun	list	1	9	match	beaucoup	5	1	y	0.5897000000000001
273.3907	0.2	beaucoup	32	noun	list	1	10	match	beaucoup	5	1	y	0.5897000000000001
273.5906	0.0	+	32	noun	list	1	11	match	beaucoup	5	1	y	0.5897000000000001
273.9904	0.0	+	32	noun	list	1	12	match	beaucoup	5	1	y	0.5897000000000001
275.9896	0.0	BEAUCOUP	32	noun	list	1	13	match	beaucoup	5	1	y	0.5897000000000001
276.6393	0.0	+	32	noun	list	1	14	match	beaucoup	5	1	y	0.5897000000000001
276.5793	0.0	[response]	32	noun	list	1	15	match	beaucoup	5	1	y	0.5897000000000001
286.3849	0.0	+	33	verb	phrase	2	1	nomatch	tard	-1	1	p	0.7008200000000001
286.9347	0.2	mxhf	33	verb	phrase	2	2	nomatch	tard	-1	1	p	0.7008200000000001
287.1346	0.0	+	33	verb	phrase	2	3	nomatch	tard	-1	1	p	0.7008200000000001
287.5344	0.2	xgjw	33	verb	phrase	2	4	nomatch	tard	-1	1	p	0.7008200000000001
287.7343	0.0	+	33	verb	phrase	2	5	nomatch	tard	-1	1	p	0.7008200000000001
288.1341	0.2	dckl	33	verb	phrase	2	6	nomatch	tard	-1	1	p	0.7008200000000001
288.3341	0.0	+	33	verb	phrase	2	7	nomatch	tard	-1	1	p	0.7008200000000001
288.7343	0.2	mieux	33	verb	phrase	2	8	nomatch	tard	-1	1	p	0.7008200000000001
288.9338	0.0	+	33	verb	phrase	2	9	nomatch	tard	-1	1	p	0.7008200000000001
289.3337	0.2	galoper	33	verb	phrase	2	10	nomatch	tard	-1	1	p	0.7008200000000001
289.5336	0.0	+	33	verb	phrase	2	11	nomatch	tard	-1	1	p	0.7008200000000001
289.95	0.0	+	33	verb	phrase	2	12	nomatch	tard	-1	1	p	0.7008200000000001
291.9491	0.0	TARD	33	verb	phrase	2	13	nomatch	tard	-1	1	p	0.7008200000000001
292.7154	0.0	+	33	verb	phrase	2	14	nomatch	tard	-1	1	p	0.7008200000000001
292.6499	0.0	[response]	33	verb	phrase	2	15	nomatch	tard	-1	1	p	0.7008200000000001
294.348	0.0	+	34	verb	list	2	1	match	patiner	4	1	y	0.79033
294.8978	0.2	pqx	34	verb	list	2	2	match	patiner	4	1	y	0.79033
295.09770000000003	0.0	+	34	verb	list	2	3	match	patiner	4	1	y	0.79033
295.4975	0.2	kcbt	34	verb	list	2	4	match	patiner	4	1	y	0.79033
295.6974	0.0	+	34	verb	list	2	5	match	patiner	4	1	y	0.79033
296.0973	0.2	wgh	34	verb	list	2	6	match	patiner	4	1	y	0.79033
296.29720000000003	0.0	+	34	verb	list	2	7	match	patiner	4	1	y	0.79033
296.697	0.2	patiner	34	verb	list	2	8	match	patiner	4	1	y	0.79033
296.8969	0.0	+	34	verb	list	2	9	match	patiner	4	1	y	0.79033
297.2967	0.2	vert	34	verb	list	2	10	match	patiner	4	1	y	0.79033
297.4966	0.0	+	34	verb	list	2	11	match	patiner	4	1	y	0.79033
297.8964	0.0	+	34	verb	list	2	12	match	patiner	4	1	y	0.79033
299.8956	0.0	PATINER	34	verb	list	2	13	match	patiner	4	1	y	0.79033
300.7452	0.0	+	34	verb	list	2	14	match	patiner	4	1	y	0.79033
300.6859	0.0	[response]	34	verb	list	2	15	match	patiner	4	1	y	0.79033
302.2945	0.0	+	35	noun	list	2	1	match	moins	4	1	y	0.6768
302.8442	0.2	gpcfz	35	noun	list	2	2	match	moins	4	1	y	0.6768
303.0442	0.0	+	35	noun	list	2	3	match	moins	4	1	y	0.6768
303.444	0.2	zhgv	35	noun	list	2	4	match	moins	4	1	y	0.6768
303.64390000000003	0.0	+	35	noun	list	2	5	match	moins	4	1	y	0.6768
304.0437	0.2	qtk	35	noun	list	2	6	match	moins	4	1	y	0.6768
304.2436	0.0	+	35	noun	list	2	7	match	moins	4	1	y	0.6768
304.6434	0.2	moins	35	noun	list	2	8	match	moins	4	1	y	0.6768
304.84340000000003	0.0	+	35	noun	list	2	9	match	moins	4	1	y	0.6768
305.2432	0.2	casier	35	noun	list	2	10	match	moins	4	1	y	0.6768
305.4431	0.0	+	35	noun	list	2	11	match	moins	4	1	y	0.6768
305.8429	0.0	+	35	noun	list	2	12	match	moins	4	1	y	0.6768
307.842	0.0	MOINS	35	noun	list	2	13	match	moins	4	1	y	0.6768
308.575	0.0	+	35	noun	list	2	14	match	moins	4	1	y	0.6768
308.5188	0.0	[response]	35	noun	list	2	15	match	moins	4	1	y	0.6768
310.241	0.0	+	36	noun	phrase	3	1	match	vert	5	1	y	0.48024
310.7907	0.2	nbgzpj	36	noun	phrase	3	2	match	vert	5	1	y	0.48024
310.99060000000003	0.0	+	36	noun	phrase	3	3	match	vert	5	1	y	0.48024
311.3904	0.2	kdx	36	noun	phrase	3	4	match	vert	5	1	y	0.48024
311.5903	0.0	+	36	noun	phrase	3	5	match	vert	5	1	y	0.48024
311.9902	0.2	mon	36	noun	phrase	3	6	match	vert	5	1	y	0.48024
312.19010000000003	0.0	+	36	noun	phrase	3	7	match	vert	5	1	y	0.48024
312.5899	0.2	rocher	36	noun	phrase	3	8	match	vert	5	1	y	0.48024
312.7898	0.0	+	36	noun	phrase	3	9	match	vert	5	1	y	0.48024
313.1896	0.2	vert	36	noun	phrase	3	10	match	vert	5	1	y	0.48024
313.3895	0.0	+	36	noun	phrase	3	11	match	vert	5	1	y	0.48024
313.7894	0.0	+	36	noun	phrase	3	12	match	vert	5	1	y	0.48024
315.7885	0.0	VERT	36	noun	phrase	3	13	match	vert	5	1	y	0.48024
316.3216	0.0	+	36	noun	phrase	3	14	match	vert	5	1	y	0.48024
316.2687000000001	0.0	[response]	36	noun	phrase	3	15	match	vert	5	1	y	0.48024
326.1838	0.0	+	37	noun	phrase	1	1	match	casier	5	1	y	0.5864300000000001
326.7337	0.2	mgh	37	noun	phrase	1	2	match	casier	5	1	y	0.5864300000000001
326.9336	0.0	+	37	noun	phrase	1	3	match	casier	5	1	y	0.5864300000000001
327.35	0.2	dglq	37	noun	phrase	1	4	match	casier	5	1	y	0.5864300000000001
327.5499	0.0	+	37	noun	phrase	1	5	match	casier	5	1	y	0.5864300000000001
327.9497	0.2	wtrz	37	noun	phrase	1	6	match	casier	5	1	y	0.5864300000000001
328.1496	0.0	+	37	noun	phrase	1	7	match	casier	5	1	y	0.5864300000000001
328.5495	0.2	cxmb	37	noun	phrase	1	8	match	casier	5	1	y	0.5864300000000001
328.7494	0.0	+	37	noun	phrase	1	9	match	casier	5	1	y	0.5864300000000001
329.1492	0.2	casier	37	noun	phrase	1	10	match	casier	5	1	y	0.5864300000000001
329.3491	0.0	+	37	noun	phrase	1	11	match	casier	5	1	y	0.5864300000000001
329.7489	0.0	+	37	noun	phrase	1	12	match	casier	5	1	y	0.5864300000000001
331.748	0.0	CASIER	37	noun	phrase	1	13	match	casier	5	1	y	0.5864300000000001
332.3977	0.0	+	37	noun	phrase	1	14	match	casier	5	1	y	0.5864300000000001
332.3344	0.0	[response]	37	noun	phrase	1	15	match	casier	5	1	y	0.5864300000000001
342.1434	0.0	+	38	verb	phrase	1	1	match	voyager	5	1	y	0.4421900000000001
342.6934	0.2	mcxz	38	verb	phrase	1	2	match	voyager	5	1	y	0.4421900000000001
342.89300000000003	0.0	+	38	verb	phrase	1	3	match	voyager	5	1	y	0.4421900000000001
343.29290000000003	0.2	xgjw	38	verb	phrase	1	4	match	voyager	5	1	y	0.4421900000000001
343.4928	0.0	+	38	verb	phrase	1	5	match	voyager	5	1	y	0.4421900000000001
343.8926	0.2	gh	38	verb	phrase	1	6	match	voyager	5	1	y	0.4421900000000001
344.09250000000003	0.0	+	38	verb	phrase	1	7	match	voyager	5	1	y	0.4421900000000001
344.4923	0.2	szvn	38	verb	phrase	1	8	match	voyager	5	1	y	0.4421900000000001
344.6922	0.0	+	38	verb	phrase	1	9	match	voyager	5	1	y	0.4421900000000001
345.0921	0.2	voyager	38	verb	phrase	1	10	match	voyager	5	1	y	0.4421900000000001
345.29200000000003	0.0	+	38	verb	phrase	1	11	match	voyager	5	1	y	0.4421900000000001
345.6918	0.0	+	38	verb	phrase	1	12	match	voyager	5	1	y	0.4421900000000001
347.6909	0.0	VOYAGER	38	verb	phrase	1	13	match	voyager	5	1	y	0.4421900000000001
348.1907	0.0	+	38	verb	phrase	1	14	match	voyager	5	1	y	0.4421900000000001
348.1331	0.0	[response]	38	verb	phrase	1	15	match	voyager	5	1	y	0.4421900000000001
350.0898	0.0	+	39	noun	phrase	3	1	nomatch	va	-1	1	p	0.59403
350.63960000000003	0.2	bxl	39	noun	phrase	3	2	nomatch	va	-1	1	p	0.59403
350.8395	0.0	+	39	noun	phrase	3	3	nomatch	va	-1	1	p	0.59403
351.2393	0.2	hndz	39	noun	phrase	3	4	nomatch	va	-1	1	p	0.59403
351.4392	0.0	+	39	noun	phrase	3	5	nomatch	va	-1	1	p	0.59403
351.83910000000003	0.2	leur	39	noun	phrase	3	6	nomatch	va	-1	1	p	0.59403
352.039	0.0	+	39	noun	phrase	3	7	nomatch	va	-1	1	p	0.59403
352.4388	0.2	beau	39	noun	phrase	3	8	nomatch	va	-1	1	p	0.59403
352.63870000000003	0.0	+	39	noun	phrase	3	9	nomatch	va	-1	1	p	0.59403
353.0385	0.2	panier	39	noun	phrase	3	10	nomatch	va	-1	1	p	0.59403
353.2384	0.0	+	39	noun	phrase	3	11	nomatch	va	-1	1	p	0.59403
353.6383	0.0	+	39	noun	phrase	3	12	nomatch	va	-1	1	p	0.59403
355.6374	0.0	VA	39	noun	phrase	3	13	nomatch	va	-1	1	p	0.59403
356.2871	0.0	+	39	noun	phrase	3	14	nomatch	va	-1	1	p	0.59403
356.2314	0.0	[response]	39	noun	phrase	3	15	nomatch	va	-1	1	p	0.59403
358.0363	0.0	+	40	verb	list	3	1	match	galoper	5	1	y	0.6004300000000001
358.5861	0.2	cjt	40	verb	list	3	2	match	galoper	5	1	y	0.6004300000000001
358.786	0.0	+	40	verb	list	3	3	match	galoper	5	1	y	0.6004300000000001
359.18580000000003	0.2	mwgt	40	verb	list	3	4	match	galoper	5	1	y	0.6004300000000001
359.3857	0.0	+	40	verb	list	3	5	match	galoper	5	1	y	0.6004300000000001
359.7855	0.2	doit	40	verb	list	3	6	match	galoper	5	1	y	0.6004300000000001
359.9854	0.0	+	40	verb	list	3	7	match	galoper	5	1	y	0.6004300000000001
360.3852	0.2	petit	40	verb	list	3	8	match	galoper	5	1	y	0.6004300000000001
360.5852	0.0	+	40	verb	list	3	9	match	galoper	5	1	y	0.6004300000000001
360.985	0.2	galoper	40	verb	list	3	10	match	galoper	5	1	y	0.6004300000000001
361.1849	0.0	+	40	verb	list	3	11	match	galoper	5	1	y	0.6004300000000001
361.5847	0.0	+	40	verb	list	3	12	match	galoper	5	1	y	0.6004300000000001
363.5838	0.0	GALOPER	40	verb	list	3	13	match	galoper	5	1	y	0.6004300000000001
364.2502	0.0	+	40	verb	list	3	14	match	galoper	5	1	y	0.6004300000000001
364.1842000000001	0.0	[response]	40	verb	list	3	15	match	galoper	5	1	y	0.6004300000000001
381.9923	0.0	+	41	verb	list	3	1	match	leur	3	1	y	0.72982
382.54200000000003	0.2	fkr	41	verb	list	3	2	match	leur	3	1	y	0.72982
382.7419	0.0	+	41	verb	list	3	3	match	leur	3	1	y	0.72982
383.1418	0.2	pmch	41	verb	list	3	4	match	leur	3	1	y	0.72982
383.3417	0.0	+	41	verb	list	3	5	match	leur	3	1	y	0.72982
383.74150000000003	0.2	leur	41	verb	list	3	6	match	leur	3	1	y	0.72982
383.9414	0.0	+	41	verb	list	3	7	match	leur	3	1	y	0.72982
384.3412	0.2	voyager	41	verb	list	3	8	match	leur	3	1	y	0.72982
384.54110000000003	0.0	+	41	verb	list	3	9	match	leur	3	1	y	0.72982
384.94100000000003	0.2	bleu	41	verb	list	3	10	match	leur	3	1	y	0.72982
385.1409	0.0	+	41	verb	list	3	11	match	leur	3	1	y	0.72982
385.5407	0.0	+	41	verb	list	3	12	match	leur	3	1	y	0.72982
387.5398	0.0	LEUR	41	verb	list	3	13	match	leur	3	1	y	0.72982
388.32280000000003	0.0	+	41	verb	list	3	14	match	leur	3	1	y	0.72982
388.2696	0.0	[response]	41	verb	list	3	15	match	leur	3	1	y	0.72982
397.9352	0.0	+	42	verb	list	3	1	match	peut	3	1	y	0.54898
398.4849	0.2	kqswf	42	verb	list	3	2	match	peut	3	1	y	0.54898
398.6848	0.0	+	42	verb	list	3	3	match	peut	3	1	y	0.54898
399.0846	0.2	mwgt	42	verb	list	3	4	match	peut	3	1	y	0.54898
399.2846	0.0	+	42	verb	list	3	5	match	peut	3	1	y	0.54898
399.6844	0.2	peut	42	verb	list	3	6	match	peut	3	1	y	0.54898
399.8843	0.0	+	42	verb	list	3	7	match	peut	3	1	y	0.54898
400.2841	0.2	beau	42	verb	list	3	8	match	peut	3	1	y	0.54898
400.484	0.0	+	42	verb	list	3	9	match	peut	3	1	y	0.54898
400.8839	0.2	plonger	42	verb	list	3	10	match	peut	3	1	y	0.54898
401.0838	0.0	+	42	verb	list	3	11	match	peut	3	1	y	0.54898
401.4836	0.0	+	42	verb	list	3	12	match	peut	3	1	y	0.54898
403.4994	0.0	PEUT	42	verb	list	3	13	match	peut	3	1	y	0.54898
404.1157	0.0	+	42	verb	list	3	14	match	peut	3	1	y	0.54898
404.0483	0.0	[response]	42	verb	list	3	15	match	peut	3	1	y	0.54898
405.8983	0.0	+	43	verb	list	2	1	nomatch	trop	-1	1	p	0.71913
406.448	0.2	gxdqtl	43	verb	list	2	2	nomatch	trop	-1	1	p	0.71913
406.648	0.0	+	43	verb	list	2	3	nomatch	trop	-1	1	p	0.71913
407.0478	0.2	pmch	43	verb	list	2	4	nomatch	trop	-1	1	p	0.71913
407.2477	0.0	+	43	verb	list	2	5	nomatch	trop	-1	1	p	0.71913
407.6475	0.2	qtk	43	verb	list	2	6	nomatch	trop	-1	1	p	0.71913
407.8474	0.0	+	43	verb	list	2	7	nomatch	trop	-1	1	p	0.71913
408.2473	0.2	rouler	43	verb	list	2	8	nomatch	trop	-1	1	p	0.71913
408.4472	0.0	+	43	verb	list	2	9	nomatch	trop	-1	1	p	0.71913
408.847	0.2	bleu	43	verb	list	2	10	nomatch	trop	-1	1	p	0.71913
409.0469	0.0	+	43	verb	list	2	11	nomatch	trop	-1	1	p	0.71913
409.4467	0.0	+	43	verb	list	2	12	nomatch	trop	-1	1	p	0.71913
411.4458	0.0	TROP	43	verb	list	2	13	nomatch	trop	-1	1	p	0.71913
412.2288	0.0	+	43	verb	list	2	14	nomatch	trop	-1	1	p	0.71913
412.1649	0.0	[response]	43	verb	list	2	15	nomatch	trop	-1	1	p	0.71913
413.8448	0.0	+	44	verb	list	1	1	match	grand	5	1	y	0.47003000000000006
414.3945	0.2	pdmk	44	verb	list	1	2	match	grand	5	1	y	0.47003000000000006
414.5944	0.0	+	44	verb	list	1	3	match	grand	5	1	y	0.47003000000000006
414.9942	0.2	mwgt	44	verb	list	1	4	match	grand	5	1	y	0.47003000000000006
415.1941	0.0	+	44	verb	list	1	5	match	grand	5	1	y	0.47003000000000006
415.594	0.2	dckl	44	verb	list	1	6	match	grand	5	1	y	0.47003000000000006
415.7939	0.0	+	44	verb	list	1	7	match	grand	5	1	y	0.47003000000000006
416.1937	0.2	crjsltw	44	verb	list	1	8	match	grand	5	1	y	0.47003000000000006
416.3936	0.0	+	44	verb	list	1	9	match	grand	5	1	y	0.47003000000000006
416.7934	0.2	grand	44	verb	list	1	10	match	grand	5	1	y	0.47003000000000006
416.99330000000003	0.0	+	44	verb	list	1	11	match	grand	5	1	y	0.47003000000000006
417.3931	0.0	+	44	verb	list	1	12	match	grand	5	1	y	0.47003000000000006
419.39230000000003	0.0	GRAND	44	verb	list	1	13	match	grand	5	1	y	0.47003000000000006
419.9254	0.0	+	44	verb	list	1	14	match	grand	5	1	y	0.47003000000000006
419.86230000000006	0.0	[response]	44	verb	list	1	15	match	grand	5	1	y	0.47003000000000006
421.7912	0.0	+	45	verb	phrase	2	1	nomatch	sablier	-1	1	p	0.53921
422.34090000000003	0.2	dbgntqf	45	verb	phrase	2	2	nomatch	sablier	-1	1	p	0.53921
422.5409	0.0	+	45	verb	phrase	2	3	nomatch	sablier	-1	1	p	0.53921
422.9407	0.2	xjng	45	verb	phrase	2	4	nomatch	sablier	-1	1	p	0.53921
423.1406	0.0	+	45	verb	phrase	2	5	nomatch	sablier	-1	1	p	0.53921
423.54040000000003	0.2	sjkg	45	verb	phrase	2	6	nomatch	sablier	-1	1	p	0.53921
423.7403	0.0	+	45	verb	phrase	2	7	nomatch	sablier	-1	1	p	0.53921
424.1402	0.2	plus	45	verb	phrase	2	8	nomatch	sablier	-1	1	p	0.53921
424.3401	0.0	+	45	verb	phrase	2	9	nomatch	sablier	-1	1	p	0.53921
424.73990000000003	0.2	jongler	45	verb	phrase	2	10	nomatch	sablier	-1	1	p	0.53921
424.9398	0.0	+	45	verb	phrase	2	11	nomatch	sablier	-1	1	p	0.53921
425.3396	0.0	+	45	verb	phrase	2	12	nomatch	sablier	-1	1	p	0.53921
427.3387	0.0	SABLIER	45	verb	phrase	2	13	nomatch	sablier	-1	1	p	0.53921
427.93850000000003	0.0	+	45	verb	phrase	2	14	nomatch	sablier	-1	1	p	0.53921
427.8779	0.0	[response]	45	verb	phrase	2	15	nomatch	sablier	-1	1	p	0.53921
429.7376	0.0	+	46	noun	list	1	1	match	tablier	5	1	y	0.41663
430.2874	0.2	pnwz	46	noun	list	1	2	match	tablier	5	1	y	0.41663
430.4873	0.0	+	46	noun	list	1	3	match	tablier	5	1	y	0.41663
430.88710000000003	0.2	xslt	46	noun	list	1	4	match	tablier	5	1	y	0.41663
431.087	0.0	+	46	noun	list	1	5	match	tablier	5	1	y	0.41663
431.4869	0.2	wtrz	46	noun	list	1	6	match	tablier	5	1	y	0.41663
431.6868	0.0	+	46	noun	list	1	7	match	tablier	5	1	y	0.41663
432.08660000000003	0.2	pbqvx	46	noun	list	1	8	match	tablier	5	1	y	0.41663
432.2865	0.0	+	46	noun	list	1	9	match	tablier	5	1	y	0.41663
432.6863	0.2	tablier	46	noun	list	1	10	match	tablier	5	1	y	0.41663
432.88620000000003	0.0	+	46	noun	list	1	11	match	tablier	5	1	y	0.41663
433.28610000000003	0.0	+	46	noun	list	1	12	match	tablier	5	1	y	0.41663
435.28520000000003	0.0	TABLIER	46	noun	list	1	13	match	tablier	5	1	y	0.41663
435.7683	0.0	+	46	noun	list	1	14	match	tablier	5	1	y	0.41663
435.7018	0.0	[response]	46	noun	list	1	15	match	tablier	5	1	y	0.41663
437.6841	0.0	+	47	verb	phrase	1	1	nomatch	vert	-1	1	p	0.61475
438.2339	0.2	knm	47	verb	phrase	1	2	nomatch	vert	-1	1	p	0.61475
438.4338	0.0	+	47	verb	phrase	1	3	nomatch	vert	-1	1	p	0.61475
438.8338	0.2	kcbt	47	verb	phrase	1	4	nomatch	vert	-1	1	p	0.61475
439.0336	0.0	+	47	verb	phrase	1	5	nomatch	vert	-1	1	p	0.61475
439.45	0.2	gh	47	verb	phrase	1	6	nomatch	vert	-1	1	p	0.61475
439.6499	0.0	+	47	verb	phrase	1	7	nomatch	vert	-1	1	p	0.61475
440.04970000000003	0.2	kzglwpns	47	verb	phrase	1	8	nomatch	vert	-1	1	p	0.61475
440.2496	0.0	+	47	verb	phrase	1	9	nomatch	vert	-1	1	p	0.61475
440.6495	0.2	chasser	47	verb	phrase	1	10	nomatch	vert	-1	1	p	0.61475
440.8494	0.0	+	47	verb	phrase	1	11	nomatch	vert	-1	1	p	0.61475
441.24920000000003	0.0	+	47	verb	phrase	1	12	nomatch	vert	-1	1	p	0.61475
443.24830000000003	0.0	VERT	47	verb	phrase	1	13	nomatch	vert	-1	1	p	0.61475
443.9147	0.0	+	47	verb	phrase	1	14	nomatch	vert	-1	1	p	0.61475
443.863	0.0	[response]	47	verb	phrase	1	15	nomatch	vert	-1	1	p	0.61475
461.64009999999996	0.0	+	48	verb	phrase	3	1	nomatch	voyager	-1	1	p	0.6369
462.1898	0.2	bxjrc	48	verb	phrase	3	2	nomatch	voyager	-1	1	p	0.6369
462.38980000000004	0.0	+	48	verb	phrase	3	3	nomatch	voyager	-1	1	p	0.6369
462.78959999999995	0.2	xgjw	48	verb	phrase	3	4	nomatch	voyager	-1	1	p	0.6369
462.9895	0.0	+	48	verb	phrase	3	5	nomatch	voyager	-1	1	p	0.6369
463.38930000000005	0.2	va	48	verb	phrase	3	6	nomatch	voyager	-1	1	p	0.6369
463.5892	0.0	+	48	verb	phrase	3	7	nomatch	voyager	-1	1	p	0.6369
463.98900000000003	0.2	mieux	48	verb	phrase	3	8	nomatch	voyager	-1	1	p	0.6369
464.18899999999996	0.0	+	48	verb	phrase	3	9	nomatch	voyager	-1	1	p	0.6369
464.5888	0.2	patiner	48	verb	phrase	3	10	nomatch	voyager	-1	1	p	0.6369
464.78870000000006	0.0	+	48	verb	phrase	3	11	nomatch	voyager	-1	1	p	0.6369
465.1885	0.0	+	48	verb	phrase	3	12	nomatch	voyager	-1	1	p	0.6369
467.1876	0.0	VOYAGER	48	verb	phrase	3	13	nomatch	voyager	-1	1	p	0.6369
467.8873	0.0	+	48	verb	phrase	3	14	nomatch	voyager	-1	1	p	0.6369
467.82450000000006	0.0	[response]	48	verb	phrase	3	15	nomatch	voyager	-1	1	p	0.6369
477.5996	0.0	+	49	noun	phrase	4	1	nomatch	marc	-1	1	p	0.58751
478.1494	0.2	smkjx	49	noun	phrase	4	2	nomatch	marc	-1	1	p	0.58751
478.34929999999997	0.0	+	49	noun	phrase	4	3	nomatch	marc	-1	1	p	0.58751
478.7491	0.2	sur	49	noun	phrase	4	4	nomatch	marc	-1	1	p	0.58751
478.94899999999996	0.0	+	49	noun	phrase	4	5	nomatch	marc	-1	1	p	0.58751
479.34889999999996	0.2	son	49	noun	phrase	4	6	nomatch	marc	-1	1	p	0.58751
479.5488	0.0	+	49	noun	phrase	4	7	nomatch	marc	-1	1	p	0.58751
479.94860000000006	0.2	beau	49	noun	phrase	4	8	nomatch	marc	-1	1	p	0.58751
480.1485	0.0	+	49	noun	phrase	4	9	nomatch	marc	-1	1	p	0.58751
480.54830000000004	0.2	rocher	49	noun	phrase	4	10	nomatch	marc	-1	1	p	0.58751
480.7482	0.0	+	49	noun	phrase	4	11	nomatch	marc	-1	1	p	0.58751
481.1481	0.0	+	49	noun	phrase	4	12	nomatch	marc	-1	1	p	0.58751
483.1472	0.0	MARC	49	noun	phrase	4	13	nomatch	marc	-1	1	p	0.58751
483.79690000000005	0.0	+	49	noun	phrase	4	14	nomatch	marc	-1	1	p	0.58751
483.7347	0.0	[response]	49	noun	phrase	4	15	nomatch	marc	-1	1	p	0.58751
485.5461	0.0	+	50	verb	phrase	1	1	match	trop	5	1	y	0.59465
486.09590000000003	0.2	rvf	50	verb	phrase	1	2	match	trop	5	1	y	0.59465
486.2958	0.0	+	50	verb	phrase	1	3	match	trop	5	1	y	0.59465
486.6956	0.2	zhgv	50	verb	phrase	1	4	match	trop	5	1	y	0.59465
486.89549999999997	0.0	+	50	verb	phrase	1	5	match	trop	5	1	y	0.59465
487.2953	0.2	dckl	50	verb	phrase	1	6	match	trop	5	1	y	0.59465
487.49519999999995	0.0	+	50	verb	phrase	1	7	match	trop	5	1	y	0.59465
487.89509999999996	0.2	zmlgtwv	50	verb	phrase	1	8	match	trop	5	1	y	0.59465
488.095	0.0	+	50	verb	phrase	1	9	match	trop	5	1	y	0.59465
488.49480000000005	0.2	trop	50	verb	phrase	1	10	match	trop	5	1	y	0.59465
488.6947	0.0	+	50	verb	phrase	1	11	match	trop	5	1	y	0.59465
489.09450000000004	0.0	+	50	verb	phrase	1	12	match	trop	5	1	y	0.59465
491.09360000000004	0.0	TROP	50	verb	phrase	1	13	match	trop	5	1	y	0.59465
491.7433	0.0	+	50	verb	phrase	1	14	match	trop	5	1	y	0.59465
491.6883	0.0	[response]	50	verb	phrase	1	15	match	trop	5	1	y	0.59465
493.49260000000004	0.0	+	51	noun	list	2	1	nomatch	tard	-1	1	p	0.60673
494.04229999999995	0.2	spc	51	noun	list	2	2	nomatch	tard	-1	1	p	0.60673
494.2422	0.0	+	51	noun	list	2	3	nomatch	tard	-1	1	p	0.60673
494.64200000000005	0.2	kdx	51	noun	list	2	4	nomatch	tard	-1	1	p	0.60673
494.8419	0.0	+	51	noun	list	2	5	nomatch	tard	-1	1	p	0.60673
495.2418	0.2	sjkg	51	noun	list	2	6	nomatch	tard	-1	1	p	0.60673
495.44169999999997	0.0	+	51	noun	list	2	7	nomatch	tard	-1	1	p	0.60673
495.8415	0.2	voilier	51	noun	list	2	8	nomatch	tard	-1	1	p	0.60673
496.04139999999995	0.0	+	51	noun	list	2	9	nomatch	tard	-1	1	p	0.60673
496.4412	0.2	tôt	51	noun	list	2	10	nomatch	tard	-1	1	p	0.60673
496.6412	0.0	+	51	noun	list	2	11	nomatch	tard	-1	1	p	0.60673
497.04100000000005	0.0	+	51	noun	list	2	12	nomatch	tard	-1	1	p	0.60673
499.04010000000005	0.0	TARD	51	noun	list	2	13	nomatch	tard	-1	1	p	0.60673
499.7065	0.0	+	51	noun	list	2	14	nomatch	tard	-1	1	p	0.60673
499.6468	0.0	[response]	51	noun	list	2	15	nomatch	tard	-1	1	p	0.60673
509.43550000000005	0.0	+	52	verb	list	1	1	match	vert	5	1	y	0.48645
509.98519999999996	0.2	mbkxtvp	52	verb	list	1	2	match	vert	5	1	y	0.48645
510.18510000000003	0.0	+	52	verb	list	1	3	match	vert	5	1	y	0.48645
510.58490000000006	0.2	pmch	52	verb	list	1	4	match	vert	5	1	y	0.48645
510.7848	0.0	+	52	verb	list	1	5	match	vert	5	1	y	0.48645
511.1847	0.2	wgh	52	verb	list	1	6	match	vert	5	1	y	0.48645
511.3846	0.0	+	52	verb	list	1	7	match	vert	5	1	y	0.48645
511.7844	0.2	zmlgtwv	52	verb	list	1	8	match	vert	5	1	y	0.48645
511.98429999999996	0.0	+	52	verb	list	1	9	match	vert	5	1	y	0.48645
512.3841	0.2	vert	52	verb	list	1	10	match	vert	5	1	y	0.48645
512.5840000000001	0.0	+	52	verb	list	1	11	match	vert	5	1	y	0.48645
512.9839000000001	0.0	+	52	verb	list	1	12	match	vert	5	1	y	0.48645
514.9996	0.0	VERT	52	verb	list	1	13	match	vert	5	1	y	0.48645
515.5494	0.0	+	52	verb	list	1	14	match	vert	5	1	y	0.48645
515.4861	0.0	[response]	52	verb	list	1	15	match	vert	5	1	y	0.48645
517.3986	0.0	+	53	verb	list	1	1	nomatch	chasser	-1	1	p	0.66219
517.9483	0.2	jnf	53	verb	list	1	2	nomatch	chasser	-1	1	p	0.66219
518.1482	0.0	+	53	verb	list	1	3	nomatch	chasser	-1	1	p	0.66219
518.548	0.2	dglq	53	verb	list	1	4	nomatch	chasser	-1	1	p	0.66219
518.748	0.0	+	53	verb	list	1	5	nomatch	chasser	-1	1	p	0.66219
519.1478	0.2	gh	53	verb	list	1	6	nomatch	chasser	-1	1	p	0.66219
519.3477	0.0	+	53	verb	list	1	7	nomatch	chasser	-1	1	p	0.66219
519.7475000000001	0.2	nrqmbjc	53	verb	list	1	8	nomatch	chasser	-1	1	p	0.66219
519.9474	0.0	+	53	verb	list	1	9	nomatch	chasser	-1	1	p	0.66219
520.3472	0.2	beau	53	verb	list	1	10	nomatch	chasser	-1	1	p	0.66219
520.5471	0.0	+	53	verb	list	1	11	nomatch	chasser	-1	1	p	0.66219
520.947	0.0	+	53	verb	list	1	12	nomatch	chasser	-1	1	p	0.66219
522.9461	0.0	CHASSER	53	verb	list	1	13	nomatch	chasser	-1	1	p	0.66219
523.6624	0.0	+	53	verb	list	1	14	nomatch	chasser	-1	1	p	0.66219
523.6083	0.0	[response]	53	verb	list	1	15	nomatch	chasser	-1	1	p	0.66219
525.345	0.0	+	54	verb	phrase	3	1	match	tard	5	1	y	0.6937
525.8948	0.2	ldnmsxj	54	verb	phrase	3	2	match	tard	5	1	y	0.6937
526.0947	0.0	+	54	verb	phrase	3	3	match	tard	5	1	y	0.6937
526.4945	0.2	xslt	54	verb	phrase	3	4	match	tard	5	1	y	0.6937
526.6944	0.0	+	54	verb	phrase	3	5	match	tard	5	1	y	0.6937
527.0942	0.2	va	54	verb	phrase	3	6	match	tard	5	1	y	0.6937
527.2941	0.0	+	54	verb	phrase	3	7	match	tard	5	1	y	0.6937
527.694	0.2	plonger	54	verb	phrase	3	8	match	tard	5	1	y	0.6937
527.8939	0.0	+	54	verb	phrase	3	9	match	tard	5	1	y	0.6937
528.2937000000001	0.2	tard	54	verb	phrase	3	10	match	tard	5	1	y	0.6937
528.4936	0.0	+	54	verb	phrase	3	11	match	tard	5	1	y	0.6937
528.8934	0.0	+	54	verb	phrase	3	12	match	tard	5	1	y	0.6937
530.8925	0.0	TARD	54	verb	phrase	3	13	match	tard	5	1	y	0.6937
531.6422	0.0	+	54	verb	phrase	3	14	match	tard	5	1	y	0.6937
531.5862	0.0	[response]	54	verb	phrase	3	15	match	tard	5	1	y	0.6937
533.2915	0.0	+	55	verb	phrase	1	1	nomatch	moins	-1	1	p	0.59775
533.8412	0.2	dbkvgw	55	verb	phrase	1	2	nomatch	moins	-1	1	p	0.59775
534.0411	0.0	+	55	verb	phrase	1	3	nomatch	moins	-1	1	p	0.59775
534.441	0.2	xgjw	55	verb	phrase	1	4	nomatch	moins	-1	1	p	0.59775
534.6409	0.0	+	55	verb	phrase	1	5	nomatch	moins	-1	1	p	0.59775
535.0407	0.2	dckl	55	verb	phrase	1	6	nomatch	moins	-1	1	p	0.59775
535.2406	0.0	+	55	verb	phrase	1	7	nomatch	moins	-1	1	p	0.59775
535.6404	0.2	sgfhr	55	verb	phrase	1	8	nomatch	moins	-1	1	p	0.59775
535.8403	0.0	+	55	verb	phrase	1	9	nomatch	moins	-1	1	p	0.59775
536.2401	0.2	plus	55	verb	phrase	1	10	nomatch	moins	-1	1	p	0.59775
536.4401	0.0	+	55	verb	phrase	1	11	nomatch	moins	-1	1	p	0.59775
536.8399000000001	0.0	+	55	verb	phrase	1	12	nomatch	moins	-1	1	p	0.59775
538.839	0.0	MOINS	55	verb	phrase	1	13	nomatch	moins	-1	1	p	0.59775
539.4887	0.0	+	55	verb	phrase	1	14	nomatch	moins	-1	1	p	0.59775
539.4368000000001	0.0	[response]	55	verb	phrase	1	15	nomatch	moins	-1	1	p	0.59775
541.2379	0.0	+	56	noun	list	4	1	nomatch	vers	-1	1	p	0.85442
541.7877	0.2	rvmkwsl	56	noun	list	4	2	nomatch	vers	-1	1	p	0.85442
541.9876	0.0	+	56	noun	list	4	3	nomatch	vers	-1	1	p	0.85442
542.3874	0.2	sur	56	noun	list	4	4	nomatch	vers	-1	1	p	0.85442
542.5873	0.0	+	56	noun	list	4	5	nomatch	vers	-1	1	p	0.85442
542.9871	0.2	va	56	noun	list	4	6	nomatch	vers	-1	1	p	0.85442
543.1871	0.0	+	56	noun	list	4	7	nomatch	vers	-1	1	p	0.85442
543.5869	0.2	casier	56	noun	list	4	8	nomatch	vers	-1	1	p	0.85442
543.7868	0.0	+	56	noun	list	4	9	nomatch	vers	-1	1	p	0.85442
544.1866	0.2	vite	56	noun	list	4	10	nomatch	vers	-1	1	p	0.85442
544.3865	0.0	+	56	noun	list	4	11	nomatch	vers	-1	1	p	0.85442
544.7863	0.0	+	56	noun	list	4	12	nomatch	vers	-1	1	p	0.85442
546.7855	0.0	VERS	56	noun	list	4	13	nomatch	vers	-1	1	p	0.85442
547.7017	0.0	+	56	noun	list	4	14	nomatch	vers	-1	1	p	0.85442
547.6399	0.0	[response]	56	noun	list	4	15	nomatch	vers	-1	1	p	0.85442
549.1844	0.0	+	57	noun	phrase	3	1	nomatch	vieux	-1	1	p	0.68274
549.7341	0.2	dskgx	57	noun	phrase	3	2	nomatch	vieux	-1	1	p	0.68274
549.934	0.0	+	57	noun	phrase	3	3	nomatch	vieux	-1	1	p	0.68274
550.3339	0.2	jxrw	57	noun	phrase	3	4	nomatch	vieux	-1	1	p	0.68274
550.5338	0.0	+	57	noun	phrase	3	5	nomatch	vieux	-1	1	p	0.68274
550.9336	0.2	son	57	noun	phrase	3	6	nomatch	vieux	-1	1	p	0.68274
551.1335	0.0	+	57	noun	phrase	3	7	nomatch	vieux	-1	1	p	0.68274
551.55	0.2	grand	57	noun	phrase	3	8	nomatch	vieux	-1	1	p	0.68274
551.7499	0.0	+	57	noun	phrase	3	9	nomatch	vieux	-1	1	p	0.68274
552.1497	0.2	voilier	57	noun	phrase	3	10	nomatch	vieux	-1	1	p	0.68274
552.3496	0.0	+	57	noun	phrase	3	11	nomatch	vieux	-1	1	p	0.68274
552.7495	0.0	+	57	noun	phrase	3	12	nomatch	vieux	-1	1	p	0.68274
554.7486	0.0	VIEUX	57	noun	phrase	3	13	nomatch	vieux	-1	1	p	0.68274
555.4982	0.0	+	57	noun	phrase	3	14	nomatch	vieux	-1	1	p	0.68274
555.4313	0.0	[response]	57	noun	phrase	3	15	nomatch	vieux	-1	1	p	0.68274
557.1475	0.0	+	58	verb	list	1	1	match	blanc	5	1	y	0.60818
557.6973	0.2	rdxjs	58	verb	list	1	2	match	blanc	5	1	y	0.60818
557.8972	0.0	+	58	verb	list	1	3	match	blanc	5	1	y	0.60818
558.297	0.2	xslt	58	verb	list	1	4	match	blanc	5	1	y	0.60818
558.4969	0.0	+	58	verb	list	1	5	match	blanc	5	1	y	0.60818
558.8967	0.2	wgh	58	verb	list	1	6	match	blanc	5	1	y	0.60818
559.0966	0.0	+	58	verb	list	1	7	match	blanc	5	1	y	0.60818
559.4964	0.2	sgfhr	58	verb	list	1	8	match	blanc	5	1	y	0.60818
559.6966	0.0	+	58	verb	list	1	9	match	blanc	5	1	y	0.60818
560.0962	0.2	blanc	58	verb	list	1	10	match	blanc	5	1	y	0.60818
560.2961	0.0	+	58	verb	list	1	11	match	blanc	5	1	y	0.60818
560.6959	0.0	+	58	verb	list	1	12	match	blanc	5	1	y	0.60818
562.695	0.0	BLANC	58	verb	list	1	13	match	blanc	5	1	y	0.60818
563.3614	0.0	+	58	verb	list	1	14	match	blanc	5	1	y	0.60818
563.3032000000001	0.0	[response]	58	verb	list	1	15	match	blanc	5	1	y	0.60818
573.0904	0.0	+	59	verb	list	4	1	nomatch	son	-1	1	p	0.76493
573.6401	0.2	bmgnkw	59	verb	list	4	2	nomatch	son	-1	1	p	0.76493
573.8401	0.0	+	59	verb	list	4	3	nomatch	son	-1	1	p	0.76493
574.2399	0.2	vers	59	verb	list	4	4	nomatch	son	-1	1	p	0.76493
574.4398	0.0	+	59	verb	list	4	5	nomatch	son	-1	1	p	0.76493
574.8396	0.2	peut	59	verb	list	4	6	nomatch	son	-1	1	p	0.76493
575.0395	0.0	+	59	verb	list	4	7	nomatch	son	-1	1	p	0.76493
575.4393	0.2	vieux	59	verb	list	4	8	nomatch	son	-1	1	p	0.76493
575.6392	0.0	+	59	verb	list	4	9	nomatch	son	-1	1	p	0.76493
576.0391	0.2	jongler	59	verb	list	4	10	nomatch	son	-1	1	p	0.76493
576.239	0.0	+	59	verb	list	4	11	nomatch	son	-1	1	p	0.76493
576.6388000000001	0.0	+	59	verb	list	4	12	nomatch	son	-1	1	p	0.76493
578.6379000000001	0.0	SON	59	verb	list	4	13	nomatch	son	-1	1	p	0.76493
579.4542	0.0	+	59	verb	list	4	14	nomatch	son	-1	1	p	0.76493
579.4028	0.0	[response]	59	verb	list	4	15	nomatch	son	-1	1	p	0.76493
581.0368	0.0	+	60	verb	list	2	1	match	galoper	4	1	y	0.56647
581.5866	0.2	dlzhnst	60	verb	list	2	2	match	galoper	4	1	y	0.56647
581.7865	0.0	+	60	verb	list	2	3	match	galoper	4	1	y	0.56647
582.1863	0.2	pmch	60	verb	list	2	4	match	galoper	4	1	y	0.56647
582.3862	0.0	+	60	verb	list	2	5	match	galoper	4	1	y	0.56647
582.7861	0.2	wgh	60	verb	list	2	6	match	galoper	4	1	y	0.56647
582.986	0.0	+	60	verb	list	2	7	match	galoper	4	1	y	0.56647
583.3858	0.2	galoper	60	verb	list	2	8	match	galoper	4	1	y	0.56647
583.5857	0.0	+	60	verb	list	2	9	match	galoper	4	1	y	0.56647
583.9855	0.2	bleu	60	verb	list	2	10	match	galoper	4	1	y	0.56647
584.1854	0.0	+	60	verb	list	2	11	match	galoper	4	1	y	0.56647
584.5853	0.0	+	60	verb	list	2	12	match	galoper	4	1	y	0.56647
586.5844	0.0	GALOPER	60	verb	list	2	13	match	galoper	4	1	y	0.56647
587.2174	0.0	+	60	verb	list	2	14	match	galoper	4	1	y	0.56647
587.1508	0.0	[response]	60	verb	list	2	15	match	galoper	4	1	y	0.56647
589.0	0.0	+	61	noun	phrase	4	1	nomatch	tard	-1	1	p	0.7163
589.5497	0.2	xfrqm	61	noun	phrase	4	2	nomatch	tard	-1	1	p	0.7163
589.7496	0.0	+	61	noun	phrase	4	3	nomatch	tard	-1	1	p	0.7163
590.1494	0.2	avec	61	noun	phrase	4	4	nomatch	tard	-1	1	p	0.7163
590.3494000000001	0.0	+	61	noun	phrase	4	5	nomatch	tard	-1	1	p	0.7163
590.7492	0.2	mon	61	noun	phrase	4	6	nomatch	tard	-1	1	p	0.7163
590.9491	0.0	+	61	noun	phrase	4	7	nomatch	tard	-1	1	p	0.7163
591.3489	0.2	vieux	61	noun	phrase	4	8	nomatch	tard	-1	1	p	0.7163
591.5488	0.0	+	61	noun	phrase	4	9	nomatch	tard	-1	1	p	0.7163
591.9487	0.2	panier	61	noun	phrase	4	10	nomatch	tard	-1	1	p	0.7163
592.1486	0.0	+	61	noun	phrase	4	11	nomatch	tard	-1	1	p	0.7163
592.5484	0.0	+	61	noun	phrase	4	12	nomatch	tard	-1	1	p	0.7163
594.5475	0.0	TARD	61	noun	phrase	4	13	nomatch	tard	-1	1	p	0.7163
595.3305	0.0	+	61	noun	phrase	4	14	nomatch	tard	-1	1	p	0.7163
595.2638000000001	0.0	[response]	61	noun	phrase	4	15	nomatch	tard	-1	1	p	0.7163
596.9464	0.0	+	62	verb	phrase	2	1	nomatch	nouveau	-1	1	p	0.76675
597.4962	0.2	qpc	62	verb	phrase	2	2	nomatch	nouveau	-1	1	p	0.76675
597.6961	0.0	+	62	verb	phrase	2	3	nomatch	nouveau	-1	1	p	0.76675
598.0959	0.2	kcbt	62	verb	phrase	2	4	nomatch	nouveau	-1	1	p	0.76675
598.2958	0.0	+	62	verb	phrase	2	5	nomatch	nouveau	-1	1	p	0.76675
598.6956	0.2	dckl	62	verb	phrase	2	6	nomatch	nouveau	-1	1	p	0.76675
598.8955	0.0	+	62	verb	phrase	2	7	nomatch	nouveau	-1	1	p	0.76675
599.2954	0.2	nager	62	verb	phrase	2	8	nomatch	nouveau	-1	1	p	0.76675
599.4953	0.0	+	62	verb	phrase	2	9	nomatch	nouveau	-1	1	p	0.76675
599.8951	0.2	ainsi	62	verb	phrase	2	10	nomatch	nouveau	-1	1	p	0.76675
600.095	0.0	+	62	verb	phrase	2	11	nomatch	nouveau	-1	1	p	0.76675
600.4948	0.0	+	62	verb	phrase	2	12	nomatch	nouveau	-1	1	p	0.76675
602.494	0.0	NOUVEAU	62	verb	phrase	2	13	nomatch	nouveau	-1	1	p	0.76675
603.3269	0.0	+	62	verb	phrase	2	14	nomatch	nouveau	-1	1	p	0.76675
603.2607	0.0	[response]	62	verb	phrase	2	15	nomatch	nouveau	-1	1	p	0.76675
612.8893	0.0	+	63	noun	list	1	1	nomatch	tablier	-1	1	p	0.88081
613.4391	0.2	bvn	63	noun	list	1	2	nomatch	tablier	-1	1	p	0.88081
613.639	0.0	+	63	noun	list	1	3	nomatch	tablier	-1	1	p	0.88081
614.0388	0.2	zhgv	63	noun	list	1	4	nomatch	tablier	-1	1	p	0.88081
614.2387	0.0	+	63	noun	list	1	5	nomatch	tablier	-1	1	p	0.88081
614.6385	0.2	wtrz	63	noun	list	1	6	nomatch	tablier	-1	1	p	0.88081
614.8384	0.0	+	63	noun	list	1	7	nomatch	tablier	-1	1	p	0.88081
615.2383	0.2	rgkf	63	noun	list	1	8	nomatch	tablier	-1	1	p	0.88081
615.4382	0.0	+	63	noun	list	1	9	nomatch	tablier	-1	1	p	0.88081
615.838	0.2	boîtier	63	noun	list	1	10	nomatch	tablier	-1	1	p	0.88081
616.0379	0.0	+	63	noun	list	1	11	nomatch	tablier	-1	1	p	0.88081
616.4377	0.0	+	63	noun	list	1	12	nomatch	tablier	-1	1	p	0.88081
618.4368000000001	0.0	TABLIER	63	noun	list	1	13	nomatch	tablier	-1	1	p	0.88081
619.3697	0.0	+	63	noun	list	1	14	nomatch	tablier	-1	1	p	0.88081
619.3176	0.0	[response]	63	noun	list	1	15	nomatch	tablier	-1	1	p	0.88081
620.8358	0.0	+	64	verb	phrase	4	1	nomatch	vert	-1	1	p	0.64873
621.3855	0.2	lrwphjn	64	verb	phrase	4	2	nomatch	vert	-1	1	p	0.64873
621.5854	0.0	+	64	verb	phrase	4	3	nomatch	vert	-1	1	p	0.64873
621.9852	0.2	luc	64	verb	phrase	4	4	nomatch	vert	-1	1	p	0.64873
622.1851	0.0	+	64	verb	phrase	4	5	nomatch	vert	-1	1	p	0.64873
622.585	0.2	va	64	verb	phrase	4	6	nomatch	vert	-1	1	p	0.64873
622.7849	0.0	+	64	verb	phrase	4	7	nomatch	vert	-1	1	p	0.64873
623.1847	0.2	trop	64	verb	phrase	4	8	nomatch	vert	-1	1	p	0.64873
623.3846	0.0	+	64	verb	phrase	4	9	nomatch	vert	-1	1	p	0.64873
623.7844	0.2	plonger	64	verb	phrase	4	10	nomatch	vert	-1	1	p	0.64873
623.9844	0.0	+	64	verb	phrase	4	11	nomatch	vert	-1	1	p	0.64873
624.3842	0.0	+	64	verb	phrase	4	12	nomatch	vert	-1	1	p	0.64873
626.3999	0.0	VERT	64	verb	phrase	4	13	nomatch	vert	-1	1	p	0.64873
627.1163	0.0	+	64	verb	phrase	4	14	nomatch	vert	-1	1	p	0.64873
627.0487	0.0	[response]	64	verb	phrase	4	15	nomatch	vert	-1	1	p	0.64873
628.7989	0.0	+	65	noun	phrase	3	1	match	mon	3	1	y	0.58318
629.3486	0.2	lgn	65	noun	phrase	3	2	match	mon	3	1	y	0.58318
629.5485	0.0	+	65	noun	phrase	3	3	match	mon	3	1	y	0.58318
629.9484	0.2	pbxw	65	noun	phrase	3	4	match	mon	3	1	y	0.58318
630.1483	0.0	+	65	noun	phrase	3	5	match	mon	3	1	y	0.58318
630.5481	0.2	mon	65	noun	phrase	3	6	match	mon	3	1	y	0.58318
630.748	0.0	+	65	noun	phrase	3	7	match	mon	3	1	y	0.58318
631.1478	0.2	vieux	65	noun	phrase	3	8	match	mon	3	1	y	0.58318
631.3477	0.0	+	65	noun	phrase	3	9	match	mon	3	1	y	0.58318
631.7476	0.2	casier	65	noun	phrase	3	10	match	mon	3	1	y	0.58318
631.9475	0.0	+	65	noun	phrase	3	11	match	mon	3	1	y	0.58318
632.3473	0.0	+	65	noun	phrase	3	12	match	mon	3	1	y	0.58318
634.3464	0.0	MON	65	noun	phrase	3	13	match	mon	3	1	y	0.58318
634.9961	0.0	+	65	noun	phrase	3	14	match	mon	3	1	y	0.58318
634.9296	0.0	[response]	65	noun	phrase	3	15	match	mon	3	1	y	0.58318
636.7453	0.0	+	66	verb	list	4	1	nomatch	doit	-1	1	p	0.89054
637.2951	0.2	mfj	66	verb	list	4	2	nomatch	doit	-1	1	p	0.89054
637.495	0.0	+	66	verb	list	4	3	nomatch	doit	-1	1	p	0.89054
637.8948	0.2	sous	66	verb	list	4	4	nomatch	doit	-1	1	p	0.89054
638.0947	0.0	+	66	verb	list	4	5	nomatch	doit	-1	1	p	0.89054
638.4945	0.2	peut	66	verb	list	4	6	nomatch	doit	-1	1	p	0.89054
638.6945000000001	0.0	+	66	verb	list	4	7	nomatch	doit	-1	1	p	0.89054
639.0943	0.2	beau	66	verb	list	4	8	nomatch	doit	-1	1	p	0.89054
639.2942	0.0	+	66	verb	list	4	9	nomatch	doit	-1	1	p	0.89054
639.694	0.2	plonger	66	verb	list	4	10	nomatch	doit	-1	1	p	0.89054
639.8939	0.0	+	66	verb	list	4	11	nomatch	doit	-1	1	p	0.89054
640.2937000000001	0.0	+	66	verb	list	4	12	nomatch	doit	-1	1	p	0.89054
642.2929	0.0	DOIT	66	verb	list	4	13	nomatch	doit	-1	1	p	0.89054
643.2424	0.0	+	66	verb	list	4	14	nomatch	doit	-1	1	p	0.89054
643.1834	0.0	[response]	66	verb	list	4	15	nomatch	doit	-1	1	p	0.89054
644.6918000000001	0.0	+	67	verb	phrase	1	1	match	vite	5	1	y	0.45344
645.2415	0.2	rknbdhs	67	verb	phrase	1	2	match	vite	5	1	y	0.45344
645.4415	0.0	+	67	verb	phrase	1	3	match	vite	5	1	y	0.45344
645.8413	0.2	sqt	67	verb	phrase	1	4	match	vite	5	1	y	0.45344
646.0412	0.0	+	67	verb	phrase	1	5	match	vite	5	1	y	0.45344
646.441	0.2	gh	67	verb	phrase	1	6	match	vite	5	1	y	0.45344
646.6409	0.0	+	67	verb	phrase	1	7	match	vite	5	1	y	0.45344
647.0407	0.2	sgfhr	67	verb	phrase	1	8	match	vite	5	1	y	0.45344
647.2407000000001	0.0	+	67	verb	phrase	1	9	match	vite	5	1	y	0.45344
647.6405	0.2	vite	67	verb	phrase	1	10	match	vite	5	1	y	0.45344
647.8404	0.0	+	67	verb	phrase	1	11	match	vite	5	1	y	0.45344
648.2402	0.0	+	67	verb	phrase	1	12	match	vite	5	1	y	0.45344
650.2393	0.0	VITE	67	verb	phrase	1	13	match	vite	5	1	y	0.45344
650.7557	0.0	+	67	verb	phrase	1	14	match	vite	5	1	y	0.45344
650.6928	0.0	[response]	67	verb	phrase	1	15	match	vite	5	1	y	0.45344
652.6382	0.0	+	68	noun	list	4	1	nomatch	tard	-1	1	p	0.5425700000000001
653.188	0.2	nwdkl	68	noun	list	4	2	nomatch	tard	-1	1	p	0.5425700000000001
653.3879000000001	0.0	+	68	noun	list	4	3	nomatch	tard	-1	1	p	0.5425700000000001
653.7877	0.2	sans	68	noun	list	4	4	nomatch	tard	-1	1	p	0.5425700000000001
653.9879	0.0	+	68	noun	list	4	5	nomatch	tard	-1	1	p	0.5425700000000001
654.3875	0.2	doit	68	noun	list	4	6	nomatch	tard	-1	1	p	0.5425700000000001
654.5874	0.0	+	68	noun	list	4	7	nomatch	tard	-1	1	p	0.5425700000000001
654.9872	0.2	voilier	68	noun	list	4	8	nomatch	tard	-1	1	p	0.5425700000000001
655.1871	0.0	+	68	noun	list	4	9	nomatch	tard	-1	1	p	0.5425700000000001
655.5869	0.2	ainsi	68	noun	list	4	10	nomatch	tard	-1	1	p	0.5425700000000001
655.7868	0.0	+	68	noun	list	4	11	nomatch	tard	-1	1	p	0.5425700000000001
656.1867	0.0	+	68	noun	list	4	12	nomatch	tard	-1	1	p	0.5425700000000001
658.1858	0.0	TARD	68	noun	list	4	13	nomatch	tard	-1	1	p	0.5425700000000001
658.7855	0.0	+	68	noun	list	4	14	nomatch	tard	-1	1	p	0.5425700000000001
658.7283	0.0	[response]	68	noun	list	4	15	nomatch	tard	-1	1	p	0.5425700000000001
660.5847	0.0	+	69	verb	list	3	1	nomatch	son	-1	1	p	0.7048200000000001
661.1344	0.2	cvwkt	69	verb	list	3	2	nomatch	son	-1	1	p	0.7048200000000001
661.3344	0.0	+	69	verb	list	3	3	nomatch	son	-1	1	p	0.7048200000000001
661.7342	0.2	xslt	69	verb	list	3	4	nomatch	son	-1	1	p	0.7048200000000001
661.9341000000001	0.0	+	69	verb	list	3	5	nomatch	son	-1	1	p	0.7048200000000001
662.3339	0.2	mon	69	verb	list	3	6	nomatch	son	-1	1	p	0.7048200000000001
662.5338	0.0	+	69	verb	list	3	7	nomatch	son	-1	1	p	0.7048200000000001
662.9337	0.2	patiner	69	verb	list	3	8	nomatch	son	-1	1	p	0.7048200000000001
663.1336	0.0	+	69	verb	list	3	9	nomatch	son	-1	1	p	0.7048200000000001
663.55	0.2	noir	69	verb	list	3	10	nomatch	son	-1	1	p	0.7048200000000001
663.75	0.0	+	69	verb	list	3	11	nomatch	son	-1	1	p	0.7048200000000001
664.1498	0.0	+	69	verb	list	3	12	nomatch	son	-1	1	p	0.7048200000000001
666.1489	0.0	SON	69	verb	list	3	13	nomatch	son	-1	1	p	0.7048200000000001
666.9152	0.0	+	69	verb	list	3	14	nomatch	son	-1	1	p	0.7048200000000001
666.8537000000001	0.0	[response]	69	verb	list	3	15	nomatch	son	-1	1	p	0.7048200000000001
668.5478	0.0	+	70	verb	list	1	1	match	nouveau	5	1	y	0.53032
669.0976	0.2	rfgdcw	70	verb	list	1	2	match	nouveau	5	1	y	0.53032
669.2975	0.0	+	70	verb	list	1	3	match	nouveau	5	1	y	0.53032
669.6973	0.2	hndz	70	verb	list	1	4	match	nouveau	5	1	y	0.53032
669.8972	0.0	+	70	verb	list	1	5	match	nouveau	5	1	y	0.53032
670.297	0.2	sjkg	70	verb	list	1	6	match	nouveau	5	1	y	0.53032
670.4969	0.0	+	70	verb	list	1	7	match	nouveau	5	1	y	0.53032
670.8968	0.2	xzkpvbl	70	verb	list	1	8	match	nouveau	5	1	y	0.53032
671.0967	0.0	+	70	verb	list	1	9	match	nouveau	5	1	y	0.53032
671.4965	0.2	nouveau	70	verb	list	1	10	match	nouveau	5	1	y	0.53032
671.6966	0.0	+	70	verb	list	1	11	match	nouveau	5	1	y	0.53032
672.0962	0.0	+	70	verb	list	1	12	match	nouveau	5	1	y	0.53032
674.0953	0.0	NOUVEAU	70	verb	list	1	13	match	nouveau	5	1	y	0.53032
674.6784	0.0	+	70	verb	list	1	14	match	nouveau	5	1	y	0.53032
674.6257	0.0	[response]	70	verb	list	1	15	match	nouveau	5	1	y	0.53032
676.4943	0.0	+	71	verb	list	2	1	match	petit	4	1	y	0.57281
677.044	0.2	czrmw	71	verb	list	2	2	match	petit	4	1	y	0.57281
677.2439	0.0	+	71	verb	list	2	3	match	petit	4	1	y	0.57281
677.6438	0.2	kdx	71	verb	list	2	4	match	petit	4	1	y	0.57281
677.8437	0.0	+	71	verb	list	2	5	match	petit	4	1	y	0.57281
678.2435	0.2	gh	71	verb	list	2	6	match	petit	4	1	y	0.57281
678.4434	0.0	+	71	verb	list	2	7	match	petit	4	1	y	0.57281
678.8432	0.2	petit	71	verb	list	2	8	match	petit	4	1	y	0.57281
679.0431	0.0	+	71	verb	list	2	9	match	petit	4	1	y	0.57281
679.443	0.2	rouler	71	verb	list	2	10	match	petit	4	1	y	0.57281
679.6429	0.0	+	71	verb	list	2	11	match	petit	4	1	y	0.57281
680.0427	0.0	+	71	verb	list	2	12	match	petit	4	1	y	0.57281
682.0418	0.0	PETIT	71	verb	list	2	13	match	petit	4	1	y	0.57281
682.6748	0.0	+	71	verb	list	2	14	match	petit	4	1	y	0.57281
682.6146	0.0	[response]	71	verb	list	2	15	match	petit	4	1	y	0.57281
692.4372	0.0	+	72	noun	phrase	2	1	match	tablier	5	1	y	0.63846
692.9869	0.2	kqnz	72	noun	phrase	2	2	match	tablier	5	1	y	0.63846
693.1868000000001	0.0	+	72	noun	phrase	2	3	match	tablier	5	1	y	0.63846
693.5866	0.2	pbxw	72	noun	phrase	2	4	match	tablier	5	1	y	0.63846
693.7866	0.0	+	72	noun	phrase	2	5	match	tablier	5	1	y	0.63846
694.1864	0.2	wtrz	72	noun	phrase	2	6	match	tablier	5	1	y	0.63846
694.3863	0.0	+	72	noun	phrase	2	7	match	tablier	5	1	y	0.63846
694.7861	0.2	beau	72	noun	phrase	2	8	match	tablier	5	1	y	0.63846
694.986	0.0	+	72	noun	phrase	2	9	match	tablier	5	1	y	0.63846
695.3858	0.2	tablier	72	noun	phrase	2	10	match	tablier	5	1	y	0.63846
695.5858	0.0	+	72	noun	phrase	2	11	match	tablier	5	1	y	0.63846
695.9856	0.0	+	72	noun	phrase	2	12	match	tablier	5	1	y	0.63846
697.9847	0.0	TABLIER	72	noun	phrase	2	13	match	tablier	5	1	y	0.63846
698.6844	0.0	+	72	noun	phrase	2	14	match	tablier	5	1	y	0.63846
698.6231000000001	0.0	[response]	72	noun	phrase	2	15	match	tablier	5	1	y	0.63846
700.4003	0.0	+	73	verb	list	4	1	nomatch	jongler	-1	1	p	0.5878
700.95	0.2	lvscpqz	73	verb	list	4	2	nomatch	jongler	-1	1	p	0.5878
701.1499	0.0	+	73	verb	list	4	3	nomatch	jongler	-1	1	p	0.5878
701.5498	0.2	avec	73	verb	list	4	4	nomatch	jongler	-1	1	p	0.5878
701.7497	0.0	+	73	verb	list	4	5	nomatch	jongler	-1	1	p	0.5878
702.1495	0.2	doit	73	verb	list	4	6	nomatch	jongler	-1	1	p	0.5878
702.3494000000001	0.0	+	73	verb	list	4	7	nomatch	jongler	-1	1	p	0.5878
702.7492	0.2	vieux	73	verb	list	4	8	nomatch	jongler	-1	1	p	0.5878
702.9491	0.0	+	73	verb	list	4	9	nomatch	jongler	-1	1	p	0.5878
703.349	0.2	voyager	73	verb	list	4	10	nomatch	jongler	-1	1	p	0.5878
703.5489	0.0	+	73	verb	list	4	11	nomatch	jongler	-1	1	p	0.5878
703.9487	0.0	+	73	verb	list	4	12	nomatch	jongler	-1	1	p	0.5878
705.9478	0.0	JONGLER	73	verb	list	4	13	nomatch	jongler	-1	1	p	0.5878
706.5975	0.0	+	73	verb	list	4	14	nomatch	jongler	-1	1	p	0.5878
706.5356	0.0	[response]	73	verb	list	4	15	nomatch	jongler	-1	1	p	0.5878
708.3467	0.0	+	74	verb	phrase	4	1	match	peut	3	1	y	0.62554
708.8965000000001	0.2	mhsv	74	verb	phrase	4	2	match	peut	3	1	y	0.62554
709.0964	0.0	+	74	verb	phrase	4	3	match	peut	3	1	y	0.62554
709.4962	0.2	yves	74	verb	phrase	4	4	match	peut	3	1	y	0.62554
709.6961	0.0	+	74	verb	phrase	4	5	match	peut	3	1	y	0.62554
710.096	0.2	peut	74	verb	phrase	4	6	match	peut	3	1	y	0.62554
710.2959	0.0	+	74	verb	phrase	4	7	match	peut	3	1	y	0.62554
710.6957	0.2	rouler	74	verb	phrase	4	8	match	peut	3	1	y	0.62554
710.8956000000001	0.0	+	74	verb	phrase	4	9	match	peut	3	1	y	0.62554
711.2954	0.2	tard	74	verb	phrase	4	10	match	peut	3	1	y	0.62554
711.4953	0.0	+	74	verb	phrase	4	11	match	peut	3	1	y	0.62554
711.8951	0.0	+	74	verb	phrase	4	12	match	peut	3	1	y	0.62554
713.8943	0.0	PEUT	74	verb	phrase	4	13	match	peut	3	1	y	0.62554
714.5773	0.0	+	74	verb	phrase	4	14	match	peut	3	1	y	0.62554
714.5198	0.0	[response]	74	verb	phrase	4	15	match	peut	3	1	y	0.62554
716.2932	0.0	+	75	verb	list	1	1	nomatch	nager	-1	1	p	0.54303
716.843	0.2	kfshz	75	verb	list	1	2	nomatch	nager	-1	1	p	0.54303
717.0428	0.0	+	75	verb	list	1	3	nomatch	nager	-1	1	p	0.54303
717.4427000000001	0.2	mwgt	75	verb	list	1	4	nomatch	nager	-1	1	p	0.54303
717.6426	0.0	+	75	verb	list	1	5	nomatch	nager	-1	1	p	0.54303
718.0424	0.2	sjkg	75	verb	list	1	6	nomatch	nager	-1	1	p	0.54303
718.2423	0.0	+	75	verb	list	1	7	nomatch	nager	-1	1	p	0.54303
718.6421	0.2	zbqrd	75	verb	list	1	8	nomatch	nager	-1	1	p	0.54303
718.8421	0.0	+	75	verb	list	1	9	nomatch	nager	-1	1	p	0.54303
719.2419	0.2	galoper	75	verb	list	1	10	nomatch	nager	-1	1	p	0.54303
719.4418000000001	0.0	+	75	verb	list	1	11	nomatch	nager	-1	1	p	0.54303
719.8416	0.0	+	75	verb	list	1	12	nomatch	nager	-1	1	p	0.54303
721.8407	0.0	NAGER	75	verb	list	1	13	nomatch	nager	-1	1	p	0.54303
722.4405	0.0	+	75	verb	list	1	14	nomatch	nager	-1	1	p	0.54303
722.3837	0.0	[response]	75	verb	list	1	15	nomatch	nager	-1	1	p	0.54303
724.2396	0.0	+	76	verb	phrase	3	1	match	mieux	4	1	y	0.72036
724.7894	0.2	dxcgvfk	76	verb	phrase	3	2	match	mieux	4	1	y	0.72036
724.9893	0.0	+	76	verb	phrase	3	3	match	mieux	4	1	y	0.72036
725.3891	0.2	xslt	76	verb	phrase	3	4	match	mieux	4	1	y	0.72036
725.589	0.0	+	76	verb	phrase	3	5	match	mieux	4	1	y	0.72036
725.9889000000001	0.2	va	76	verb	phrase	3	6	match	mieux	4	1	y	0.72036
726.1888	0.0	+	76	verb	phrase	3	7	match	mieux	4	1	y	0.72036
726.5886	0.2	mieux	76	verb	phrase	3	8	match	mieux	4	1	y	0.72036
726.7885	0.0	+	76	verb	phrase	3	9	match	mieux	4	1	y	0.72036
727.1883	0.2	jongler	76	verb	phrase	3	10	match	mieux	4	1	y	0.72036
727.3882	0.0	+	76	verb	phrase	3	11	match	mieux	4	1	y	0.72036
727.7881	0.0	+	76	verb	phrase	3	12	match	mieux	4	1	y	0.72036
729.7872	0.0	MIEUX	76	verb	phrase	3	13	match	mieux	4	1	y	0.72036
730.5702	0.0	+	76	verb	phrase	3	14	match	mieux	4	1	y	0.72036
730.5075000000002	0.0	[response]	76	verb	phrase	3	15	match	mieux	4	1	y	0.72036
732.1861	0.0	+	77	noun	phrase	4	1	nomatch	plus	-1	1	p	0.61299
732.7359	0.2	xshjkqc	77	noun	phrase	4	2	nomatch	plus	-1	1	p	0.61299
732.9358	0.0	+	77	noun	phrase	4	3	nomatch	plus	-1	1	p	0.61299
733.3356	0.2	sous	77	noun	phrase	4	4	nomatch	plus	-1	1	p	0.61299
733.5355	0.0	+	77	noun	phrase	4	5	nomatch	plus	-1	1	p	0.61299
733.9353	0.2	son	77	noun	phrase	4	6	nomatch	plus	-1	1	p	0.61299
734.1352	0.0	+	77	noun	phrase	4	7	nomatch	plus	-1	1	p	0.61299
734.535	0.2	cendrier	77	noun	phrase	4	8	nomatch	plus	-1	1	p	0.61299
734.735	0.0	+	77	noun	phrase	4	9	nomatch	plus	-1	1	p	0.61299
735.1348	0.2	bleu	77	noun	phrase	4	10	nomatch	plus	-1	1	p	0.61299
735.3347	0.0	+	77	noun	phrase	4	11	nomatch	plus	-1	1	p	0.61299
735.7345	0.0	+	77	noun	phrase	4	12	nomatch	plus	-1	1	p	0.61299
737.7336	0.0	PLUS	77	noun	phrase	4	13	nomatch	plus	-1	1	p	0.61299
738.4	0.0	+	77	noun	phrase	4	14	nomatch	plus	-1	1	p	0.61299
738.3466	0.0	[response]	77	noun	phrase	4	15	nomatch	plus	-1	1	p	0.61299
740.1492	0.0	+	78	verb	phrase	1	1	match	tard	5	1	y	0.4306400000000001
740.699	0.2	mqskrw	78	verb	phrase	1	2	match	tard	5	1	y	0.4306400000000001
740.8989	0.0	+	78	verb	phrase	1	3	match	tard	5	1	y	0.4306400000000001
741.2987	0.2	xjng	78	verb	phrase	1	4	match	tard	5	1	y	0.4306400000000001
741.4986	0.0	+	78	verb	phrase	1	5	match	tard	5	1	y	0.4306400000000001
741.8984	0.2	sjkg	78	verb	phrase	1	6	match	tard	5	1	y	0.4306400000000001
742.0984	0.0	+	78	verb	phrase	1	7	match	tard	5	1	y	0.4306400000000001
742.4982	0.2	trpncbk	78	verb	phrase	1	8	match	tard	5	1	y	0.4306400000000001
742.6981	0.0	+	78	verb	phrase	1	9	match	tard	5	1	y	0.4306400000000001
743.0979	0.2	tard	78	verb	phrase	1	10	match	tard	5	1	y	0.4306400000000001
743.2978	0.0	+	78	verb	phrase	1	11	match	tard	5	1	y	0.4306400000000001
743.6976	0.0	+	78	verb	phrase	1	12	match	tard	5	1	y	0.4306400000000001
745.6967	0.0	TARD	78	verb	phrase	1	13	match	tard	5	1	y	0.4306400000000001
746.1799	0.0	+	78	verb	phrase	1	14	match	tard	5	1	y	0.4306400000000001
746.1274	0.0	[response]	78	verb	phrase	1	15	match	tard	5	1	y	0.4306400000000001
748.0957	0.0	+	79	verb	phrase	4	1	nomatch	mon	-1	1	p	0.70651
748.6454	0.2	mxkg	79	verb	phrase	4	2	nomatch	mon	-1	1	p	0.70651
748.8453	0.0	+	79	verb	phrase	4	3	nomatch	mon	-1	1	p	0.70651
749.2452	0.2	adam	79	verb	phrase	4	4	nomatch	mon	-1	1	p	0.70651
749.4451	0.0	+	79	verb	phrase	4	5	nomatch	mon	-1	1	p	0.70651
749.8449	0.2	peut	79	verb	phrase	4	6	nomatch	mon	-1	1	p	0.70651
750.0448	0.0	+	79	verb	phrase	4	7	nomatch	mon	-1	1	p	0.70651
750.4446	0.2	moins	79	verb	phrase	4	8	nomatch	mon	-1	1	p	0.70651
750.6445	0.0	+	79	verb	phrase	4	9	nomatch	mon	-1	1	p	0.70651
751.0444	0.2	voyager	79	verb	phrase	4	10	nomatch	mon	-1	1	p	0.70651
751.2443	0.0	+	79	verb	phrase	4	11	nomatch	mon	-1	1	p	0.70651
751.6441	0.0	+	79	verb	phrase	4	12	nomatch	mon	-1	1	p	0.70651
753.6432	0.0	MON	79	verb	phrase	4	13	nomatch	mon	-1	1	p	0.70651
754.4095	0.0	+	79	verb	phrase	4	14	nomatch	mon	-1	1	p	0.70651
754.3497	0.0	[response]	79	verb	phrase	4	15	nomatch	mon	-1	1	p	0.70651
756.0421	0.0	+	80	verb	list	1	1	nomatch	vieux	-1	1	p	0.56252
756.5919	0.2	tgznkb	80	verb	list	1	2	nomatch	vieux	-1	1	p	0.56252
756.7918	0.0	+	80	verb	list	1	3	nomatch	vieux	-1	1	p	0.56252
757.1916	0.2	mwgt	80	verb	list	1	4	nomatch	vieux	-1	1	p	0.56252
757.3915	0.0	+	80	verb	list	1	5	nomatch	vieux	-1	1	p	0.56252
757.7913	0.2	sjkg	80	verb	list	1	6	nomatch	vieux	-1	1	p	0.56252
757.9913	0.0	+	80	verb	list	1	7	nomatch	vieux	-1	1	p	0.56252
758.3911	0.2	szhnxjw	80	verb	list	1	8	nomatch	vieux	-1	1	p	0.56252
758.591	0.0	+	80	verb	list	1	9	nomatch	vieux	-1	1	p	0.56252
758.9908	0.2	beau	80	verb	list	1	10	nomatch	vieux	-1	1	p	0.56252
759.1907	0.0	+	80	verb	list	1	11	nomatch	vieux	-1	1	p	0.56252
759.5905	0.0	+	80	verb	list	1	12	nomatch	vieux	-1	1	p	0.56252
761.5897	0.0	VIEUX	80	verb	list	1	13	nomatch	vieux	-1	1	p	0.56252
762.206	0.0	+	80	verb	list	1	14	nomatch	vieux	-1	1	p	0.56252
763.9886	0.0	+	80	verb	list	1	15	nomatch	vieux	-1	1	p	0.56252
765.0048	0.0	+	80	verb	list	1	16	nomatch	vieux	-1	1	p	0.56252
765.1047	0.0	+	80	verb	list	1	17	nomatch	vieux	-1	1	p	0.56252
766.5041	0.0	+	80	verb	list	1	18	nomatch	vieux	-1	1	p	0.56252
766.6041	0.0	+	80	verb	list	1	19	nomatch	vieux	-1	1	p	0.56252
768.0035	0.0	+	80	verb	list	1	20	nomatch	vieux	-1	1	p	0.56252
768.1034	0.0	+	80	verb	list	1	21	nomatch	vieux	-1	1	p	0.56252
769.5028	0.0	+	80	verb	list	1	22	nomatch	vieux	-1	1	p	0.56252
769.6027	0.0	+	80	verb	list	1	23	nomatch	vieux	-1	1	p	0.56252
771.0021	0.0	+	80	verb	list	1	24	nomatch	vieux	-1	1	p	0.56252
771.1021	0.0	+	80	verb	list	1	25	nomatch	vieux	-1	1	p	0.56252
772.5181	0.0	+	80	verb	list	1	26	nomatch	vieux	-1	1	p	0.56252
772.6181	0.0	+	80	verb	list	1	27	nomatch	vieux	-1	1	p	0.56252
774.0174	0.0	+	80	verb	list	1	28	nomatch	vieux	-1	1	p	0.56252
774.1174	0.0	+	80	verb	list	1	29	nomatch	vieux	-1	1	p	0.56252
775.5168	0.0	+	80	verb	list	1	30	nomatch	vieux	-1	1	p	0.56252
775.6167	0.0	+	80	verb	list	1	31	nomatch	vieux	-1	1	p	0.56252
777.0161	0.0	+	80	verb	list	1	32	nomatch	vieux	-1	1	p	0.56252
777.1161	0.0	+	80	verb	list	1	33	nomatch	vieux	-1	1	p	0.56252
778.5154	0.0	+	80	verb	list	1	34	nomatch	vieux	-1	1	p	0.56252
778.6154	0.0	+	80	verb	list	1	35	nomatch	vieux	-1	1	p	0.56252
782.5969	0.0	+	80	verb	list	1	36	nomatch	vieux	-1	1	p	0.56252
762.1522	0.0	[response]	80	verb	list	1	37	nomatch	vieux	-1	1	p	0.56252
