onset	duration	stim	trial_number	trial_type	trial_structure	trial_length	sequential_position	probe_type	probe	probe_position	response_correct	response_key	response_time
0.062199999999997146	0.0	+	1	noun	phrase	2	1	match	cendrier	4	1	y	0.3989
0.5453999999999937	0.2	gmv	1	noun	phrase	2	2	match	cendrier	4	1	y	0.3989
0.7453000000000003	0.0	+	1	noun	phrase	2	3	match	cendrier	4	1	y	0.3989
1.1450999999999993	0.2	ptxf	1	noun	phrase	2	4	match	cendrier	4	1	y	0.3989
1.3449999999999989	0.0	+	1	noun	phrase	2	5	match	cendrier	4	1	y	0.3989
1.744799999999998	0.2	wvrh	1	noun	phrase	2	6	match	cendrier	4	1	y	0.3989
1.9447999999999936	0.0	+	1	noun	phrase	2	7	match	cendrier	4	1	y	0.3989
2.3446	0.2	cendrier	1	noun	phrase	2	8	match	cendrier	4	1	y	0.3989
2.5444999999999993	0.0	+	1	noun	phrase	2	9	match	cendrier	4	1	y	0.3989
2.9442999999999984	0.2	noir	1	noun	phrase	2	10	match	cendrier	4	1	y	0.3989
3.144199999999998	0.0	+	1	noun	phrase	2	11	match	cendrier	4	1	y	0.3989
3.5441000000000003	0.0	+	1	noun	phrase	2	12	match	cendrier	4	1	y	0.3989
5.543199999999999	0.0	CENDRIER	1	noun	phrase	2	13	match	cendrier	4	1	y	0.3989
6.009599999999999	0.0	+	1	noun	phrase	2	14	match	cendrier	4	1	y	0.3989
5.9421000000000035	0.0	[response]	1	noun	phrase	2	15	match	cendrier	4	1	y	0.3989
7.942099999999996	0.0	+	2	noun	phrase	4	1	nomatch	rocher	-1	1	p	0.53691
8.491899999999994	0.2	kpdzbt	2	noun	phrase	4	2	nomatch	rocher	-1	1	p	0.53691
8.691799999999994	0.0	+	2	noun	phrase	4	3	nomatch	rocher	-1	1	p	0.53691
9.091599999999993	0.2	sous	2	noun	phrase	4	4	nomatch	rocher	-1	1	p	0.53691
9.291499999999992	0.0	+	2	noun	phrase	4	5	nomatch	rocher	-1	1	p	0.53691
9.691399999999994	0.2	leur	2	noun	phrase	4	6	nomatch	rocher	-1	1	p	0.53691
9.9082	0.0	+	2	noun	phrase	4	7	nomatch	rocher	-1	1	p	0.53691
10.291800000000002	0.2	grand	2	noun	phrase	4	8	nomatch	rocher	-1	1	p	0.53691
10.491300000000003	0.0	+	2	noun	phrase	4	9	nomatch	rocher	-1	1	p	0.53691
10.890999999999998	0.2	casier	2	noun	phrase	4	10	nomatch	rocher	-1	1	p	0.53691
11.090699999999991	0.0	+	2	noun	phrase	4	11	nomatch	rocher	-1	1	p	0.53691
11.490599999999993	0.0	+	2	noun	phrase	4	12	nomatch	rocher	-1	1	p	0.53691
13.490400000000001	0.0	ROCHER	2	noun	phrase	4	13	nomatch	rocher	-1	1	p	0.53691
14.139400000000002	0.0	+	2	noun	phrase	4	14	nomatch	rocher	-1	1	p	0.53691
14.027300000000004	0.0	[response]	2	noun	phrase	4	15	nomatch	rocher	-1	1	p	0.53691
15.888600000000004	0.0	+	3	noun	phrase	1	1	match	cendrier	5	1	y	0.40757
16.438399999999994	0.2	jwgz	3	noun	phrase	1	2	match	cendrier	5	1	y	0.40757
16.638299999999994	0.0	+	3	noun	phrase	1	3	match	cendrier	5	1	y	0.40757
17.0721	0.2	ptxf	3	noun	phrase	1	4	match	cendrier	5	1	y	0.40757
17.255199999999995	0.0	+	3	noun	phrase	1	5	match	cendrier	5	1	y	0.40757
17.6385	0.2	hfs	3	noun	phrase	1	6	match	cendrier	5	1	y	0.40757
17.854599999999998	0.0	+	3	noun	phrase	1	7	match	cendrier	5	1	y	0.40757
18.237599999999993	0.2	smlc	3	noun	phrase	1	8	match	cendrier	5	1	y	0.40757
18.437499999999993	0.0	+	3	noun	phrase	1	9	match	cendrier	5	1	y	0.40757
18.837299999999992	0.2	cendrier	3	noun	phrase	1	10	match	cendrier	5	1	y	0.40757
19.037299999999995	0.0	+	3	noun	phrase	1	11	match	cendrier	5	1	y	0.40757
19.437099999999994	0.0	+	3	noun	phrase	1	12	match	cendrier	5	1	y	0.40757
21.4364	0.0	CENDRIER	3	noun	phrase	1	13	match	cendrier	5	1	y	0.40757
21.902700000000003	0.0	+	3	noun	phrase	1	14	match	cendrier	5	1	y	0.40757
21.843899999999998	0.0	[response]	3	noun	phrase	1	15	match	cendrier	5	1	y	0.40757
23.83509999999999	0.0	+	4	noun	list	1	1	nomatch	tôt	-1	1	p	0.60543
24.384899999999995	0.2	ptzlb	4	noun	list	1	2	nomatch	tôt	-1	1	p	0.60543
24.584799999999994	0.0	+	4	noun	list	1	3	nomatch	tôt	-1	1	p	0.60543
24.984599999999993	0.2	hsnx	4	noun	list	1	4	nomatch	tôt	-1	1	p	0.60543
25.184499999999993	0.0	+	4	noun	list	1	5	nomatch	tôt	-1	1	p	0.60543
25.584899999999998	0.2	jq	4	noun	list	1	6	nomatch	tôt	-1	1	p	0.60543
25.784699999999994	0.0	+	4	noun	list	1	7	nomatch	tôt	-1	1	p	0.60543
26.1847	0.2	mkgprb	4	noun	list	1	8	nomatch	tôt	-1	1	p	0.60543
26.401400000000002	0.0	+	4	noun	list	1	9	nomatch	tôt	-1	1	p	0.60543
26.783799999999992	0.2	vite	4	noun	list	1	10	nomatch	tôt	-1	1	p	0.60543
26.983799999999995	0.0	+	4	noun	list	1	11	nomatch	tôt	-1	1	p	0.60543
27.383599999999994	0.0	+	4	noun	list	1	12	nomatch	tôt	-1	1	p	0.60543
29.399399999999993	0.0	TÔT	4	noun	list	1	13	nomatch	tôt	-1	1	p	0.60543
30.132399999999997	0.0	+	4	noun	list	1	14	nomatch	tôt	-1	1	p	0.60543
30.004799999999996	0.0	[response]	4	noun	list	1	15	nomatch	tôt	-1	1	p	0.60543
39.82829999999999	0.0	+	5	verb	list	3	1	nomatch	tard	-1	1	p	0.55055
40.3448	0.2	bmvqpw	5	verb	list	3	2	nomatch	tard	-1	1	p	0.55055
40.5615	0.0	+	5	verb	list	3	3	nomatch	tard	-1	1	p	0.55055
40.94429999999999	0.2	ptxf	5	verb	list	3	4	nomatch	tard	-1	1	p	0.55055
41.14419999999999	0.0	+	5	verb	list	3	5	nomatch	tard	-1	1	p	0.55055
41.544000000000004	0.2	va	5	verb	list	3	6	nomatch	tard	-1	1	p	0.55055
41.743900000000004	0.0	+	5	verb	list	3	7	nomatch	tard	-1	1	p	0.55055
42.1437	0.2	petit	5	verb	list	3	8	nomatch	tard	-1	1	p	0.55055
42.34369999999999	0.0	+	5	verb	list	3	9	nomatch	tard	-1	1	p	0.55055
42.74349999999999	0.2	chasser	5	verb	list	3	10	nomatch	tard	-1	1	p	0.55055
42.9438	0.0	+	5	verb	list	3	11	nomatch	tard	-1	1	p	0.55055
43.34329999999999	0.0	+	5	verb	list	3	12	nomatch	tard	-1	1	p	0.55055
45.3423	0.0	TARD	5	verb	list	3	13	nomatch	tard	-1	1	p	0.55055
45.9587	0.0	+	5	verb	list	3	14	nomatch	tard	-1	1	p	0.55055
45.89289999999999	0.0	[response]	5	verb	list	3	15	nomatch	tard	-1	1	p	0.55055
47.7413	0.0	+	6	noun	list	1	1	match	casier	5	1	y	0.5407800000000001
48.291000000000004	0.2	lzd	6	noun	list	1	2	match	casier	5	1	y	0.5407800000000001
48.49099999999999	0.0	+	6	noun	list	1	3	match	casier	5	1	y	0.5407800000000001
48.89079999999999	0.2	hgvw	6	noun	list	1	4	match	casier	5	1	y	0.5407800000000001
49.09069999999999	0.0	+	6	noun	list	1	5	match	casier	5	1	y	0.5407800000000001
49.49049999999999	0.2	wvrh	6	noun	list	1	6	match	casier	5	1	y	0.5407800000000001
49.690400000000004	0.0	+	6	noun	list	1	7	match	casier	5	1	y	0.5407800000000001
50.09029999999999	0.2	sjxrn	6	noun	list	1	8	match	casier	5	1	y	0.5407800000000001
50.29019999999999	0.0	+	6	noun	list	1	9	match	casier	5	1	y	0.5407800000000001
50.6903	0.2	casier	6	noun	list	1	10	match	casier	5	1	y	0.5407800000000001
50.9073	0.0	+	6	noun	list	1	11	match	casier	5	1	y	0.5407800000000001
51.2901	0.0	+	6	noun	list	1	12	match	casier	5	1	y	0.5407800000000001
53.2888	0.0	CASIER	6	noun	list	1	13	match	casier	5	1	y	0.5407800000000001
53.888600000000004	0.0	+	6	noun	list	1	14	match	casier	5	1	y	0.5407800000000001
53.82959999999999	0.0	[response]	6	noun	list	1	15	match	casier	5	1	y	0.5407800000000001
55.6878	0.0	+	7	noun	list	3	1	nomatch	plus	-1	1	p	0.72914
56.23749999999999	0.2	tgvj	7	noun	list	3	2	nomatch	plus	-1	1	p	0.72914
56.43749999999999	0.0	+	7	noun	list	3	3	nomatch	plus	-1	1	p	0.72914
56.83729999999999	0.2	kxqr	7	noun	list	3	4	nomatch	plus	-1	1	p	0.72914
57.0546	0.0	+	7	noun	list	3	5	nomatch	plus	-1	1	p	0.72914
57.4372	0.2	peut	7	noun	list	3	6	nomatch	plus	-1	1	p	0.72914
57.63689999999999	0.0	+	7	noun	list	3	7	nomatch	plus	-1	1	p	0.72914
58.03679999999999	0.2	grenier	7	noun	list	3	8	nomatch	plus	-1	1	p	0.72914
58.23669999999999	0.0	+	7	noun	list	3	9	nomatch	plus	-1	1	p	0.72914
58.63649999999999	0.2	tard	7	noun	list	3	10	nomatch	plus	-1	1	p	0.72914
58.83639999999999	0.0	+	7	noun	list	3	11	nomatch	plus	-1	1	p	0.72914
59.23669999999999	0.0	+	7	noun	list	3	12	nomatch	plus	-1	1	p	0.72914
61.2353	0.0	PLUS	7	noun	list	3	13	nomatch	plus	-1	1	p	0.72914
62.0183	0.0	+	7	noun	list	3	14	nomatch	plus	-1	1	p	0.72914
61.964499999999994	0.0	[response]	7	noun	list	3	15	nomatch	plus	-1	1	p	0.72914
71.6474	0.0	+	8	noun	phrase	2	1	nomatch	doit	-1	1	p	0.52291
72.19720000000001	0.2	stb	8	noun	phrase	2	2	nomatch	doit	-1	1	p	0.52291
72.4143	0.0	+	8	noun	phrase	2	3	nomatch	doit	-1	1	p	0.52291
72.79729999999998	0.2	lnvt	8	noun	phrase	2	4	nomatch	doit	-1	1	p	0.52291
72.9975	0.0	+	8	noun	phrase	2	5	nomatch	doit	-1	1	p	0.52291
73.3972	0.2	wvrh	8	noun	phrase	2	6	nomatch	doit	-1	1	p	0.52291
73.61359999999999	0.0	+	8	noun	phrase	2	7	nomatch	doit	-1	1	p	0.52291
73.9964	0.2	grand	8	noun	phrase	2	8	nomatch	doit	-1	1	p	0.52291
74.19629999999998	0.0	+	8	noun	phrase	2	9	nomatch	doit	-1	1	p	0.52291
74.59609999999998	0.2	rocher	8	noun	phrase	2	10	nomatch	doit	-1	1	p	0.52291
74.7961	0.0	+	8	noun	phrase	2	11	nomatch	doit	-1	1	p	0.52291
75.1959	0.0	+	8	noun	phrase	2	12	nomatch	doit	-1	1	p	0.52291
77.19569999999999	0.0	DOIT	8	noun	phrase	2	13	nomatch	doit	-1	1	p	0.52291
77.7781	0.0	+	8	noun	phrase	2	14	nomatch	doit	-1	1	p	0.52291
77.71859999999998	0.0	[response]	8	noun	phrase	2	15	nomatch	doit	-1	1	p	0.52291
79.59389999999999	0.0	+	9	noun	list	1	1	match	tard	5	1	y	0.36956
80.14419999999998	0.2	zjqd	9	noun	list	1	2	match	tard	5	1	y	0.36956
80.34379999999999	0.0	+	9	noun	list	1	3	match	tard	5	1	y	0.36956
80.7438	0.2	hsnx	9	noun	list	1	4	match	tard	5	1	y	0.36956
80.9434	0.0	+	9	noun	list	1	5	match	tard	5	1	y	0.36956
81.3432	0.2	glhb	9	noun	list	1	6	match	tard	5	1	y	0.36956
81.54309999999998	0.0	+	9	noun	list	1	7	match	tard	5	1	y	0.36956
81.94289999999998	0.2	jnpgfxm	9	noun	list	1	8	match	tard	5	1	y	0.36956
82.1428	0.0	+	9	noun	list	1	9	match	tard	5	1	y	0.36956
82.5426	0.2	tard	9	noun	list	1	10	match	tard	5	1	y	0.36956
82.74259999999998	0.0	+	9	noun	list	1	11	match	tard	5	1	y	0.36956
83.14239999999998	0.0	+	9	noun	list	1	12	match	tard	5	1	y	0.36956
85.14149999999998	0.0	TARD	9	noun	list	1	13	match	tard	5	1	y	0.36956
85.57469999999998	0.0	+	9	noun	list	1	14	match	tard	5	1	y	0.36956
85.5111	0.0	[response]	9	noun	list	1	15	match	tard	5	1	y	0.36956
87.54039999999998	0.0	+	10	noun	list	1	1	match	rocher	5	1	y	0.40889
88.09019999999998	0.2	dlk	10	noun	list	1	2	match	rocher	5	1	y	0.40889
88.2901	0.0	+	10	noun	list	1	3	match	rocher	5	1	y	0.40889
88.69	0.2	kxqr	10	noun	list	1	4	match	rocher	5	1	y	0.40889
88.88989999999998	0.0	+	10	noun	list	1	5	match	rocher	5	1	y	0.40889
89.28969999999998	0.2	vzgp	10	noun	list	1	6	match	rocher	5	1	y	0.40889
89.4896	0.0	+	10	noun	list	1	7	match	rocher	5	1	y	0.40889
89.8894	0.2	svt	10	noun	list	1	8	match	rocher	5	1	y	0.40889
90.08929999999998	0.0	+	10	noun	list	1	9	match	rocher	5	1	y	0.40889
90.48909999999998	0.2	rocher	10	noun	list	1	10	match	rocher	5	1	y	0.40889
90.6893	0.0	+	10	noun	list	1	11	match	rocher	5	1	y	0.40889
91.08939999999998	0.0	+	10	noun	list	1	12	match	rocher	5	1	y	0.40889
93.088	0.0	ROCHER	10	noun	list	1	13	match	rocher	5	1	y	0.40889
93.55449999999999	0.0	+	10	noun	list	1	14	match	rocher	5	1	y	0.40889
93.49690000000001	0.0	[response]	10	noun	list	1	15	match	rocher	5	1	y	0.40889
95.48689999999999	0.0	+	11	noun	phrase	1	1	nomatch	blanc	-1	1	p	0.7272500000000001
96.0367	0.2	wcf	11	noun	phrase	1	2	nomatch	blanc	-1	1	p	0.7272500000000001
96.23659999999998	0.0	+	11	noun	phrase	1	3	nomatch	blanc	-1	1	p	0.7272500000000001
96.63639999999998	0.2	hsnx	11	noun	phrase	1	4	nomatch	blanc	-1	1	p	0.7272500000000001
96.8364	0.0	+	11	noun	phrase	1	5	nomatch	blanc	-1	1	p	0.7272500000000001
97.25319999999999	0.2	hfs	11	noun	phrase	1	6	nomatch	blanc	-1	1	p	0.7272500000000001
97.43619999999999	0.0	+	11	noun	phrase	1	7	nomatch	blanc	-1	1	p	0.7272500000000001
97.83589999999998	0.2	knshjdqz	11	noun	phrase	1	8	nomatch	blanc	-1	1	p	0.7272500000000001
98.0358	0.0	+	11	noun	phrase	1	9	nomatch	blanc	-1	1	p	0.7272500000000001
98.4357	0.2	grand	11	noun	phrase	1	10	nomatch	blanc	-1	1	p	0.7272500000000001
98.63559999999998	0.0	+	11	noun	phrase	1	11	nomatch	blanc	-1	1	p	0.7272500000000001
99.03539999999998	0.0	+	11	noun	phrase	1	12	nomatch	blanc	-1	1	p	0.7272500000000001
101.03449999999998	0.0	BLANC	11	noun	phrase	1	13	nomatch	blanc	-1	1	p	0.7272500000000001
101.85079999999999	0.0	+	11	noun	phrase	1	14	nomatch	blanc	-1	1	p	0.7272500000000001
101.7618	0.0	[response]	11	noun	phrase	1	15	nomatch	blanc	-1	1	p	0.7272500000000001
103.45009999999999	0.0	+	12	noun	phrase	3	1	match	mon	3	0	p	0.47031
103.9999	0.2	wmrlfjh	12	noun	phrase	3	2	match	mon	3	0	p	0.47031
104.19979999999998	0.0	+	12	noun	phrase	3	3	match	mon	3	0	p	0.47031
104.59959999999998	0.2	dtsr	12	noun	phrase	3	4	match	mon	3	0	p	0.47031
104.7995	0.0	+	12	noun	phrase	3	5	match	mon	3	0	p	0.47031
105.19979999999998	0.2	mon	12	noun	phrase	3	6	match	mon	3	0	p	0.47031
105.3997	0.0	+	12	noun	phrase	3	7	match	mon	3	0	p	0.47031
105.7995	0.2	cendrier	12	noun	phrase	3	8	match	mon	3	0	p	0.47031
106.01589999999999	0.0	+	12	noun	phrase	3	9	match	mon	3	0	p	0.47031
106.41569999999999	0.2	vert	12	noun	phrase	3	10	match	mon	3	0	p	0.47031
106.59879999999998	0.0	+	12	noun	phrase	3	11	match	mon	3	0	p	0.47031
106.99859999999998	0.0	+	12	noun	phrase	3	12	match	mon	3	0	p	0.47031
108.9982	0.0	MON	12	noun	phrase	3	13	match	mon	3	0	p	0.47031
109.58079999999998	0.0	+	12	noun	phrase	3	14	match	mon	3	0	p	0.47031
109.46849999999998	0.0	[response]	12	noun	phrase	3	15	match	mon	3	0	p	0.47031
111.39659999999998	0.0	+	13	noun	list	1	1	match	clavier	5	1	y	0.33952
111.9469	0.2	xdmz	13	noun	list	1	2	match	clavier	5	1	y	0.33952
112.14689999999999	0.0	+	13	noun	list	1	3	match	clavier	5	1	y	0.33952
112.56309999999999	0.2	rmjd	13	noun	list	1	4	match	clavier	5	1	y	0.33952
112.74599999999998	0.0	+	13	noun	list	1	5	match	clavier	5	1	y	0.33952
113.14589999999998	0.2	ldk	13	noun	list	1	6	match	clavier	5	1	y	0.33952
113.3458	0.0	+	13	noun	list	1	7	match	clavier	5	1	y	0.33952
113.7456	0.2	mkfgxzbc	13	noun	list	1	8	match	clavier	5	1	y	0.33952
113.94549999999998	0.0	+	13	noun	list	1	9	match	clavier	5	1	y	0.33952
114.34529999999998	0.2	clavier	13	noun	list	1	10	match	clavier	5	1	y	0.33952
114.5452	0.0	+	13	noun	list	1	11	match	clavier	5	1	y	0.33952
114.9451	0.0	+	13	noun	list	1	12	match	clavier	5	1	y	0.33952
116.9614	0.0	CLAVIER	13	noun	list	1	13	match	clavier	5	1	y	0.33952
117.42769999999999	0.0	+	13	noun	list	1	14	match	clavier	5	1	y	0.33952
117.30090000000001	0.0	[response]	13	noun	list	1	15	match	clavier	5	1	y	0.33952
119.34309999999999	0.0	+	14	noun	phrase	2	1	match	petit	4	1	y	0.64795
119.8929	0.2	lxhq	14	noun	phrase	2	2	match	petit	4	1	y	0.64795
120.09279999999998	0.0	+	14	noun	phrase	2	3	match	petit	4	1	y	0.64795
120.49259999999998	0.2	lnmr	14	noun	phrase	2	4	match	petit	4	1	y	0.64795
120.6925	0.0	+	14	noun	phrase	2	5	match	petit	4	1	y	0.64795
121.0924	0.2	wvrh	14	noun	phrase	2	6	match	petit	4	1	y	0.64795
121.29229999999998	0.0	+	14	noun	phrase	2	7	match	petit	4	1	y	0.64795
121.6925	0.2	petit	14	noun	phrase	2	8	match	petit	4	1	y	0.64795
121.89269999999999	0.0	+	14	noun	phrase	2	9	match	petit	4	1	y	0.64795
122.2926	0.2	casier	14	noun	phrase	2	10	match	petit	4	1	y	0.64795
122.50899999999999	0.0	+	14	noun	phrase	2	11	match	petit	4	1	y	0.64795
122.90869999999998	0.0	+	14	noun	phrase	2	12	match	petit	4	1	y	0.64795
124.89069999999998	0.0	PETIT	14	noun	phrase	2	13	match	petit	4	1	y	0.64795
125.59039999999999	0.0	+	14	noun	phrase	2	14	match	petit	4	1	y	0.64795
125.5386	0.0	[response]	14	noun	phrase	2	15	match	petit	4	1	y	0.64795
135.28609999999998	0.0	+	15	noun	list	4	1	match	mon	3	1	y	0.66625
135.83589999999998	0.2	skpxbnc	15	noun	list	4	2	match	mon	3	1	y	0.66625
136.0358	0.0	+	15	noun	list	4	3	match	mon	3	1	y	0.66625
136.4363	0.2	luc	15	noun	list	4	4	match	mon	3	1	y	0.66625
136.6358	0.0	+	15	noun	list	4	5	match	mon	3	1	y	0.66625
137.05239999999998	0.2	mon	15	noun	list	4	6	match	mon	3	1	y	0.66625
137.2355	0.0	+	15	noun	list	4	7	match	mon	3	1	y	0.66625
137.63569999999999	0.2	trop	15	noun	list	4	8	match	mon	3	1	y	0.66625
137.83499999999998	0.0	+	15	noun	list	4	9	match	mon	3	1	y	0.66625
138.23479999999998	0.2	tablier	15	noun	list	4	10	match	mon	3	1	y	0.66625
138.4347	0.0	+	15	noun	list	4	11	match	mon	3	1	y	0.66625
138.8346	0.0	+	15	noun	list	4	12	match	mon	3	1	y	0.66625
140.83409999999998	0.0	MON	15	noun	list	4	13	match	mon	3	1	y	0.66625
141.5667	0.0	+	15	noun	list	4	14	match	mon	3	1	y	0.66625
141.5004	0.0	[response]	15	noun	list	4	15	match	mon	3	1	y	0.66625
143.24929999999998	0.0	+	16	noun	phrase	4	1	match	sablier	4	1	y	0.53494
143.7994	0.2	pbqzgmn	16	noun	phrase	4	2	match	sablier	4	1	y	0.53494
143.999	0.0	+	16	noun	phrase	4	3	match	sablier	4	1	y	0.53494
144.39939999999999	0.2	vers	16	noun	phrase	4	4	match	sablier	4	1	y	0.53494
144.59869999999998	0.0	+	16	noun	phrase	4	5	match	sablier	4	1	y	0.53494
144.99849999999998	0.2	son	16	noun	phrase	4	6	match	sablier	4	1	y	0.53494
145.1984	0.0	+	16	noun	phrase	4	7	match	sablier	4	1	y	0.53494
145.5983	0.2	sablier	16	noun	phrase	4	8	match	sablier	4	1	y	0.53494
145.79819999999998	0.0	+	16	noun	phrase	4	9	match	sablier	4	1	y	0.53494
146.1987	0.2	blanc	16	noun	phrase	4	10	match	sablier	4	1	y	0.53494
146.3979	0.0	+	16	noun	phrase	4	11	match	sablier	4	1	y	0.53494
146.7977	0.0	+	16	noun	phrase	4	12	match	sablier	4	1	y	0.53494
148.79749999999999	0.0	SABLIER	16	noun	phrase	4	13	match	sablier	4	1	y	0.53494
149.39659999999998	0.0	+	16	noun	phrase	4	14	match	sablier	4	1	y	0.53494
149.33239999999998	0.0	[response]	16	noun	phrase	4	15	match	sablier	4	1	y	0.53494
151.1961	0.0	+	17	noun	list	2	1	nomatch	mieux	-1	1	p	0.61014
151.7455	0.2	pxghdv	17	noun	list	2	2	nomatch	mieux	-1	1	p	0.61014
151.94549999999998	0.0	+	17	noun	list	2	3	nomatch	mieux	-1	1	p	0.61014
152.34529999999998	0.2	lnpz	17	noun	list	2	4	nomatch	mieux	-1	1	p	0.61014
152.56199999999998	0.0	+	17	noun	list	2	5	nomatch	mieux	-1	1	p	0.61014
152.94549999999998	0.2	ldk	17	noun	list	2	6	nomatch	mieux	-1	1	p	0.61014
153.16209999999998	0.0	+	17	noun	list	2	7	nomatch	mieux	-1	1	p	0.61014
153.5454	0.2	plus	17	noun	list	2	8	nomatch	mieux	-1	1	p	0.61014
153.762	0.0	+	17	noun	list	2	9	nomatch	mieux	-1	1	p	0.61014
154.1445	0.2	cendrier	17	noun	list	2	10	nomatch	mieux	-1	1	p	0.61014
154.34439999999998	0.0	+	17	noun	list	2	11	nomatch	mieux	-1	1	p	0.61014
154.74419999999998	0.0	+	17	noun	list	2	12	nomatch	mieux	-1	1	p	0.61014
156.74339999999998	0.0	MIEUX	17	noun	list	2	13	nomatch	mieux	-1	1	p	0.61014
157.4101	0.0	+	17	noun	list	2	14	nomatch	mieux	-1	1	p	0.61014
157.3535	0.0	[response]	17	noun	list	2	15	nomatch	mieux	-1	1	p	0.61014
159.14229999999998	0.0	+	18	verb	list	1	1	match	vert	5	1	y	0.58585
159.69199999999998	0.2	lgq	18	verb	list	1	2	match	vert	5	1	y	0.58585
159.892	0.0	+	18	verb	list	1	3	match	vert	5	1	y	0.58585
160.2918	0.2	hgvw	18	verb	list	1	4	match	vert	5	1	y	0.58585
160.4919	0.0	+	18	verb	list	1	5	match	vert	5	1	y	0.58585
160.89149999999998	0.2	hfs	18	verb	list	1	6	match	vert	5	1	y	0.58585
161.0914	0.0	+	18	verb	list	1	7	match	vert	5	1	y	0.58585
161.4913	0.2	zxvbjts	18	verb	list	1	8	match	vert	5	1	y	0.58585
161.69119999999998	0.0	+	18	verb	list	1	9	match	vert	5	1	y	0.58585
162.0913	0.2	vert	18	verb	list	1	10	match	vert	5	1	y	0.58585
162.2909	0.0	+	18	verb	list	1	11	match	vert	5	1	y	0.58585
162.7078	0.0	+	18	verb	list	1	12	match	vert	5	1	y	0.58585
164.6906	0.0	VERT	18	verb	list	1	13	match	vert	5	1	y	0.58585
165.3396	0.0	+	18	verb	list	1	14	match	vert	5	1	y	0.58585
165.2764	0.0	[response]	18	verb	list	1	15	match	vert	5	1	y	0.58585
167.0888	0.0	+	19	noun	list	4	1	nomatch	rouler	-1	1	p	0.63902
167.6386	0.2	fps	19	noun	list	4	2	nomatch	rouler	-1	1	p	0.63902
167.83849999999998	0.0	+	19	noun	list	4	3	nomatch	rouler	-1	1	p	0.63902
168.2386	0.2	sur	19	noun	list	4	4	nomatch	rouler	-1	1	p	0.63902
168.4551	0.0	+	19	noun	list	4	5	nomatch	rouler	-1	1	p	0.63902
168.838	0.2	va	19	noun	list	4	6	nomatch	rouler	-1	1	p	0.63902
169.03789999999998	0.0	+	19	noun	list	4	7	nomatch	rouler	-1	1	p	0.63902
169.43779999999998	0.2	sablier	19	noun	list	4	8	nomatch	rouler	-1	1	p	0.63902
169.6377	0.0	+	19	noun	list	4	9	nomatch	rouler	-1	1	p	0.63902
170.0375	0.2	tôt	19	noun	list	4	10	nomatch	rouler	-1	1	p	0.63902
170.23739999999998	0.0	+	19	noun	list	4	11	nomatch	rouler	-1	1	p	0.63902
170.63719999999998	0.0	+	19	noun	list	4	12	nomatch	rouler	-1	1	p	0.63902
172.63639999999998	0.0	ROULER	19	noun	list	4	13	nomatch	rouler	-1	1	p	0.63902
173.3361	0.0	+	19	noun	list	4	14	nomatch	rouler	-1	1	p	0.63902
173.2754	0.0	[response]	19	noun	list	4	15	nomatch	rouler	-1	1	p	0.63902
175.03529999999998	0.0	+	20	noun	phrase	1	1	nomatch	voilier	-1	1	p	0.59633
175.58509999999998	0.2	sltk	20	noun	phrase	1	2	nomatch	voilier	-1	1	p	0.59633
175.785	0.0	+	20	noun	phrase	1	3	nomatch	voilier	-1	1	p	0.59633
176.1848	0.2	hsnx	20	noun	phrase	1	4	nomatch	voilier	-1	1	p	0.59633
176.38469999999998	0.0	+	20	noun	phrase	1	5	nomatch	voilier	-1	1	p	0.59633
176.78449999999998	0.2	hfs	20	noun	phrase	1	6	nomatch	voilier	-1	1	p	0.59633
176.9845	0.0	+	20	noun	phrase	1	7	nomatch	voilier	-1	1	p	0.59633
177.38459999999998	0.2	lqsg	20	noun	phrase	1	8	nomatch	voilier	-1	1	p	0.59633
177.5846	0.0	+	20	noun	phrase	1	9	nomatch	voilier	-1	1	p	0.59633
177.98399999999998	0.2	tablier	20	noun	phrase	1	10	nomatch	voilier	-1	1	p	0.59633
178.1839	0.0	+	20	noun	phrase	1	11	nomatch	voilier	-1	1	p	0.59633
178.5837	0.0	+	20	noun	phrase	1	12	nomatch	voilier	-1	1	p	0.59633
180.59949999999998	0.0	VOILIER	20	noun	phrase	1	13	nomatch	voilier	-1	1	p	0.59633
181.2826	0.0	+	20	noun	phrase	1	14	nomatch	voilier	-1	1	p	0.59633
181.1958	0.0	[response]	20	noun	phrase	1	15	nomatch	voilier	-1	1	p	0.59633
182.99849999999998	0.0	+	21	noun	phrase	4	1	nomatch	vieux	-1	1	p	0.53968
183.54819999999998	0.2	xvsj	21	noun	phrase	4	2	nomatch	vieux	-1	1	p	0.53968
183.7481	0.0	+	21	noun	phrase	4	3	nomatch	vieux	-1	1	p	0.53968
184.14849999999998	0.2	sur	21	noun	phrase	4	4	nomatch	vieux	-1	1	p	0.53968
184.3484	0.0	+	21	noun	phrase	4	5	nomatch	vieux	-1	1	p	0.53968
184.7644	0.2	mon	21	noun	phrase	4	6	nomatch	vieux	-1	1	p	0.53968
184.9476	0.0	+	21	noun	phrase	4	7	nomatch	vieux	-1	1	p	0.53968
185.3474	0.2	nouveau	21	noun	phrase	4	8	nomatch	vieux	-1	1	p	0.53968
185.54739999999998	0.0	+	21	noun	phrase	4	9	nomatch	vieux	-1	1	p	0.53968
185.94719999999998	0.2	sablier	21	noun	phrase	4	10	nomatch	vieux	-1	1	p	0.53968
186.1471	0.0	+	21	noun	phrase	4	11	nomatch	vieux	-1	1	p	0.53968
186.5469	0.0	+	21	noun	phrase	4	12	nomatch	vieux	-1	1	p	0.53968
188.546	0.0	VIEUX	21	noun	phrase	4	13	nomatch	vieux	-1	1	p	0.53968
189.14579999999998	0.0	+	21	noun	phrase	4	14	nomatch	vieux	-1	1	p	0.53968
189.08570000000003	0.0	[response]	21	noun	phrase	4	15	nomatch	vieux	-1	1	p	0.53968
190.945	0.0	+	22	verb	phrase	4	1	match	mieux	4	1	y	0.57196
191.4947	0.2	mtxs	22	verb	phrase	4	2	match	mieux	4	1	y	0.57196
191.69469999999998	0.0	+	22	verb	phrase	4	3	match	mieux	4	1	y	0.57196
192.09449999999998	0.2	jade	22	verb	phrase	4	4	match	mieux	4	1	y	0.57196
192.2944	0.0	+	22	verb	phrase	4	5	match	mieux	4	1	y	0.57196
192.69469999999998	0.2	peut	22	verb	phrase	4	6	match	mieux	4	1	y	0.57196
192.91119999999998	0.0	+	22	verb	phrase	4	7	match	mieux	4	1	y	0.57196
193.2941	0.2	mieux	22	verb	phrase	4	8	match	mieux	4	1	y	0.57196
193.4946	0.0	+	22	verb	phrase	4	9	match	mieux	4	1	y	0.57196
193.9108	0.2	parader	22	verb	phrase	4	10	match	mieux	4	1	y	0.57196
194.09359999999998	0.0	+	22	verb	phrase	4	11	match	mieux	4	1	y	0.57196
194.49339999999998	0.0	+	22	verb	phrase	4	12	match	mieux	4	1	y	0.57196
196.49249999999998	0.0	MIEUX	22	verb	phrase	4	13	match	mieux	4	1	y	0.57196
197.1256	0.0	+	22	verb	phrase	4	14	match	mieux	4	1	y	0.57196
197.06449999999998	0.0	[response]	22	verb	phrase	4	15	match	mieux	4	1	y	0.57196
198.89149999999998	0.0	+	23	noun	list	4	1	nomatch	petit	-1	1	p	0.73345
199.44119999999998	0.2	dqmn	23	noun	list	4	2	nomatch	petit	-1	1	p	0.73345
199.6411	0.0	+	23	noun	list	4	3	nomatch	petit	-1	1	p	0.73345
200.041	0.2	sous	23	noun	list	4	4	nomatch	petit	-1	1	p	0.73345
200.24089999999998	0.0	+	23	noun	list	4	5	nomatch	petit	-1	1	p	0.73345
200.65759999999997	0.2	va	23	noun	list	4	6	nomatch	petit	-1	1	p	0.73345
200.84059999999997	0.0	+	23	noun	list	4	7	nomatch	petit	-1	1	p	0.73345
201.2411	0.2	rocher	23	noun	list	4	8	nomatch	petit	-1	1	p	0.73345
201.4406	0.0	+	23	noun	list	4	9	nomatch	petit	-1	1	p	0.73345
201.8402	0.2	tôt	23	noun	list	4	10	nomatch	petit	-1	1	p	0.73345
202.04009999999997	0.0	+	23	noun	list	4	11	nomatch	petit	-1	1	p	0.73345
202.4399	0.0	+	23	noun	list	4	12	nomatch	petit	-1	1	p	0.73345
204.456	0.0	PETIT	23	noun	list	4	13	nomatch	petit	-1	1	p	0.73345
205.2553	0.0	+	23	noun	list	4	14	nomatch	petit	-1	1	p	0.73345
205.1894	0.0	[response]	23	noun	list	4	15	nomatch	petit	-1	1	p	0.73345
206.838	0.0	+	24	noun	list	2	1	nomatch	leur	-1	1	p	0.88391
207.3883	0.2	kdnbhgj	24	noun	list	2	2	nomatch	leur	-1	1	p	0.88391
207.60479999999998	0.0	+	24	noun	list	2	3	nomatch	leur	-1	1	p	0.88391
207.98779999999996	0.2	njr	24	noun	list	2	4	nomatch	leur	-1	1	p	0.88391
208.1878	0.0	+	24	noun	list	2	5	nomatch	leur	-1	1	p	0.88391
208.58739999999997	0.2	vzgp	24	noun	list	2	6	nomatch	leur	-1	1	p	0.88391
208.78709999999998	0.0	+	24	noun	list	2	7	nomatch	leur	-1	1	p	0.88391
209.1869	0.2	grenier	24	noun	list	2	8	nomatch	leur	-1	1	p	0.88391
209.3869	0.0	+	24	noun	list	2	9	nomatch	leur	-1	1	p	0.88391
209.78669999999997	0.2	tard	24	noun	list	2	10	nomatch	leur	-1	1	p	0.88391
209.98659999999998	0.0	+	24	noun	list	2	11	nomatch	leur	-1	1	p	0.88391
210.3864	0.0	+	24	noun	list	2	12	nomatch	leur	-1	1	p	0.88391
212.3855	0.0	LEUR	24	noun	list	2	13	nomatch	leur	-1	1	p	0.88391
213.33509999999998	0.0	+	24	noun	list	2	14	nomatch	leur	-1	1	p	0.88391
213.2694	0.0	[response]	24	noun	list	2	15	nomatch	leur	-1	1	p	0.88391
214.7845	0.0	+	25	noun	list	4	1	nomatch	trop	-1	1	p	0.72679
215.3343	0.2	ndrtkm	25	noun	list	4	2	nomatch	trop	-1	1	p	0.72679
215.53419999999997	0.0	+	25	noun	list	4	3	nomatch	trop	-1	1	p	0.72679
215.934	0.2	luc	25	noun	list	4	4	nomatch	trop	-1	1	p	0.72679
216.1339	0.0	+	25	noun	list	4	5	nomatch	trop	-1	1	p	0.72679
216.55069999999998	0.2	mon	25	noun	list	4	6	nomatch	trop	-1	1	p	0.72679
216.73369999999997	0.0	+	25	noun	list	4	7	nomatch	trop	-1	1	p	0.72679
217.15059999999997	0.2	plus	25	noun	list	4	8	nomatch	trop	-1	1	p	0.72679
217.3672	0.0	+	25	noun	list	4	9	nomatch	trop	-1	1	p	0.72679
217.74979999999996	0.2	clavier	25	noun	list	4	10	nomatch	trop	-1	1	p	0.72679
217.9498	0.0	+	25	noun	list	4	11	nomatch	trop	-1	1	p	0.72679
218.34959999999998	0.0	+	25	noun	list	4	12	nomatch	trop	-1	1	p	0.72679
220.34869999999998	0.0	TROP	25	noun	list	4	13	nomatch	trop	-1	1	p	0.72679
221.1317	0.0	+	25	noun	list	4	14	nomatch	trop	-1	1	p	0.72679
221.0755	0.0	[response]	25	noun	list	4	15	nomatch	trop	-1	1	p	0.72679
222.74769999999998	0.0	+	26	verb	phrase	3	1	nomatch	pour	-1	1	p	0.5603000000000001
223.2974	0.2	hnlzq	26	verb	phrase	3	2	nomatch	pour	-1	1	p	0.5603000000000001
223.49729999999997	0.0	+	26	verb	phrase	3	3	nomatch	pour	-1	1	p	0.5603000000000001
223.8971	0.2	dsv	26	verb	phrase	3	4	nomatch	pour	-1	1	p	0.5603000000000001
224.09709999999998	0.0	+	26	verb	phrase	3	5	nomatch	pour	-1	1	p	0.5603000000000001
224.4969	0.2	va	26	verb	phrase	3	6	nomatch	pour	-1	1	p	0.5603000000000001
224.69679999999997	0.0	+	26	verb	phrase	3	7	nomatch	pour	-1	1	p	0.5603000000000001
225.0966	0.2	jongler	26	verb	phrase	3	8	nomatch	pour	-1	1	p	0.5603000000000001
225.2965	0.0	+	26	verb	phrase	3	9	nomatch	pour	-1	1	p	0.5603000000000001
225.6964	0.2	loin	26	verb	phrase	3	10	nomatch	pour	-1	1	p	0.5603000000000001
225.89669999999998	0.0	+	26	verb	phrase	3	11	nomatch	pour	-1	1	p	0.5603000000000001
226.29619999999997	0.0	+	26	verb	phrase	3	12	nomatch	pour	-1	1	p	0.5603000000000001
228.2952	0.0	POUR	26	verb	phrase	3	13	nomatch	pour	-1	1	p	0.5603000000000001
228.9116	0.0	+	26	verb	phrase	3	14	nomatch	pour	-1	1	p	0.5603000000000001
228.85550000000003	0.0	[response]	26	verb	phrase	3	15	nomatch	pour	-1	1	p	0.5603000000000001
238.80799999999996	0.0	+	27	verb	list	4	1	match	paul	2	1	y	0.6853600000000001
239.2404	0.2	vkqjcn	27	verb	list	4	2	match	paul	2	1	y	0.6853600000000001
239.4403	0.0	+	27	verb	list	4	3	match	paul	2	1	y	0.6853600000000001
239.84009999999998	0.2	paul	27	verb	list	4	4	match	paul	2	1	y	0.6853600000000001
240.04	0.0	+	27	verb	list	4	5	match	paul	2	1	y	0.6853600000000001
240.4399	0.2	son	27	verb	list	4	6	match	paul	2	1	y	0.6853600000000001
240.6398	0.0	+	27	verb	list	4	7	match	paul	2	1	y	0.6853600000000001
241.03959999999998	0.2	rouler	27	verb	list	4	8	match	paul	2	1	y	0.6853600000000001
241.2395	0.0	+	27	verb	list	4	9	match	paul	2	1	y	0.6853600000000001
241.63929999999996	0.2	blanc	27	verb	list	4	10	match	paul	2	1	y	0.6853600000000001
241.8393	0.0	+	27	verb	list	4	11	match	paul	2	1	y	0.6853600000000001
242.23909999999998	0.0	+	27	verb	list	4	12	match	paul	2	1	y	0.6853600000000001
244.2388	0.0	PAUL	27	verb	list	4	13	match	paul	2	1	y	0.6853600000000001
244.9879	0.0	+	27	verb	list	4	14	match	paul	2	1	y	0.6853600000000001
244.9242	0.0	[response]	27	verb	list	4	15	match	paul	2	1	y	0.6853600000000001
246.6371	0.0	+	28	noun	list	3	1	nomatch	grand	-1	1	p	0.65439
247.1869	0.2	phbg	28	noun	list	3	2	nomatch	grand	-1	1	p	0.65439
247.38679999999997	0.0	+	28	noun	list	3	3	nomatch	grand	-1	1	p	0.65439
247.7866	0.2	kxqr	28	noun	list	3	4	nomatch	grand	-1	1	p	0.65439
247.98659999999998	0.0	+	28	noun	list	3	5	nomatch	grand	-1	1	p	0.65439
248.3864	0.2	va	28	noun	list	3	6	nomatch	grand	-1	1	p	0.65439
248.58629999999997	0.0	+	28	noun	list	3	7	nomatch	grand	-1	1	p	0.65439
248.98659999999998	0.2	voilier	28	noun	list	3	8	nomatch	grand	-1	1	p	0.65439
249.18659999999997	0.0	+	28	noun	list	3	9	nomatch	grand	-1	1	p	0.65439
249.5864	0.2	tôt	28	noun	list	3	10	nomatch	grand	-1	1	p	0.65439
249.80279999999996	0.0	+	28	noun	list	3	11	nomatch	grand	-1	1	p	0.65439
250.1863	0.0	+	28	noun	list	3	12	nomatch	grand	-1	1	p	0.65439
252.1847	0.0	GRAND	28	noun	list	3	13	nomatch	grand	-1	1	p	0.65439
253.01769999999996	0.0	+	28	noun	list	3	14	nomatch	grand	-1	1	p	0.65439
252.8391	0.0	[response]	28	noun	list	3	15	nomatch	grand	-1	1	p	0.65439
254.5837	0.0	+	29	noun	list	3	1	match	plus	4	1	y	0.68153
255.15009999999998	0.2	vmwc	29	noun	list	3	2	match	plus	4	1	y	0.68153
255.35	0.0	+	29	noun	list	3	3	match	plus	4	1	y	0.68153
255.74979999999996	0.2	rtgc	29	noun	list	3	4	match	plus	4	1	y	0.68153
255.94969999999998	0.0	+	29	noun	list	3	5	match	plus	4	1	y	0.68153
256.34950000000003	0.2	mon	29	noun	list	3	6	match	plus	4	1	y	0.68153
256.56640000000004	0.0	+	29	noun	list	3	7	match	plus	4	1	y	0.68153
256.9667	0.2	plus	29	noun	list	3	8	match	plus	4	1	y	0.68153
257.1498	0.0	+	29	noun	list	3	9	match	plus	4	1	y	0.68153
257.5496	0.2	tablier	29	noun	list	3	10	match	plus	4	1	y	0.68153
257.76570000000004	0.0	+	29	noun	list	3	11	match	plus	4	1	y	0.68153
258.1488	0.0	+	29	noun	list	3	12	match	plus	4	1	y	0.68153
260.1479	0.0	PLUS	29	noun	list	3	13	match	plus	4	1	y	0.68153
260.8809	0.0	+	29	noun	list	3	14	match	plus	4	1	y	0.68153
260.8294	0.0	[response]	29	noun	list	3	15	match	plus	4	1	y	0.68153
262.56350000000003	0.0	+	30	noun	phrase	3	1	nomatch	grand	-1	1	p	0.58665
263.0966	0.2	nrsl	30	noun	phrase	3	2	nomatch	grand	-1	1	p	0.58665
263.29650000000004	0.0	+	30	noun	phrase	3	3	nomatch	grand	-1	1	p	0.58665
263.6963	0.2	lnmr	30	noun	phrase	3	4	nomatch	grand	-1	1	p	0.58665
263.8962	0.0	+	30	noun	phrase	3	5	nomatch	grand	-1	1	p	0.58665
264.296	0.2	leur	30	noun	phrase	3	6	nomatch	grand	-1	1	p	0.58665
264.49600000000004	0.0	+	30	noun	phrase	3	7	nomatch	grand	-1	1	p	0.58665
264.8958	0.2	sablier	30	noun	phrase	3	8	nomatch	grand	-1	1	p	0.58665
265.0957	0.0	+	30	noun	phrase	3	9	nomatch	grand	-1	1	p	0.58665
265.4955	0.2	noir	30	noun	phrase	3	10	nomatch	grand	-1	1	p	0.58665
265.6954	0.0	+	30	noun	phrase	3	11	nomatch	grand	-1	1	p	0.58665
266.0953	0.0	+	30	noun	phrase	3	12	nomatch	grand	-1	1	p	0.58665
268.0944	0.0	GRAND	30	noun	phrase	3	13	nomatch	grand	-1	1	p	0.58665
268.7441	0.0	+	30	noun	phrase	3	14	nomatch	grand	-1	1	p	0.58665
268.68100000000004	0.0	[response]	30	noun	phrase	3	15	nomatch	grand	-1	1	p	0.58665
270.49330000000003	0.0	+	31	noun	list	2	1	match	rocher	5	1	y	0.45132
271.04310000000004	0.2	tldf	31	noun	list	2	2	match	rocher	5	1	y	0.45132
271.243	0.0	+	31	noun	list	2	3	match	rocher	5	1	y	0.45132
271.64320000000004	0.2	lnpz	31	noun	list	2	4	match	rocher	5	1	y	0.45132
271.8433	0.0	+	31	noun	list	2	5	match	rocher	5	1	y	0.45132
272.2431	0.2	wvrh	31	noun	list	2	6	match	rocher	5	1	y	0.45132
272.4597	0.0	+	31	noun	list	2	7	match	rocher	5	1	y	0.45132
272.8423	0.2	plus	31	noun	list	2	8	match	rocher	5	1	y	0.45132
273.04220000000004	0.0	+	31	noun	list	2	9	match	rocher	5	1	y	0.45132
273.442	0.2	rocher	31	noun	list	2	10	match	rocher	5	1	y	0.45132
273.6419	0.0	+	31	noun	list	2	11	match	rocher	5	1	y	0.45132
274.0418	0.0	+	31	noun	list	2	12	match	rocher	5	1	y	0.45132
276.0582	0.0	ROCHER	31	noun	list	2	13	match	rocher	5	1	y	0.45132
276.574	0.0	+	31	noun	list	2	14	match	rocher	5	1	y	0.45132
276.50950000000006	0.0	[response]	31	noun	list	2	15	match	rocher	5	1	y	0.45132
286.4363	0.0	+	32	verb	phrase	1	1	nomatch	cendrier	-1	1	p	0.5708800000000002
286.9861	0.2	jqcb	32	verb	phrase	1	2	nomatch	cendrier	-1	1	p	0.5708800000000002
287.18600000000004	0.0	+	32	verb	phrase	1	3	nomatch	cendrier	-1	1	p	0.5708800000000002
287.5858	0.2	dgpc	32	verb	phrase	1	4	nomatch	cendrier	-1	1	p	0.5708800000000002
287.7857	0.0	+	32	verb	phrase	1	5	nomatch	cendrier	-1	1	p	0.5708800000000002
288.1855	0.2	jq	32	verb	phrase	1	6	nomatch	cendrier	-1	1	p	0.5708800000000002
288.3854	0.0	+	32	verb	phrase	1	7	nomatch	cendrier	-1	1	p	0.5708800000000002
288.7853	0.2	cfmhptg	32	verb	phrase	1	8	nomatch	cendrier	-1	1	p	0.5708800000000002
288.9852	0.0	+	32	verb	phrase	1	9	nomatch	cendrier	-1	1	p	0.5708800000000002
289.385	0.2	tôt	32	verb	phrase	1	10	nomatch	cendrier	-1	1	p	0.5708800000000002
289.5849	0.0	+	32	verb	phrase	1	11	nomatch	cendrier	-1	1	p	0.5708800000000002
289.9855	0.0	+	32	verb	phrase	1	12	nomatch	cendrier	-1	1	p	0.5708800000000002
291.9839	0.0	CENDRIER	32	verb	phrase	1	13	nomatch	cendrier	-1	1	p	0.5708800000000002
292.61690000000004	0.0	+	32	verb	phrase	1	14	nomatch	cendrier	-1	1	p	0.5708800000000002
292.5547	0.0	[response]	32	verb	phrase	1	15	nomatch	cendrier	-1	1	p	0.5708800000000002
294.39950000000005	0.0	+	33	verb	list	1	1	match	blanc	5	1	y	0.57778
294.9492	0.2	qglz	33	verb	list	1	2	match	blanc	5	1	y	0.57778
295.1492	0.0	+	33	verb	list	1	3	match	blanc	5	1	y	0.57778
295.54900000000004	0.2	rtgc	33	verb	list	1	4	match	blanc	5	1	y	0.57778
295.7489	0.0	+	33	verb	list	1	5	match	blanc	5	1	y	0.57778
296.166	0.2	hfs	33	verb	list	1	6	match	blanc	5	1	y	0.57778
296.3491	0.0	+	33	verb	list	1	7	match	blanc	5	1	y	0.57778
296.74850000000004	0.2	lkvjn	33	verb	list	1	8	match	blanc	5	1	y	0.57778
296.9484	0.0	+	33	verb	list	1	9	match	blanc	5	1	y	0.57778
297.3482	0.2	blanc	33	verb	list	1	10	match	blanc	5	1	y	0.57778
297.54810000000003	0.0	+	33	verb	list	1	11	match	blanc	5	1	y	0.57778
297.9479	0.0	+	33	verb	list	1	12	match	blanc	5	1	y	0.57778
299.9475	0.0	BLANC	33	verb	list	1	13	match	blanc	5	1	y	0.57778
300.5801	0.0	+	33	verb	list	1	14	match	blanc	5	1	y	0.57778
300.5253	0.0	[response]	33	verb	list	1	15	match	blanc	5	1	y	0.57778
302.3629	0.0	+	34	noun	phrase	3	1	match	grand	4	1	y	0.8560100000000002
302.8965	0.2	zngwbt	34	noun	phrase	3	2	match	grand	4	1	y	0.8560100000000002
303.0958	0.0	+	34	noun	phrase	3	3	match	grand	4	1	y	0.8560100000000002
303.5128	0.2	hsnx	34	noun	phrase	3	4	match	grand	4	1	y	0.8560100000000002
303.6954	0.0	+	34	noun	phrase	3	5	match	grand	4	1	y	0.8560100000000002
304.09520000000003	0.2	son	34	noun	phrase	3	6	match	grand	4	1	y	0.8560100000000002
304.2951	0.0	+	34	noun	phrase	3	7	match	grand	4	1	y	0.8560100000000002
304.695	0.2	grand	34	noun	phrase	3	8	match	grand	4	1	y	0.8560100000000002
304.8949	0.0	+	34	noun	phrase	3	9	match	grand	4	1	y	0.8560100000000002
305.29470000000003	0.2	casier	34	noun	phrase	3	10	match	grand	4	1	y	0.8560100000000002
305.4946	0.0	+	34	noun	phrase	3	11	match	grand	4	1	y	0.8560100000000002
305.9114	0.0	+	34	noun	phrase	3	12	match	grand	4	1	y	0.8560100000000002
307.8935	0.0	GRAND	34	noun	phrase	3	13	match	grand	4	1	y	0.8560100000000002
308.8098	0.0	+	34	noun	phrase	3	14	match	grand	4	1	y	0.8560100000000002
308.7495	0.0	[response]	34	noun	phrase	3	15	match	grand	4	1	y	0.8560100000000002
310.2925	0.0	+	35	verb	phrase	4	1	nomatch	jongler	-1	1	p	0.64818
310.8423	0.2	wjsr	35	verb	phrase	4	2	nomatch	jongler	-1	1	p	0.64818
311.04220000000004	0.0	+	35	verb	phrase	4	3	nomatch	jongler	-1	1	p	0.64818
311.442	0.2	yves	35	verb	phrase	4	4	nomatch	jongler	-1	1	p	0.64818
311.6419	0.0	+	35	verb	phrase	4	5	nomatch	jongler	-1	1	p	0.64818
312.0417	0.2	doit	35	verb	phrase	4	6	nomatch	jongler	-1	1	p	0.64818
312.2421	0.0	+	35	verb	phrase	4	7	nomatch	jongler	-1	1	p	0.64818
312.64160000000004	0.2	danser	35	verb	phrase	4	8	nomatch	jongler	-1	1	p	0.64818
312.8414	0.0	+	35	verb	phrase	4	9	nomatch	jongler	-1	1	p	0.64818
313.2412	0.2	tôt	35	verb	phrase	4	10	nomatch	jongler	-1	1	p	0.64818
313.4411	0.0	+	35	verb	phrase	4	11	nomatch	jongler	-1	1	p	0.64818
313.84090000000003	0.0	+	35	verb	phrase	4	12	nomatch	jongler	-1	1	p	0.64818
315.84000000000003	0.0	JONGLER	35	verb	phrase	4	13	nomatch	jongler	-1	1	p	0.64818
316.6397	0.0	+	35	verb	phrase	4	14	nomatch	jongler	-1	1	p	0.64818
316.4882	0.0	[response]	35	verb	phrase	4	15	nomatch	jongler	-1	1	p	0.64818
318.23900000000003	0.0	+	36	verb	list	1	1	nomatch	son	-1	1	p	0.6052800000000002
318.78880000000004	0.2	xvq	36	verb	list	1	2	nomatch	son	-1	1	p	0.6052800000000002
318.9887	0.0	+	36	verb	list	1	3	nomatch	son	-1	1	p	0.6052800000000002
319.3885	0.2	ptxf	36	verb	list	1	4	nomatch	son	-1	1	p	0.6052800000000002
319.58840000000004	0.0	+	36	verb	list	1	5	nomatch	son	-1	1	p	0.6052800000000002
319.9882	0.2	glhb	36	verb	list	1	6	nomatch	son	-1	1	p	0.6052800000000002
320.1881	0.0	+	36	verb	list	1	7	nomatch	son	-1	1	p	0.6052800000000002
320.6052	0.2	lkvjn	36	verb	list	1	8	nomatch	son	-1	1	p	0.6052800000000002
320.7883	0.0	+	36	verb	list	1	9	nomatch	son	-1	1	p	0.6052800000000002
321.1884	0.2	petit	36	verb	list	1	10	nomatch	son	-1	1	p	0.6052800000000002
321.3883	0.0	+	36	verb	list	1	11	nomatch	son	-1	1	p	0.6052800000000002
321.7878	0.0	+	36	verb	list	1	12	nomatch	son	-1	1	p	0.6052800000000002
323.7869	0.0	SON	36	verb	list	1	13	nomatch	son	-1	1	p	0.6052800000000002
324.4529	0.0	+	36	verb	list	1	14	nomatch	son	-1	1	p	0.6052800000000002
324.3922	0.0	[response]	36	verb	list	1	15	nomatch	son	-1	1	p	0.6052800000000002
326.1855	0.0	+	37	verb	list	1	1	nomatch	mon	-1	1	p	0.61252
326.7353	0.2	zbv	37	verb	list	1	2	nomatch	mon	-1	1	p	0.61252
326.9352	0.0	+	37	verb	list	1	3	nomatch	mon	-1	1	p	0.61252
327.33500000000004	0.2	pfmr	37	verb	list	1	4	nomatch	mon	-1	1	p	0.61252
327.5349	0.0	+	37	verb	list	1	5	nomatch	mon	-1	1	p	0.61252
327.9354	0.2	wvrh	37	verb	list	1	6	nomatch	mon	-1	1	p	0.61252
328.1351	0.0	+	37	verb	list	1	7	nomatch	mon	-1	1	p	0.61252
328.53470000000004	0.2	fztsqb	37	verb	list	1	8	nomatch	mon	-1	1	p	0.61252
328.73470000000003	0.0	+	37	verb	list	1	9	nomatch	mon	-1	1	p	0.61252
329.1342	0.2	vert	37	verb	list	1	10	nomatch	mon	-1	1	p	0.61252
329.33410000000003	0.0	+	37	verb	list	1	11	nomatch	mon	-1	1	p	0.61252
329.7339	0.0	+	37	verb	list	1	12	nomatch	mon	-1	1	p	0.61252
331.7497	0.0	MON	37	verb	list	1	13	nomatch	mon	-1	1	p	0.61252
332.41610000000003	0.0	+	37	verb	list	1	14	nomatch	mon	-1	1	p	0.61252
332.36220000000003	0.0	[response]	37	verb	list	1	15	nomatch	mon	-1	1	p	0.61252
334.1487	0.0	+	38	verb	list	1	1	nomatch	tôt	-1	1	p	0.45547
334.6984	0.2	fpxqrws	38	verb	list	1	2	nomatch	tôt	-1	1	p	0.45547
334.8983	0.0	+	38	verb	list	1	3	nomatch	tôt	-1	1	p	0.45547
335.31550000000004	0.2	ptxf	38	verb	list	1	4	nomatch	tôt	-1	1	p	0.45547
335.49870000000004	0.0	+	38	verb	list	1	5	nomatch	tôt	-1	1	p	0.45547
335.8983	0.2	jq	38	verb	list	1	6	nomatch	tôt	-1	1	p	0.45547
336.0978	0.0	+	38	verb	list	1	7	nomatch	tôt	-1	1	p	0.45547
336.49760000000003	0.2	tskwq	38	verb	list	1	8	nomatch	tôt	-1	1	p	0.45547
336.6975	0.0	+	38	verb	list	1	9	nomatch	tôt	-1	1	p	0.45547
337.0974	0.2	plonger	38	verb	list	1	10	nomatch	tôt	-1	1	p	0.45547
337.2973	0.0	+	38	verb	list	1	11	nomatch	tôt	-1	1	p	0.45547
337.69710000000003	0.0	+	38	verb	list	1	12	nomatch	tôt	-1	1	p	0.45547
339.6967	0.0	TÔT	38	verb	list	1	13	nomatch	tôt	-1	1	p	0.45547
340.24600000000004	0.0	+	38	verb	list	1	14	nomatch	tôt	-1	1	p	0.45547
340.1522	0.0	[response]	38	verb	list	1	15	nomatch	tôt	-1	1	p	0.45547
342.16220000000004	0.0	+	39	noun	phrase	1	1	nomatch	vert	-1	1	p	0.52328
342.6619	0.2	zwrxm	39	noun	phrase	1	2	nomatch	vert	-1	1	p	0.52328
342.86170000000004	0.0	+	39	noun	phrase	1	3	nomatch	vert	-1	1	p	0.52328
343.2447	0.2	hsnx	39	noun	phrase	1	4	nomatch	vert	-1	1	p	0.52328
343.44460000000004	0.0	+	39	noun	phrase	1	5	nomatch	vert	-1	1	p	0.52328
343.8444	0.2	wvrh	39	noun	phrase	1	6	nomatch	vert	-1	1	p	0.52328
344.0443	0.0	+	39	noun	phrase	1	7	nomatch	vert	-1	1	p	0.52328
344.4441	0.2	hgzjnw	39	noun	phrase	1	8	nomatch	vert	-1	1	p	0.52328
344.64410000000004	0.0	+	39	noun	phrase	1	9	nomatch	vert	-1	1	p	0.52328
345.0439	0.2	noir	39	noun	phrase	1	10	nomatch	vert	-1	1	p	0.52328
345.2438	0.0	+	39	noun	phrase	1	11	nomatch	vert	-1	1	p	0.52328
345.6436	0.0	+	39	noun	phrase	1	12	nomatch	vert	-1	1	p	0.52328
347.64300000000003	0.0	VERT	39	noun	phrase	1	13	nomatch	vert	-1	1	p	0.52328
348.2258	0.0	+	39	noun	phrase	1	14	nomatch	vert	-1	1	p	0.52328
348.16630000000004	0.0	[response]	39	noun	phrase	1	15	nomatch	vert	-1	1	p	0.52328
350.0417	0.0	+	40	verb	list	3	1	match	voyager	5	0	TIMEOUT	-1.0
350.5914	0.2	qwv	40	verb	list	3	2	match	voyager	5	0	TIMEOUT	-1.0
350.79130000000004	0.0	+	40	verb	list	3	3	match	voyager	5	0	TIMEOUT	-1.0
351.19120000000004	0.2	lnvt	40	verb	list	3	4	match	voyager	5	0	TIMEOUT	-1.0
351.3911	0.0	+	40	verb	list	3	5	match	voyager	5	0	TIMEOUT	-1.0
351.7914	0.2	peut	40	verb	list	3	6	match	voyager	5	0	TIMEOUT	-1.0
351.9916	0.0	+	40	verb	list	3	7	match	voyager	5	0	TIMEOUT	-1.0
352.4074	0.2	nouveau	40	verb	list	3	8	match	voyager	5	0	TIMEOUT	-1.0
352.60790000000003	0.0	+	40	verb	list	3	9	match	voyager	5	0	TIMEOUT	-1.0
352.9904	0.2	voyager	40	verb	list	3	10	match	voyager	5	0	TIMEOUT	-1.0
353.19030000000004	0.0	+	40	verb	list	3	11	match	voyager	5	0	TIMEOUT	-1.0
353.5908	0.0	+	40	verb	list	3	12	match	voyager	5	0	TIMEOUT	-1.0
355.5892	0.0	VOYAGER	40	verb	list	3	13	match	voyager	5	0	TIMEOUT	-1.0
357.9882	0.0	+	41	noun	phrase	1	1	nomatch	sablier	-1	0	TIMEOUT	-1.0
358.5879	0.2	crhdf	41	noun	phrase	1	2	nomatch	sablier	-1	0	TIMEOUT	-1.0
358.7878	0.0	+	41	noun	phrase	1	3	nomatch	sablier	-1	0	TIMEOUT	-1.0
359.1877	0.2	ptxf	41	noun	phrase	1	4	nomatch	sablier	-1	0	TIMEOUT	-1.0
359.3876	0.0	+	41	noun	phrase	1	5	nomatch	sablier	-1	0	TIMEOUT	-1.0
359.7874	0.2	wvrh	41	noun	phrase	1	6	nomatch	sablier	-1	0	TIMEOUT	-1.0
359.9873	0.0	+	41	noun	phrase	1	7	nomatch	sablier	-1	0	TIMEOUT	-1.0
360.38710000000003	0.2	hqblxjr	41	noun	phrase	1	8	nomatch	sablier	-1	0	TIMEOUT	-1.0
360.58700000000005	0.0	+	41	noun	phrase	1	9	nomatch	sablier	-1	0	TIMEOUT	-1.0
360.9869	0.2	voilier	41	noun	phrase	1	10	nomatch	sablier	-1	0	TIMEOUT	-1.0
361.1868	0.0	+	41	noun	phrase	1	11	nomatch	sablier	-1	0	TIMEOUT	-1.0
361.58660000000003	0.0	+	41	noun	phrase	1	12	nomatch	sablier	-1	0	TIMEOUT	-1.0
363.58570000000003	0.0	SABLIER	41	noun	phrase	1	13	nomatch	sablier	-1	0	TIMEOUT	-1.0
366.0013	0.0	+	42	verb	phrase	3	1	nomatch	jongler	-1	0	y	0.36015
366.5844	0.2	trjnc	42	verb	phrase	3	2	nomatch	jongler	-1	0	y	0.36015
366.78430000000003	0.0	+	42	verb	phrase	3	3	nomatch	jongler	-1	0	y	0.36015
367.1841	0.2	lnpz	42	verb	phrase	3	4	nomatch	jongler	-1	0	y	0.36015
367.384	0.0	+	42	verb	phrase	3	5	nomatch	jongler	-1	0	y	0.36015
367.7839	0.2	peut	42	verb	phrase	3	6	nomatch	jongler	-1	0	y	0.36015
367.98380000000003	0.0	+	42	verb	phrase	3	7	nomatch	jongler	-1	0	y	0.36015
368.38370000000003	0.2	plonger	42	verb	phrase	3	8	nomatch	jongler	-1	0	y	0.36015
368.60020000000003	0.0	+	42	verb	phrase	3	9	nomatch	jongler	-1	0	y	0.36015
369.0	0.2	ainsi	42	verb	phrase	3	10	nomatch	jongler	-1	0	y	0.36015
369.1999	0.0	+	42	verb	phrase	3	11	nomatch	jongler	-1	0	y	0.36015
369.59970000000004	0.0	+	42	verb	phrase	3	12	nomatch	jongler	-1	0	y	0.36015
371.5989	0.0	JONGLER	42	verb	phrase	3	13	nomatch	jongler	-1	0	y	0.36015
372.0153	0.0	+	42	verb	phrase	3	14	nomatch	jongler	-1	0	y	0.36015
371.95900000000006	0.0	[response]	42	verb	phrase	3	15	nomatch	jongler	-1	0	y	0.36015
373.99780000000004	0.0	+	43	noun	list	1	1	nomatch	voilier	-1	1	p	0.59666
374.54760000000005	0.2	mnpvhfr	43	noun	list	1	2	nomatch	voilier	-1	1	p	0.59666
374.7475	0.0	+	43	noun	list	1	3	nomatch	voilier	-1	1	p	0.59666
375.14730000000003	0.2	njr	43	noun	list	1	4	nomatch	voilier	-1	1	p	0.59666
375.34720000000004	0.0	+	43	noun	list	1	5	nomatch	voilier	-1	1	p	0.59666
375.747	0.2	jq	43	noun	list	1	6	nomatch	voilier	-1	1	p	0.59666
375.9469	0.0	+	43	noun	list	1	7	nomatch	voilier	-1	1	p	0.59666
376.36400000000003	0.2	qsdb	43	noun	list	1	8	nomatch	voilier	-1	1	p	0.59666
376.547	0.0	+	43	noun	list	1	9	nomatch	voilier	-1	1	p	0.59666
376.9465	0.2	clavier	43	noun	list	1	10	nomatch	voilier	-1	1	p	0.59666
377.1464	0.0	+	43	noun	list	1	11	nomatch	voilier	-1	1	p	0.59666
377.54630000000003	0.0	+	43	noun	list	1	12	nomatch	voilier	-1	1	p	0.59666
379.54540000000003	0.0	VOILIER	43	noun	list	1	13	nomatch	voilier	-1	1	p	0.59666
380.1951	0.0	+	43	noun	list	1	14	nomatch	voilier	-1	1	p	0.59666
380.142	0.0	[response]	43	noun	list	1	15	nomatch	voilier	-1	1	p	0.59666
381.9443	0.0	+	44	verb	phrase	1	1	match	voyager	5	1	y	0.74778
382.49440000000004	0.2	bwdjs	44	verb	phrase	1	2	match	voyager	5	1	y	0.74778
382.694	0.0	+	44	verb	phrase	1	3	match	voyager	5	1	y	0.74778
383.09380000000004	0.2	dsv	44	verb	phrase	1	4	match	voyager	5	1	y	0.74778
383.2944	0.0	+	44	verb	phrase	1	5	match	voyager	5	1	y	0.74778
383.69390000000004	0.2	vzgp	44	verb	phrase	1	6	match	voyager	5	1	y	0.74778
383.89340000000004	0.0	+	44	verb	phrase	1	7	match	voyager	5	1	y	0.74778
384.29330000000004	0.2	nxps	44	verb	phrase	1	8	match	voyager	5	1	y	0.74778
384.4932	0.0	+	44	verb	phrase	1	9	match	voyager	5	1	y	0.74778
384.89300000000003	0.2	voyager	44	verb	phrase	1	10	match	voyager	5	1	y	0.74778
385.09290000000004	0.0	+	44	verb	phrase	1	11	match	voyager	5	1	y	0.74778
385.49280000000005	0.0	+	44	verb	phrase	1	12	match	voyager	5	1	y	0.74778
387.49260000000004	0.0	VOYAGER	44	verb	phrase	1	13	match	voyager	5	1	y	0.74778
388.3587	0.0	+	44	verb	phrase	1	14	match	voyager	5	1	y	0.74778
388.2404	0.0	[response]	44	verb	phrase	1	15	match	voyager	5	1	y	0.74778
397.88730000000004	0.0	+	45	noun	phrase	2	1	nomatch	clavier	-1	1	p	1.7651
398.43710000000004	0.2	dlc	45	noun	phrase	2	2	nomatch	clavier	-1	1	p	1.7651
398.6539	0.0	+	45	noun	phrase	2	3	nomatch	clavier	-1	1	p	1.7651
399.0371	0.2	dtsr	45	noun	phrase	2	4	nomatch	clavier	-1	1	p	1.7651
399.2373	0.0	+	45	noun	phrase	2	5	nomatch	clavier	-1	1	p	1.7651
399.63710000000003	0.2	ldk	45	noun	phrase	2	6	nomatch	clavier	-1	1	p	1.7651
399.85360000000003	0.0	+	45	noun	phrase	2	7	nomatch	clavier	-1	1	p	1.7651
400.2363	0.2	grenier	45	noun	phrase	2	8	nomatch	clavier	-1	1	p	1.7651
400.43620000000004	0.0	+	45	noun	phrase	2	9	nomatch	clavier	-1	1	p	1.7651
400.836	0.2	blanc	45	noun	phrase	2	10	nomatch	clavier	-1	1	p	1.7651
401.0359	0.0	+	45	noun	phrase	2	11	nomatch	clavier	-1	1	p	1.7651
401.4357	0.0	+	45	noun	phrase	2	12	nomatch	clavier	-1	1	p	1.7651
403.4349	0.0	CLAVIER	45	noun	phrase	2	13	nomatch	clavier	-1	1	p	1.7651
405.2674	0.0	+	45	noun	phrase	2	14	nomatch	clavier	-1	1	p	1.7651
405.20000000000005	0.0	[response]	45	noun	phrase	2	15	nomatch	clavier	-1	1	p	1.7651
405.8338	0.0	+	46	verb	phrase	1	1	nomatch	plonger	-1	1	p	0.81384
406.3838	0.2	ngjqwk	46	verb	phrase	1	2	nomatch	plonger	-1	1	p	0.81384
406.6001	0.0	+	46	verb	phrase	1	3	nomatch	plonger	-1	1	p	0.81384
407.0	0.2	dgpc	46	verb	phrase	1	4	nomatch	plonger	-1	1	p	0.81384
407.1999	0.0	+	46	verb	phrase	1	5	nomatch	plonger	-1	1	p	0.81384
407.59970000000004	0.2	jq	46	verb	phrase	1	6	nomatch	plonger	-1	1	p	0.81384
407.7996	0.0	+	46	verb	phrase	1	7	nomatch	plonger	-1	1	p	0.81384
408.20000000000005	0.2	zxvbjts	46	verb	phrase	1	8	nomatch	plonger	-1	1	p	0.81384
408.39930000000004	0.0	+	46	verb	phrase	1	9	nomatch	plonger	-1	1	p	0.81384
408.79990000000004	0.2	plus	46	verb	phrase	1	10	nomatch	plonger	-1	1	p	0.81384
408.9997	0.0	+	46	verb	phrase	1	11	nomatch	plonger	-1	1	p	0.81384
409.3989	0.0	+	46	verb	phrase	1	12	nomatch	plonger	-1	1	p	0.81384
411.398	0.0	PLONGER	46	verb	phrase	1	13	nomatch	plonger	-1	1	p	0.81384
412.3143	0.0	+	46	verb	phrase	1	14	nomatch	plonger	-1	1	p	0.81384
412.2119	0.0	[response]	46	verb	phrase	1	15	nomatch	plonger	-1	1	p	0.81384
413.797	0.0	+	47	verb	list	3	1	match	doit	3	1	y	0.63611
414.3467	0.2	zphxj	47	verb	list	3	2	match	doit	3	1	y	0.63611
414.5466	0.0	+	47	verb	list	3	3	match	doit	3	1	y	0.63611
414.9465	0.2	dtsr	47	verb	list	3	4	match	doit	3	1	y	0.63611
415.1464	0.0	+	47	verb	list	3	5	match	doit	3	1	y	0.63611
415.5462	0.2	doit	47	verb	list	3	6	match	doit	3	1	y	0.63611
415.74670000000003	0.0	+	47	verb	list	3	7	match	doit	3	1	y	0.63611
416.1633	0.2	nouveau	47	verb	list	3	8	match	doit	3	1	y	0.63611
416.3464	0.0	+	47	verb	list	3	9	match	doit	3	1	y	0.63611
416.74620000000004	0.2	jongler	47	verb	list	3	10	match	doit	3	1	y	0.63611
416.9456	0.0	+	47	verb	list	3	11	match	doit	3	1	y	0.63611
417.34540000000004	0.0	+	47	verb	list	3	12	match	doit	3	1	y	0.63611
419.34450000000004	0.0	DOIT	47	verb	list	3	13	match	doit	3	1	y	0.63611
420.04420000000005	0.0	+	47	verb	list	3	14	match	doit	3	1	y	0.63611
419.9806000000001	0.0	[response]	47	verb	list	3	15	match	doit	3	1	y	0.63611
421.74350000000004	0.0	+	48	verb	list	4	1	nomatch	vert	-1	1	p	0.6328
422.2932	0.2	wxt	48	verb	list	4	2	nomatch	vert	-1	1	p	0.6328
422.4931	0.0	+	48	verb	list	4	3	nomatch	vert	-1	1	p	0.6328
422.89300000000003	0.2	jean	48	verb	list	4	4	nomatch	vert	-1	1	p	0.6328
423.09290000000004	0.0	+	48	verb	list	4	5	nomatch	vert	-1	1	p	0.6328
423.4927	0.2	son	48	verb	list	4	6	nomatch	vert	-1	1	p	0.6328
423.6926	0.0	+	48	verb	list	4	7	nomatch	vert	-1	1	p	0.6328
424.0924	0.2	voyager	48	verb	list	4	8	nomatch	vert	-1	1	p	0.6328
424.2923	0.0	+	48	verb	list	4	9	nomatch	vert	-1	1	p	0.6328
424.70910000000003	0.2	blanc	48	verb	list	4	10	nomatch	vert	-1	1	p	0.6328
424.8922	0.0	+	48	verb	list	4	11	nomatch	vert	-1	1	p	0.6328
425.29240000000004	0.0	+	48	verb	list	4	12	nomatch	vert	-1	1	p	0.6328
427.291	0.0	VERT	48	verb	list	4	13	nomatch	vert	-1	1	p	0.6328
427.9907	0.0	+	48	verb	list	4	14	nomatch	vert	-1	1	p	0.6328
427.9238	0.0	[response]	48	verb	list	4	15	nomatch	vert	-1	1	p	0.6328
429.69	0.0	+	49	noun	phrase	1	1	nomatch	beau	-1	1	p	0.48617000000000005
430.2397	0.2	qjhvdkw	49	noun	phrase	1	2	nomatch	beau	-1	1	p	0.48617000000000005
430.43960000000004	0.0	+	49	noun	phrase	1	3	nomatch	beau	-1	1	p	0.48617000000000005
430.83950000000004	0.2	ptxf	49	noun	phrase	1	4	nomatch	beau	-1	1	p	0.48617000000000005
431.0394	0.0	+	49	noun	phrase	1	5	nomatch	beau	-1	1	p	0.48617000000000005
431.4392	0.2	ldk	49	noun	phrase	1	6	nomatch	beau	-1	1	p	0.48617000000000005
431.63910000000004	0.0	+	49	noun	phrase	1	7	nomatch	beau	-1	1	p	0.48617000000000005
432.0389	0.2	ksbz	49	noun	phrase	1	8	nomatch	beau	-1	1	p	0.48617000000000005
432.2389	0.0	+	49	noun	phrase	1	9	nomatch	beau	-1	1	p	0.48617000000000005
432.6557	0.2	rocher	49	noun	phrase	1	10	nomatch	beau	-1	1	p	0.48617000000000005
432.83910000000003	0.0	+	49	noun	phrase	1	11	nomatch	beau	-1	1	p	0.48617000000000005
433.2557	0.0	+	49	noun	phrase	1	12	nomatch	beau	-1	1	p	0.48617000000000005
435.2375	0.0	BEAU	49	noun	phrase	1	13	nomatch	beau	-1	1	p	0.48617000000000005
435.7873	0.0	+	49	noun	phrase	1	14	nomatch	beau	-1	1	p	0.48617000000000005
435.7237	0.0	[response]	49	noun	phrase	1	15	nomatch	beau	-1	1	p	0.48617000000000005
437.6365	0.0	+	50	verb	phrase	4	1	nomatch	petit	-1	1	p	0.77735
438.18620000000004	0.2	pgdhr	50	verb	phrase	4	2	nomatch	petit	-1	1	p	0.77735
438.38620000000003	0.0	+	50	verb	phrase	4	3	nomatch	petit	-1	1	p	0.77735
438.7862	0.2	paul	50	verb	phrase	4	4	nomatch	petit	-1	1	p	0.77735
439.0027	0.0	+	50	verb	phrase	4	5	nomatch	petit	-1	1	p	0.77735
439.403	0.2	doit	50	verb	phrase	4	6	nomatch	petit	-1	1	p	0.77735
439.586	0.0	+	50	verb	phrase	4	7	nomatch	petit	-1	1	p	0.77735
439.98580000000004	0.2	parader	50	verb	phrase	4	8	nomatch	petit	-1	1	p	0.77735
440.1854	0.0	+	50	verb	phrase	4	9	nomatch	petit	-1	1	p	0.77735
440.58520000000004	0.2	tard	50	verb	phrase	4	10	nomatch	petit	-1	1	p	0.77735
440.7851	0.0	+	50	verb	phrase	4	11	nomatch	petit	-1	1	p	0.77735
441.1849	0.0	+	50	verb	phrase	4	12	nomatch	petit	-1	1	p	0.77735
443.184	0.0	PETIT	50	verb	phrase	4	13	nomatch	petit	-1	1	p	0.77735
444.16740000000004	0.0	+	50	verb	phrase	4	14	nomatch	petit	-1	1	p	0.77735
443.9614000000001	0.0	[response]	50	verb	phrase	4	15	nomatch	petit	-1	1	p	0.77735
445.5996	0.0	+	51	verb	list	3	1	match	grand	4	1	y	0.75518
446.1494	0.2	qskbv	51	verb	list	3	2	match	grand	4	1	y	0.75518
446.3493	0.0	+	51	verb	list	3	3	match	grand	4	1	y	0.75518
446.7491	0.2	ptxf	51	verb	list	3	4	match	grand	4	1	y	0.75518
446.949	0.0	+	51	verb	list	3	5	match	grand	4	1	y	0.75518
447.3489	0.2	va	51	verb	list	3	6	match	grand	4	1	y	0.75518
447.5488	0.0	+	51	verb	list	3	7	match	grand	4	1	y	0.75518
447.9486	0.2	grand	51	verb	list	3	8	match	grand	4	1	y	0.75518
448.1485	0.0	+	51	verb	list	3	9	match	grand	4	1	y	0.75518
448.5656	0.2	plonger	51	verb	list	3	10	match	grand	4	1	y	0.75518
448.7656	0.0	+	51	verb	list	3	11	match	grand	4	1	y	0.75518
449.1483	0.0	+	51	verb	list	3	12	match	grand	4	1	y	0.75518
451.1472	0.0	GRAND	51	verb	list	3	13	match	grand	4	1	y	0.75518
451.9635	0.0	+	51	verb	list	3	14	match	grand	4	1	y	0.75518
451.9024	0.0	[response]	51	verb	list	3	15	match	grand	4	1	y	0.75518
453.5462	0.0	+	52	noun	list	1	1	match	tablier	5	1	y	0.7221
454.09590000000003	0.2	tfcpr	52	noun	list	1	2	match	tablier	5	1	y	0.7221
454.29580000000004	0.0	+	52	noun	list	1	3	match	tablier	5	1	y	0.7221
454.6956	0.2	kxqr	52	noun	list	1	4	match	tablier	5	1	y	0.7221
454.8955	0.0	+	52	noun	list	1	5	match	tablier	5	1	y	0.7221
455.29540000000003	0.2	jq	52	noun	list	1	6	match	tablier	5	1	y	0.7221
455.49530000000004	0.0	+	52	noun	list	1	7	match	tablier	5	1	y	0.7221
455.8951	0.2	kstm	52	noun	list	1	8	match	tablier	5	1	y	0.7221
456.095	0.0	+	52	noun	list	1	9	match	tablier	5	1	y	0.7221
456.49480000000005	0.2	tablier	52	noun	list	1	10	match	tablier	5	1	y	0.7221
456.6948	0.0	+	52	noun	list	1	11	match	tablier	5	1	y	0.7221
457.1114	0.0	+	52	noun	list	1	12	match	tablier	5	1	y	0.7221
459.0937	0.0	TABLIER	52	noun	list	1	13	match	tablier	5	1	y	0.7221
459.92690000000005	0.0	+	52	noun	list	1	14	match	tablier	5	1	y	0.7221
459.81579999999997	0.0	[response]	52	noun	list	1	15	match	tablier	5	1	y	0.7221
461.4927	0.0	+	53	verb	list	4	1	match	chasser	5	1	y	0.6305900000000001
462.04240000000004	0.2	wksm	53	verb	list	4	2	match	chasser	5	1	y	0.6305900000000001
462.2423	0.0	+	53	verb	list	4	3	match	chasser	5	1	y	0.6305900000000001
462.6421	0.2	sur	53	verb	list	4	4	match	chasser	5	1	y	0.6305900000000001
462.8421000000001	0.0	+	53	verb	list	4	5	match	chasser	5	1	y	0.6305900000000001
463.2419	0.2	doit	53	verb	list	4	6	match	chasser	5	1	y	0.6305900000000001
463.442	0.0	+	53	verb	list	4	7	match	chasser	5	1	y	0.6305900000000001
463.85900000000004	0.2	beau	53	verb	list	4	8	match	chasser	5	1	y	0.6305900000000001
464.04200000000003	0.0	+	53	verb	list	4	9	match	chasser	5	1	y	0.6305900000000001
464.442	0.2	chasser	53	verb	list	4	10	match	chasser	5	1	y	0.6305900000000001
464.6413	0.0	+	53	verb	list	4	11	match	chasser	5	1	y	0.6305900000000001
465.04110000000003	0.0	+	53	verb	list	4	12	match	chasser	5	1	y	0.6305900000000001
467.05740000000003	0.0	CHASSER	53	verb	list	4	13	match	chasser	5	1	y	0.6305900000000001
467.8238	0.0	+	53	verb	list	4	14	match	chasser	5	1	y	0.6305900000000001
467.688	0.0	[response]	53	verb	list	4	15	match	chasser	5	1	y	0.6305900000000001
501.49210000000005	0.0	+	54	noun	list	3	1	nomatch	vite	-1	1	p	0.60406
501.9915	0.2	mjkprv	54	noun	list	3	2	nomatch	vite	-1	1	p	0.60406
502.19140000000004	0.0	+	54	noun	list	3	3	nomatch	vite	-1	1	p	0.60406
502.59130000000005	0.2	lnvt	54	noun	list	3	4	nomatch	vite	-1	1	p	0.60406
502.7912	0.0	+	54	noun	list	3	5	nomatch	vite	-1	1	p	0.60406
503.19100000000003	0.2	peut	54	noun	list	3	6	nomatch	vite	-1	1	p	0.60406
503.3909	0.0	+	54	noun	list	3	7	nomatch	vite	-1	1	p	0.60406
503.7907	0.2	casier	54	noun	list	3	8	nomatch	vite	-1	1	p	0.60406
503.9906	0.0	+	54	noun	list	3	9	nomatch	vite	-1	1	p	0.60406
504.3905	0.2	ainsi	54	noun	list	3	10	nomatch	vite	-1	1	p	0.60406
504.59040000000005	0.0	+	54	noun	list	3	11	nomatch	vite	-1	1	p	0.60406
504.9902000000001	0.0	+	54	noun	list	3	12	nomatch	vite	-1	1	p	0.60406
506.98930000000007	0.0	VITE	54	noun	list	3	13	nomatch	vite	-1	1	p	0.60406
507.6557	0.0	+	54	noun	list	3	14	nomatch	vite	-1	1	p	0.60406
507.5934	0.0	[response]	54	noun	list	3	15	nomatch	vite	-1	1	p	0.60406
509.3883000000001	0.0	+	55	verb	phrase	2	1	match	tard	5	1	y	0.53561
509.938	0.2	vghst	55	verb	phrase	2	2	match	tard	5	1	y	0.53561
510.13790000000006	0.0	+	55	verb	phrase	2	3	match	tard	5	1	y	0.53561
510.538	0.2	dgpc	55	verb	phrase	2	4	match	tard	5	1	y	0.53561
510.7382	0.0	+	55	verb	phrase	2	5	match	tard	5	1	y	0.53561
511.1381	0.2	glhb	55	verb	phrase	2	6	match	tard	5	1	y	0.53561
511.35450000000003	0.0	+	55	verb	phrase	2	7	match	tard	5	1	y	0.53561
511.7374	0.2	nager	55	verb	phrase	2	8	match	tard	5	1	y	0.53561
511.9371	0.0	+	55	verb	phrase	2	9	match	tard	5	1	y	0.53561
512.337	0.2	tard	55	verb	phrase	2	10	match	tard	5	1	y	0.53561
512.5369000000001	0.0	+	55	verb	phrase	2	11	match	tard	5	1	y	0.53561
512.9367	0.0	+	55	verb	phrase	2	12	match	tard	5	1	y	0.53561
514.9358	0.0	TARD	55	verb	phrase	2	13	match	tard	5	1	y	0.53561
515.5356	0.0	+	55	verb	phrase	2	14	match	tard	5	1	y	0.53561
515.4714	0.0	[response]	55	verb	phrase	2	15	match	tard	5	1	y	0.53561
517.3348	0.0	+	56	noun	list	1	1	nomatch	moins	-1	1	p	0.45553
517.8845	0.2	hjmlncd	56	noun	list	1	2	nomatch	moins	-1	1	p	0.45553
518.0844000000001	0.0	+	56	noun	list	1	3	nomatch	moins	-1	1	p	0.45553
518.485	0.2	dsv	56	noun	list	1	4	nomatch	moins	-1	1	p	0.45553
518.6842	0.0	+	56	noun	list	1	5	nomatch	moins	-1	1	p	0.45553
519.0840000000001	0.2	hfs	56	noun	list	1	6	nomatch	moins	-1	1	p	0.45553
519.2839	0.0	+	56	noun	list	1	7	nomatch	moins	-1	1	p	0.45553
519.6837	0.2	hgzjnw	56	noun	list	1	8	nomatch	moins	-1	1	p	0.45553
519.8836	0.0	+	56	noun	list	1	9	nomatch	moins	-1	1	p	0.45553
520.3001	0.2	beaucoup	56	noun	list	1	10	nomatch	moins	-1	1	p	0.45553
520.5	0.0	+	56	noun	list	1	11	nomatch	moins	-1	1	p	0.45553
520.8999	0.0	+	56	noun	list	1	12	nomatch	moins	-1	1	p	0.45553
522.899	0.0	MOINS	56	noun	list	1	13	nomatch	moins	-1	1	p	0.45553
523.4154	0.0	+	56	noun	list	1	14	nomatch	moins	-1	1	p	0.45553
523.3545	0.0	[response]	56	noun	list	1	15	nomatch	moins	-1	1	p	0.45553
525.2979	0.0	+	57	verb	phrase	2	1	match	voyager	4	1	y	0.66399
525.8477	0.2	rfscnq	57	verb	phrase	2	2	match	voyager	4	1	y	0.66399
526.0476	0.0	+	57	verb	phrase	2	3	match	voyager	4	1	y	0.66399
526.4474	0.2	hgvw	57	verb	phrase	2	4	match	voyager	4	1	y	0.66399
526.6478000000001	0.0	+	57	verb	phrase	2	5	match	voyager	4	1	y	0.66399
527.0478	0.2	jq	57	verb	phrase	2	6	match	voyager	4	1	y	0.66399
527.2477	0.0	+	57	verb	phrase	2	7	match	voyager	4	1	y	0.66399
527.6472	0.2	voyager	57	verb	phrase	2	8	match	voyager	4	1	y	0.66399
527.8636	0.0	+	57	verb	phrase	2	9	match	voyager	4	1	y	0.66399
528.2466000000001	0.2	tôt	57	verb	phrase	2	10	match	voyager	4	1	y	0.66399
528.4465	0.0	+	57	verb	phrase	2	11	match	voyager	4	1	y	0.66399
528.8464	0.0	+	57	verb	phrase	2	12	match	voyager	4	1	y	0.66399
530.8455	0.0	VOYAGER	57	verb	phrase	2	13	match	voyager	4	1	y	0.66399
531.6453	0.0	+	57	verb	phrase	2	14	match	voyager	4	1	y	0.66399
531.5095	0.0	[response]	57	verb	phrase	2	15	match	voyager	4	1	y	0.66399
533.2444	0.0	+	58	verb	list	4	1	nomatch	doit	-1	1	p	0.63787
533.7942	0.2	vjmzfsr	58	verb	list	4	2	nomatch	doit	-1	1	p	0.63787
533.9948	0.0	+	58	verb	list	4	3	nomatch	doit	-1	1	p	0.63787
534.4108	0.2	dans	58	verb	list	4	4	nomatch	doit	-1	1	p	0.63787
534.5938	0.0	+	58	verb	list	4	5	nomatch	doit	-1	1	p	0.63787
534.9941	0.2	va	58	verb	list	4	6	nomatch	doit	-1	1	p	0.63787
535.1940000000001	0.0	+	58	verb	list	4	7	nomatch	doit	-1	1	p	0.63787
535.6104	0.2	grand	58	verb	list	4	8	nomatch	doit	-1	1	p	0.63787
535.7933	0.0	+	58	verb	list	4	9	nomatch	doit	-1	1	p	0.63787
536.1939	0.2	jongler	58	verb	list	4	10	nomatch	doit	-1	1	p	0.63787
536.393	0.0	+	58	verb	list	4	11	nomatch	doit	-1	1	p	0.63787
536.7929	0.0	+	58	verb	list	4	12	nomatch	doit	-1	1	p	0.63787
538.7925	0.0	DOIT	58	verb	list	4	13	nomatch	doit	-1	1	p	0.63787
539.4917	0.0	+	58	verb	list	4	14	nomatch	doit	-1	1	p	0.63787
539.4303	0.0	[response]	58	verb	list	4	15	nomatch	doit	-1	1	p	0.63787
549.238	0.0	+	59	noun	phrase	1	1	match	grenier	5	1	y	0.49823
549.7372	0.2	ngvbcq	59	noun	phrase	1	2	match	grenier	5	1	y	0.49823
549.9371	0.0	+	59	noun	phrase	1	3	match	grenier	5	1	y	0.49823
550.3369	0.2	njr	59	noun	phrase	1	4	match	grenier	5	1	y	0.49823
550.5368	0.0	+	59	noun	phrase	1	5	match	grenier	5	1	y	0.49823
550.9366	0.2	ldk	59	noun	phrase	1	6	match	grenier	5	1	y	0.49823
551.1366	0.0	+	59	noun	phrase	1	7	match	grenier	5	1	y	0.49823
551.5364000000001	0.2	smlc	59	noun	phrase	1	8	match	grenier	5	1	y	0.49823
551.7363	0.0	+	59	noun	phrase	1	9	match	grenier	5	1	y	0.49823
552.1700000000001	0.2	grenier	59	noun	phrase	1	10	match	grenier	5	1	y	0.49823
552.3364	0.0	+	59	noun	phrase	1	11	match	grenier	5	1	y	0.49823
552.7359	0.0	+	59	noun	phrase	1	12	match	grenier	5	1	y	0.49823
554.735	0.0	GRENIER	59	noun	phrase	1	13	match	grenier	5	1	y	0.49823
555.352	0.0	+	59	noun	phrase	1	14	match	grenier	5	1	y	0.49823
555.2332	0.0	[response]	59	noun	phrase	1	15	match	grenier	5	1	y	0.49823
557.1339	0.0	+	60	verb	list	1	1	match	vieux	5	1	y	0.5187
557.6838	0.2	blnjqxk	60	verb	list	1	2	match	vieux	5	1	y	0.5187
557.8836	0.0	+	60	verb	list	1	3	match	vieux	5	1	y	0.5187
558.3001	0.2	lnvt	60	verb	list	1	4	match	vieux	5	1	y	0.5187
558.5	0.0	+	60	verb	list	1	5	match	vieux	5	1	y	0.5187
558.8998	0.2	glhb	60	verb	list	1	6	match	vieux	5	1	y	0.5187
559.0997	0.0	+	60	verb	list	1	7	match	vieux	5	1	y	0.5187
559.4996	0.2	lgnmjqd	60	verb	list	1	8	match	vieux	5	1	y	0.5187
559.7167000000001	0.0	+	60	verb	list	1	9	match	vieux	5	1	y	0.5187
560.1162	0.2	vieux	60	verb	list	1	10	match	vieux	5	1	y	0.5187
560.2993	0.0	+	60	verb	list	1	11	match	vieux	5	1	y	0.5187
560.6997	0.0	+	60	verb	list	1	12	match	vieux	5	1	y	0.5187
562.6985	0.0	VIEUX	60	verb	list	1	13	match	vieux	5	1	y	0.5187
563.2812	0.0	+	60	verb	list	1	14	match	vieux	5	1	y	0.5187
563.2172	0.0	[response]	60	verb	list	1	15	match	vieux	5	1	y	0.5187
565.0971000000001	0.0	+	61	noun	list	2	1	nomatch	danser	-1	1	p	0.6336200000000001
565.6468	0.2	ngdhkvl	61	noun	list	2	2	nomatch	danser	-1	1	p	0.6336200000000001
565.8468	0.0	+	61	noun	list	2	3	nomatch	danser	-1	1	p	0.6336200000000001
566.2466000000001	0.2	kxqr	61	noun	list	2	4	nomatch	danser	-1	1	p	0.6336200000000001
566.4465	0.0	+	61	noun	list	2	5	nomatch	danser	-1	1	p	0.6336200000000001
566.8463	0.2	jq	61	noun	list	2	6	nomatch	danser	-1	1	p	0.6336200000000001
567.0462	0.0	+	61	noun	list	2	7	nomatch	danser	-1	1	p	0.6336200000000001
567.4631	0.2	cendrier	61	noun	list	2	8	nomatch	danser	-1	1	p	0.6336200000000001
567.6462	0.0	+	61	noun	list	2	9	nomatch	danser	-1	1	p	0.6336200000000001
568.0464000000001	0.2	vite	61	noun	list	2	10	nomatch	danser	-1	1	p	0.6336200000000001
568.2463	0.0	+	61	noun	list	2	11	nomatch	danser	-1	1	p	0.6336200000000001
568.6457	0.0	+	61	noun	list	2	12	nomatch	danser	-1	1	p	0.6336200000000001
570.6446	0.0	DANSER	61	noun	list	2	13	nomatch	danser	-1	1	p	0.6336200000000001
571.3443	0.0	+	61	noun	list	2	14	nomatch	danser	-1	1	p	0.6336200000000001
571.2783000000001	0.0	[response]	61	noun	list	2	15	nomatch	danser	-1	1	p	0.6336200000000001
573.0436	0.0	+	62	verb	phrase	4	1	match	va	3	1	y	0.51592
573.5934	0.2	xgplnf	62	verb	phrase	4	2	match	va	3	1	y	0.51592
573.7933	0.0	+	62	verb	phrase	4	3	match	va	3	1	y	0.51592
574.1931000000001	0.2	yves	62	verb	phrase	4	4	match	va	3	1	y	0.51592
574.393	0.0	+	62	verb	phrase	4	5	match	va	3	1	y	0.51592
574.7928	0.2	va	62	verb	phrase	4	6	match	va	3	1	y	0.51592
574.9927	0.0	+	62	verb	phrase	4	7	match	va	3	1	y	0.51592
575.3926	0.2	beaucoup	62	verb	phrase	4	8	match	va	3	1	y	0.51592
575.6099	0.0	+	62	verb	phrase	4	9	match	va	3	1	y	0.51592
575.9923	0.2	voyager	62	verb	phrase	4	10	match	va	3	1	y	0.51592
576.1922000000001	0.0	+	62	verb	phrase	4	11	match	va	3	1	y	0.51592
576.592	0.0	+	62	verb	phrase	4	12	match	va	3	1	y	0.51592
578.5912000000001	0.0	VA	62	verb	phrase	4	13	match	va	3	1	y	0.51592
579.1742	0.0	+	62	verb	phrase	4	14	match	va	3	1	y	0.51592
579.1071000000001	0.0	[response]	62	verb	phrase	4	15	match	va	3	1	y	0.51592
589.0032	0.0	+	63	verb	phrase	1	1	nomatch	blanc	-1	1	p	0.41802
589.5363	0.2	qhfbw	63	verb	phrase	1	2	nomatch	blanc	-1	1	p	0.41802
589.7362	0.0	+	63	verb	phrase	1	3	nomatch	blanc	-1	1	p	0.41802
590.1361	0.2	hgvw	63	verb	phrase	1	4	nomatch	blanc	-1	1	p	0.41802
590.336	0.0	+	63	verb	phrase	1	5	nomatch	blanc	-1	1	p	0.41802
590.7358	0.2	jq	63	verb	phrase	1	6	nomatch	blanc	-1	1	p	0.41802
590.9357	0.0	+	63	verb	phrase	1	7	nomatch	blanc	-1	1	p	0.41802
591.3356	0.2	rxbz	63	verb	phrase	1	8	nomatch	blanc	-1	1	p	0.41802
591.5354	0.0	+	63	verb	phrase	1	9	nomatch	blanc	-1	1	p	0.41802
591.9353	0.2	rouler	63	verb	phrase	1	10	nomatch	blanc	-1	1	p	0.41802
592.1352	0.0	+	63	verb	phrase	1	11	nomatch	blanc	-1	1	p	0.41802
592.535	0.0	+	63	verb	phrase	1	12	nomatch	blanc	-1	1	p	0.41802
594.5341	0.0	BLANC	63	verb	phrase	1	13	nomatch	blanc	-1	1	p	0.41802
595.0173	0.0	+	63	verb	phrase	1	14	nomatch	blanc	-1	1	p	0.41802
594.9522000000001	0.0	[response]	63	verb	phrase	1	15	nomatch	blanc	-1	1	p	0.41802
596.9497	0.0	+	64	noun	phrase	1	1	nomatch	mieux	-1	1	p	0.60759
597.4995	0.2	bpjmrqk	64	noun	phrase	1	2	nomatch	mieux	-1	1	p	0.60759
597.6994	0.0	+	64	noun	phrase	1	3	nomatch	mieux	-1	1	p	0.60759
598.0993	0.2	lnmr	64	noun	phrase	1	4	nomatch	mieux	-1	1	p	0.60759
598.2991000000001	0.0	+	64	noun	phrase	1	5	nomatch	mieux	-1	1	p	0.60759
598.6990000000001	0.2	ldk	64	noun	phrase	1	6	nomatch	mieux	-1	1	p	0.60759
598.8989	0.0	+	64	noun	phrase	1	7	nomatch	mieux	-1	1	p	0.60759
599.2992	0.2	xgpcz	64	noun	phrase	1	8	nomatch	mieux	-1	1	p	0.60759
599.516	0.0	+	64	noun	phrase	1	9	nomatch	mieux	-1	1	p	0.60759
599.8984	0.2	cendrier	64	noun	phrase	1	10	nomatch	mieux	-1	1	p	0.60759
600.0984	0.0	+	64	noun	phrase	1	11	nomatch	mieux	-1	1	p	0.60759
600.4982	0.0	+	64	noun	phrase	1	12	nomatch	mieux	-1	1	p	0.60759
602.5146	0.0	MIEUX	64	noun	phrase	1	13	nomatch	mieux	-1	1	p	0.60759
603.197	0.0	+	64	noun	phrase	1	14	nomatch	mieux	-1	1	p	0.60759
603.1222	0.0	[response]	64	noun	phrase	1	15	nomatch	mieux	-1	1	p	0.60759
612.9429	0.0	+	65	verb	list	1	1	nomatch	plonger	-1	1	p	0.64591
613.4429	0.2	npsqc	65	verb	list	1	2	nomatch	plonger	-1	1	p	0.64591
613.6429	0.0	+	65	verb	list	1	3	nomatch	plonger	-1	1	p	0.64591
614.0422	0.2	pfmr	65	verb	list	1	4	nomatch	plonger	-1	1	p	0.64591
614.2429	0.0	+	65	verb	list	1	5	nomatch	plonger	-1	1	p	0.64591
614.642	0.2	hfs	65	verb	list	1	6	nomatch	plonger	-1	1	p	0.64591
614.8419	0.0	+	65	verb	list	1	7	nomatch	plonger	-1	1	p	0.64591
615.2417	0.2	vdzg	65	verb	list	1	8	nomatch	plonger	-1	1	p	0.64591
615.4416	0.0	+	65	verb	list	1	9	nomatch	plonger	-1	1	p	0.64591
615.8414	0.2	jongler	65	verb	list	1	10	nomatch	plonger	-1	1	p	0.64591
616.0419	0.0	+	65	verb	list	1	11	nomatch	plonger	-1	1	p	0.64591
616.458	0.0	+	65	verb	list	1	12	nomatch	plonger	-1	1	p	0.64591
618.4403	0.0	PLONGER	65	verb	list	1	13	nomatch	plonger	-1	1	p	0.64591
619.1902	0.0	+	65	verb	list	1	14	nomatch	plonger	-1	1	p	0.64591
619.0862	0.0	[response]	65	verb	list	1	15	nomatch	plonger	-1	1	p	0.64591
628.8527	0.0	+	66	verb	list	1	1	nomatch	danser	-1	1	p	0.68605
629.3862	0.2	kftp	66	verb	list	1	2	nomatch	danser	-1	1	p	0.68605
629.5857	0.0	+	66	verb	list	1	3	nomatch	danser	-1	1	p	0.68605
629.9852	0.2	lnmr	66	verb	list	1	4	nomatch	danser	-1	1	p	0.68605
630.1851	0.0	+	66	verb	list	1	5	nomatch	danser	-1	1	p	0.68605
630.585	0.2	vzgp	66	verb	list	1	6	nomatch	danser	-1	1	p	0.68605
630.7849	0.0	+	66	verb	list	1	7	nomatch	danser	-1	1	p	0.68605
631.1852	0.2	qtjhvsb	66	verb	list	1	8	nomatch	danser	-1	1	p	0.68605
631.3851	0.0	+	66	verb	list	1	9	nomatch	danser	-1	1	p	0.68605
631.7846000000001	0.2	beau	66	verb	list	1	10	nomatch	danser	-1	1	p	0.68605
631.9845	0.0	+	66	verb	list	1	11	nomatch	danser	-1	1	p	0.68605
632.3842	0.0	+	66	verb	list	1	12	nomatch	danser	-1	1	p	0.68605
634.3999	0.0	DANSER	66	verb	list	1	13	nomatch	danser	-1	1	p	0.68605
635.1496	0.0	+	66	verb	list	1	14	nomatch	danser	-1	1	p	0.68605
635.086	0.0	[response]	66	verb	list	1	15	nomatch	danser	-1	1	p	0.68605
636.7989	0.0	+	67	noun	phrase	4	1	nomatch	nager	-1	1	p	1.2215
637.3486	0.2	zblwn	67	noun	phrase	4	2	nomatch	nager	-1	1	p	1.2215
637.5486	0.0	+	67	noun	phrase	4	3	nomatch	nager	-1	1	p	1.2215
637.9484	0.2	vers	67	noun	phrase	4	4	nomatch	nager	-1	1	p	1.2215
638.1483000000001	0.0	+	67	noun	phrase	4	5	nomatch	nager	-1	1	p	1.2215
638.5481	0.2	mon	67	noun	phrase	4	6	nomatch	nager	-1	1	p	1.2215
638.7486	0.0	+	67	noun	phrase	4	7	nomatch	nager	-1	1	p	1.2215
639.1479	0.2	casier	67	noun	phrase	4	8	nomatch	nager	-1	1	p	1.2215
639.3478	0.0	+	67	noun	phrase	4	9	nomatch	nager	-1	1	p	1.2215
639.7476	0.2	bleu	67	noun	phrase	4	10	nomatch	nager	-1	1	p	1.2215
639.9475	0.0	+	67	noun	phrase	4	11	nomatch	nager	-1	1	p	1.2215
640.3473	0.0	+	67	noun	phrase	4	12	nomatch	nager	-1	1	p	1.2215
642.3464	0.0	NAGER	67	noun	phrase	4	13	nomatch	nager	-1	1	p	1.2215
643.6465000000001	0.0	+	67	noun	phrase	4	14	nomatch	nager	-1	1	p	1.2215
643.5679	0.0	[response]	67	noun	phrase	4	15	nomatch	nager	-1	1	p	1.2215
652.7419	0.0	+	68	verb	list	2	1	nomatch	clavier	-1	1	p	0.61046
653.2916	0.2	xvsg	68	verb	list	2	2	nomatch	clavier	-1	1	p	0.61046
653.4915	0.0	+	68	verb	list	2	3	nomatch	clavier	-1	1	p	0.61046
653.8914	0.2	dgpc	68	verb	list	2	4	nomatch	clavier	-1	1	p	0.61046
654.0913	0.0	+	68	verb	list	2	5	nomatch	clavier	-1	1	p	0.61046
654.4911000000001	0.2	wvrh	68	verb	list	2	6	nomatch	clavier	-1	1	p	0.61046
654.7082	0.0	+	68	verb	list	2	7	nomatch	clavier	-1	1	p	0.61046
655.0914	0.2	parader	68	verb	list	2	8	nomatch	clavier	-1	1	p	0.61046
655.2908	0.0	+	68	verb	list	2	9	nomatch	clavier	-1	1	p	0.61046
655.6906	0.2	blanc	68	verb	list	2	10	nomatch	clavier	-1	1	p	0.61046
655.9079	0.0	+	68	verb	list	2	11	nomatch	clavier	-1	1	p	0.61046
656.2903	0.0	+	68	verb	list	2	12	nomatch	clavier	-1	1	p	0.61046
658.2894	0.0	CLAVIER	68	verb	list	2	13	nomatch	clavier	-1	1	p	0.61046
658.9558000000001	0.0	+	68	verb	list	2	14	nomatch	clavier	-1	1	p	0.61046
658.8999	0.0	[response]	68	verb	list	2	15	nomatch	clavier	-1	1	p	0.61046
660.6884	0.0	+	69	verb	phrase	1	1	nomatch	rouler	-1	1	p	0.59754
661.2381	0.2	hgw	69	verb	phrase	1	2	nomatch	rouler	-1	1	p	0.59754
661.4381	0.0	+	69	verb	phrase	1	3	nomatch	rouler	-1	1	p	0.59754
661.8379	0.2	lnpz	69	verb	phrase	1	4	nomatch	rouler	-1	1	p	0.59754
662.0378000000001	0.0	+	69	verb	phrase	1	5	nomatch	rouler	-1	1	p	0.59754
662.4383	0.2	glhb	69	verb	phrase	1	6	nomatch	rouler	-1	1	p	0.59754
662.638	0.0	+	69	verb	phrase	1	7	nomatch	rouler	-1	1	p	0.59754
663.0373000000001	0.2	vrpg	69	verb	phrase	1	8	nomatch	rouler	-1	1	p	0.59754
663.2373	0.0	+	69	verb	phrase	1	9	nomatch	rouler	-1	1	p	0.59754
663.6371	0.2	danser	69	verb	phrase	1	10	nomatch	rouler	-1	1	p	0.59754
663.837	0.0	+	69	verb	phrase	1	11	nomatch	rouler	-1	1	p	0.59754
664.2369	0.0	+	69	verb	phrase	1	12	nomatch	rouler	-1	1	p	0.59754
666.2359	0.0	ROULER	69	verb	phrase	1	13	nomatch	rouler	-1	1	p	0.59754
666.9863	0.0	+	69	verb	phrase	1	14	nomatch	rouler	-1	1	p	0.59754
666.8335000000001	0.0	[response]	69	verb	phrase	1	15	nomatch	rouler	-1	1	p	0.59754
668.7355	0.0	+	70	verb	phrase	1	1	nomatch	plonger	-1	1	p	0.55615
669.2017000000001	0.2	mpldnj	70	verb	phrase	1	2	nomatch	plonger	-1	1	p	0.55615
669.4183	0.0	+	70	verb	phrase	1	3	nomatch	plonger	-1	1	p	0.55615
669.7844	0.2	dgpc	70	verb	phrase	1	4	nomatch	plonger	-1	1	p	0.55615
669.9843	0.0	+	70	verb	phrase	1	5	nomatch	plonger	-1	1	p	0.55615
670.3841	0.2	jq	70	verb	phrase	1	6	nomatch	plonger	-1	1	p	0.55615
670.5840000000001	0.0	+	70	verb	phrase	1	7	nomatch	plonger	-1	1	p	0.55615
670.9839000000001	0.2	kstm	70	verb	phrase	1	8	nomatch	plonger	-1	1	p	0.55615
671.1838	0.0	+	70	verb	phrase	1	9	nomatch	plonger	-1	1	p	0.55615
671.5837	0.2	parader	70	verb	phrase	1	10	nomatch	plonger	-1	1	p	0.55615
671.7836	0.0	+	70	verb	phrase	1	11	nomatch	plonger	-1	1	p	0.55615
672.2	0.0	+	70	verb	phrase	1	12	nomatch	plonger	-1	1	p	0.55615
674.1996	0.0	PLONGER	70	verb	phrase	1	13	nomatch	plonger	-1	1	p	0.55615
674.8988	0.0	+	70	verb	phrase	1	14	nomatch	plonger	-1	1	p	0.55615
674.7557	0.0	[response]	70	verb	phrase	1	15	nomatch	plonger	-1	1	p	0.55615
684.5945	0.0	+	71	verb	phrase	3	1	match	voyager	4	1	y	0.71595
685.1443	0.2	qfjvwc	71	verb	phrase	3	2	match	voyager	4	1	y	0.71595
685.3449	0.0	+	71	verb	phrase	3	3	match	voyager	4	1	y	0.71595
685.7444	0.2	pfmr	71	verb	phrase	3	4	match	voyager	4	1	y	0.71595
685.9441	0.0	+	71	verb	phrase	3	5	match	voyager	4	1	y	0.71595
686.3438	0.2	doit	71	verb	phrase	3	6	match	voyager	4	1	y	0.71595
686.5437000000001	0.0	+	71	verb	phrase	3	7	match	voyager	4	1	y	0.71595
686.9435	0.2	voyager	71	verb	phrase	3	8	match	voyager	4	1	y	0.71595
687.1434	0.0	+	71	verb	phrase	3	9	match	voyager	4	1	y	0.71595
687.5432000000001	0.2	vite	71	verb	phrase	3	10	match	voyager	4	1	y	0.71595
687.7431	0.0	+	71	verb	phrase	3	11	match	voyager	4	1	y	0.71595
688.143	0.0	+	71	verb	phrase	3	12	match	voyager	4	1	y	0.71595
690.1421	0.0	VOYAGER	71	verb	phrase	3	13	match	voyager	4	1	y	0.71595
690.9251	0.0	+	71	verb	phrase	3	14	match	voyager	4	1	y	0.71595
690.8581	0.0	[response]	71	verb	phrase	3	15	match	voyager	4	1	y	0.71595
692.541	0.0	+	72	noun	phrase	3	1	match	clavier	5	0	p	0.81273
693.0908000000001	0.2	xglk	72	noun	phrase	3	2	match	clavier	5	0	p	0.81273
693.2907	0.0	+	72	noun	phrase	3	3	match	clavier	5	0	p	0.81273
693.6905	0.2	kxqr	72	noun	phrase	3	4	match	clavier	5	0	p	0.81273
693.8904	0.0	+	72	noun	phrase	3	5	match	clavier	5	0	p	0.81273
694.2903	0.2	son	72	noun	phrase	3	6	match	clavier	5	0	p	0.81273
694.4902000000001	0.0	+	72	noun	phrase	3	7	match	clavier	5	0	p	0.81273
694.89	0.2	nouveau	72	noun	phrase	3	8	match	clavier	5	0	p	0.81273
695.0899000000001	0.0	+	72	noun	phrase	3	9	match	clavier	5	0	p	0.81273
695.5066	0.2	clavier	72	noun	phrase	3	10	match	clavier	5	0	p	0.81273
695.6896	0.0	+	72	noun	phrase	3	11	match	clavier	5	0	p	0.81273
696.0899000000001	0.0	+	72	noun	phrase	3	12	match	clavier	5	0	p	0.81273
698.0886	0.0	CLAVIER	72	noun	phrase	3	13	match	clavier	5	0	p	0.81273
698.9549000000001	0.0	+	72	noun	phrase	3	14	match	clavier	5	0	p	0.81273
698.9013	0.0	[response]	72	noun	phrase	3	15	match	clavier	5	0	p	0.81273
700.4875000000001	0.0	+	73	verb	phrase	2	1	nomatch	vers	-1	1	p	0.5521
701.0373000000001	0.2	qpkzld	73	verb	phrase	2	2	nomatch	vers	-1	1	p	0.5521
701.2372	0.0	+	73	verb	phrase	2	3	nomatch	vers	-1	1	p	0.5521
701.6370000000001	0.2	pfmr	73	verb	phrase	2	4	nomatch	vers	-1	1	p	0.5521
701.8369	0.0	+	73	verb	phrase	2	5	nomatch	vers	-1	1	p	0.5521
702.2368	0.2	jq	73	verb	phrase	2	6	nomatch	vers	-1	1	p	0.5521
702.4367	0.0	+	73	verb	phrase	2	7	nomatch	vers	-1	1	p	0.5521
702.8365	0.2	trop	73	verb	phrase	2	8	nomatch	vers	-1	1	p	0.5521
703.0366	0.0	+	73	verb	phrase	2	9	nomatch	vers	-1	1	p	0.5521
703.4368000000001	0.2	jongler	73	verb	phrase	2	10	nomatch	vers	-1	1	p	0.5521
703.6363	0.0	+	73	verb	phrase	2	11	nomatch	vers	-1	1	p	0.5521
704.0360000000001	0.0	+	73	verb	phrase	2	12	nomatch	vers	-1	1	p	0.5521
706.0353	0.0	VERS	73	verb	phrase	2	13	nomatch	vers	-1	1	p	0.5521
706.6515	0.0	+	73	verb	phrase	2	14	nomatch	vers	-1	1	p	0.5521
706.5874	0.0	[response]	73	verb	phrase	2	15	nomatch	vers	-1	1	p	0.5521
708.4341000000001	0.0	+	74	verb	phrase	2	1	nomatch	va	-1	1	p	0.55415
708.9844	0.2	dts	74	verb	phrase	2	2	nomatch	va	-1	1	p	0.55415
709.184	0.0	+	74	verb	phrase	2	3	nomatch	va	-1	1	p	0.55415
709.6004	0.2	dsv	74	verb	phrase	2	4	nomatch	va	-1	1	p	0.55415
709.8003	0.0	+	74	verb	phrase	2	5	nomatch	va	-1	1	p	0.55415
710.2	0.2	glhb	74	verb	phrase	2	6	nomatch	va	-1	1	p	0.55415
710.3999	0.0	+	74	verb	phrase	2	7	nomatch	va	-1	1	p	0.55415
710.7997	0.2	mieux	74	verb	phrase	2	8	nomatch	va	-1	1	p	0.55415
710.9996	0.0	+	74	verb	phrase	2	9	nomatch	va	-1	1	p	0.55415
711.3994	0.2	parader	74	verb	phrase	2	10	nomatch	va	-1	1	p	0.55415
711.5993	0.0	+	74	verb	phrase	2	11	nomatch	va	-1	1	p	0.55415
711.9992	0.0	+	74	verb	phrase	2	12	nomatch	va	-1	1	p	0.55415
714.015	0.0	VA	74	verb	phrase	2	13	nomatch	va	-1	1	p	0.55415
714.6486	0.0	+	74	verb	phrase	2	14	nomatch	va	-1	1	p	0.55415
714.5691	0.0	[response]	74	verb	phrase	2	15	nomatch	va	-1	1	p	0.55415
716.3972	0.0	+	75	verb	phrase	1	1	match	chasser	5	1	y	0.44871
716.947	0.2	fthrbw	75	verb	phrase	1	2	match	chasser	5	1	y	0.44871
717.1469000000001	0.0	+	75	verb	phrase	1	3	match	chasser	5	1	y	0.44871
717.5467	0.2	dgpc	75	verb	phrase	1	4	match	chasser	5	1	y	0.44871
717.7466000000001	0.0	+	75	verb	phrase	1	5	match	chasser	5	1	y	0.44871
718.1464	0.2	vzgp	75	verb	phrase	1	6	match	chasser	5	1	y	0.44871
718.3464	0.0	+	75	verb	phrase	1	7	match	chasser	5	1	y	0.44871
718.7466000000001	0.2	mkfgxzbc	75	verb	phrase	1	8	match	chasser	5	1	y	0.44871
718.9463000000001	0.0	+	75	verb	phrase	1	9	match	chasser	5	1	y	0.44871
719.3626	0.2	chasser	75	verb	phrase	1	10	match	chasser	5	1	y	0.44871
719.5631	0.0	+	75	verb	phrase	1	11	match	chasser	5	1	y	0.44871
719.9457	0.0	+	75	verb	phrase	1	12	match	chasser	5	1	y	0.44871
721.9448	0.0	CHASSER	75	verb	phrase	1	13	match	chasser	5	1	y	0.44871
722.4612	0.0	+	75	verb	phrase	1	14	match	chasser	5	1	y	0.44871
722.3935	0.0	[response]	75	verb	phrase	1	15	match	chasser	5	1	y	0.44871
724.3437	0.0	+	76	verb	list	2	1	match	jongler	4	1	y	0.5591
724.8935	0.2	dkm	76	verb	list	2	2	match	jongler	4	1	y	0.5591
725.0934	0.0	+	76	verb	list	2	3	match	jongler	4	1	y	0.5591
725.4932	0.2	rtgc	76	verb	list	2	4	match	jongler	4	1	y	0.5591
725.6931000000001	0.0	+	76	verb	list	2	5	match	jongler	4	1	y	0.5591
726.0929	0.2	hfs	76	verb	list	2	6	match	jongler	4	1	y	0.5591
726.2933	0.0	+	76	verb	list	2	7	match	jongler	4	1	y	0.5591
726.7095	0.2	jongler	76	verb	list	2	8	match	jongler	4	1	y	0.5591
726.8933000000001	0.0	+	76	verb	list	2	9	match	jongler	4	1	y	0.5591
727.2928	0.2	noir	76	verb	list	2	10	match	jongler	4	1	y	0.5591
727.4929	0.0	+	76	verb	list	2	11	match	jongler	4	1	y	0.5591
727.8922	0.0	+	76	verb	list	2	12	match	jongler	4	1	y	0.5591
729.9087000000001	0.0	JONGLER	76	verb	list	2	13	match	jongler	4	1	y	0.5591
730.5413	0.0	+	76	verb	list	2	14	match	jongler	4	1	y	0.5591
730.4678	0.0	[response]	76	verb	list	2	15	match	jongler	4	1	y	0.5591
732.2902	0.0	+	77	verb	phrase	3	1	match	rouler	5	1	y	0.56949
732.84	0.2	qdnmrcg	77	verb	phrase	3	2	match	rouler	5	1	y	0.56949
733.0399	0.0	+	77	verb	phrase	3	3	match	rouler	5	1	y	0.56949
733.4563	0.2	hgvw	77	verb	phrase	3	4	match	rouler	5	1	y	0.56949
733.6402	0.0	+	77	verb	phrase	3	5	match	rouler	5	1	y	0.56949
734.0395	0.2	doit	77	verb	phrase	3	6	match	rouler	5	1	y	0.56949
734.2394	0.0	+	77	verb	phrase	3	7	match	rouler	5	1	y	0.56949
734.6392000000001	0.2	beaucoup	77	verb	phrase	3	8	match	rouler	5	1	y	0.56949
734.8391	0.0	+	77	verb	phrase	3	9	match	rouler	5	1	y	0.56949
735.2389000000001	0.2	rouler	77	verb	phrase	3	10	match	rouler	5	1	y	0.56949
735.4388	0.0	+	77	verb	phrase	3	11	match	rouler	5	1	y	0.56949
735.8387	0.0	+	77	verb	phrase	3	12	match	rouler	5	1	y	0.56949
737.8382	0.0	ROULER	77	verb	phrase	3	13	match	rouler	5	1	y	0.56949
738.5711	0.0	+	77	verb	phrase	3	14	match	rouler	5	1	y	0.56949
738.4077	0.0	[response]	77	verb	phrase	3	15	match	rouler	5	1	y	0.56949
740.2367	0.0	+	78	verb	phrase	1	1	nomatch	plus	-1	1	p	0.53421
740.7871	0.2	dhjwb	78	verb	phrase	1	2	nomatch	plus	-1	1	p	0.53421
740.9869	0.0	+	78	verb	phrase	1	3	nomatch	plus	-1	1	p	0.53421
741.3862	0.2	rtgc	78	verb	phrase	1	4	nomatch	plus	-1	1	p	0.53421
741.5861	0.0	+	78	verb	phrase	1	5	nomatch	plus	-1	1	p	0.53421
741.9859	0.2	jq	78	verb	phrase	1	6	nomatch	plus	-1	1	p	0.53421
742.1859000000001	0.0	+	78	verb	phrase	1	7	nomatch	plus	-1	1	p	0.53421
742.5857	0.2	lkvjn	78	verb	phrase	1	8	nomatch	plus	-1	1	p	0.53421
742.7856	0.0	+	78	verb	phrase	1	9	nomatch	plus	-1	1	p	0.53421
743.1854000000001	0.2	mieux	78	verb	phrase	1	10	nomatch	plus	-1	1	p	0.53421
743.3853	0.0	+	78	verb	phrase	1	11	nomatch	plus	-1	1	p	0.53421
743.7852	0.0	+	78	verb	phrase	1	12	nomatch	plus	-1	1	p	0.53421
745.7846000000001	0.0	PLUS	78	verb	phrase	1	13	nomatch	plus	-1	1	p	0.53421
746.384	0.0	+	78	verb	phrase	1	14	nomatch	plus	-1	1	p	0.53421
746.3188	0.0	[response]	78	verb	phrase	1	15	nomatch	plus	-1	1	p	0.53421
748.1999000000001	0.0	+	79	verb	list	2	1	match	vert	5	1	y	0.41601
748.7496	0.2	wtsbfh	79	verb	list	2	2	match	vert	5	1	y	0.41601
748.9496	0.0	+	79	verb	list	2	3	match	vert	5	1	y	0.41601
749.3494000000001	0.2	lnpz	79	verb	list	2	4	match	vert	5	1	y	0.41601
749.5666	0.0	+	79	verb	list	2	5	match	vert	5	1	y	0.41601
749.9663	0.2	wvrh	79	verb	list	2	6	match	vert	5	1	y	0.41601
750.166	0.0	+	79	verb	list	2	7	match	vert	5	1	y	0.41601
750.5496	0.2	danser	79	verb	list	2	8	match	vert	5	1	y	0.41601
750.766	0.0	+	79	verb	list	2	9	match	vert	5	1	y	0.41601
751.1486	0.2	vert	79	verb	list	2	10	match	vert	5	1	y	0.41601
751.3485000000001	0.0	+	79	verb	list	2	11	match	vert	5	1	y	0.41601
751.7489	0.0	+	79	verb	list	2	12	match	vert	5	1	y	0.41601
753.7475000000001	0.0	VERT	79	verb	list	2	13	match	vert	5	1	y	0.41601
754.2306	0.0	+	79	verb	list	2	14	match	vert	5	1	y	0.41601
754.1635	0.0	[response]	79	verb	list	2	15	match	vert	5	1	y	0.41601
756.1464	0.0	+	80	verb	list	2	1	nomatch	jongler	-1	1	p	0.73817
756.6962	0.2	fhzrkjg	80	verb	list	2	2	nomatch	jongler	-1	1	p	0.73817
756.8961	0.0	+	80	verb	list	2	3	nomatch	jongler	-1	1	p	0.73817
757.2959000000001	0.2	njr	80	verb	list	2	4	nomatch	jongler	-1	1	p	0.73817
757.4958	0.0	+	80	verb	list	2	5	nomatch	jongler	-1	1	p	0.73817
757.8961	0.2	jq	80	verb	list	2	6	nomatch	jongler	-1	1	p	0.73817
758.0962000000001	0.0	+	80	verb	list	2	7	nomatch	jongler	-1	1	p	0.73817
758.4958	0.2	grand	80	verb	list	2	8	nomatch	jongler	-1	1	p	0.73817
758.6953	0.0	+	80	verb	list	2	9	nomatch	jongler	-1	1	p	0.73817
759.0951	0.2	parader	80	verb	list	2	10	nomatch	jongler	-1	1	p	0.73817
759.2950000000001	0.0	+	80	verb	list	2	11	nomatch	jongler	-1	1	p	0.73817
759.6951	0.0	+	80	verb	list	2	12	nomatch	jongler	-1	1	p	0.73817
761.6947	0.0	JONGLER	80	verb	list	2	13	nomatch	jongler	-1	1	p	0.73817
762.4936	0.0	+	80	verb	list	2	14	nomatch	jongler	-1	1	p	0.73817
764.0929	0.0	+	80	verb	list	2	15	nomatch	jongler	-1	1	p	0.73817
765.0092	0.0	+	80	verb	list	2	16	nomatch	jongler	-1	1	p	0.73817
765.1091	0.0	+	80	verb	list	2	17	nomatch	jongler	-1	1	p	0.73817
766.5085	0.0	+	80	verb	list	2	18	nomatch	jongler	-1	1	p	0.73817
766.6085	0.0	+	80	verb	list	2	19	nomatch	jongler	-1	1	p	0.73817
768.0079000000001	0.0	+	80	verb	list	2	20	nomatch	jongler	-1	1	p	0.73817
768.1078	0.0	+	80	verb	list	2	21	nomatch	jongler	-1	1	p	0.73817
769.5072	0.0	+	80	verb	list	2	22	nomatch	jongler	-1	1	p	0.73817
769.6071000000001	0.0	+	80	verb	list	2	23	nomatch	jongler	-1	1	p	0.73817
771.0065000000001	0.0	+	80	verb	list	2	24	nomatch	jongler	-1	1	p	0.73817
771.1065	0.0	+	80	verb	list	2	25	nomatch	jongler	-1	1	p	0.73817
772.5225	0.0	+	80	verb	list	2	26	nomatch	jongler	-1	1	p	0.73817
772.6225000000001	0.0	+	80	verb	list	2	27	nomatch	jongler	-1	1	p	0.73817
774.0052000000001	0.0	+	80	verb	list	2	28	nomatch	jongler	-1	1	p	0.73817
774.1052	0.0	+	80	verb	list	2	29	nomatch	jongler	-1	1	p	0.73817
775.5212	0.0	+	80	verb	list	2	30	nomatch	jongler	-1	1	p	0.73817
775.6212	0.0	+	80	verb	list	2	31	nomatch	jongler	-1	1	p	0.73817
777.0039	0.0	+	80	verb	list	2	32	nomatch	jongler	-1	1	p	0.73817
777.1038	0.0	+	80	verb	list	2	33	nomatch	jongler	-1	1	p	0.73817
778.5199	0.0	+	80	verb	list	2	34	nomatch	jongler	-1	1	p	0.73817
778.6198	0.0	+	80	verb	list	2	35	nomatch	jongler	-1	1	p	0.73817
780.9188	0.0	+	80	verb	list	2	36	nomatch	jongler	-1	1	p	0.73817
762.4328	0.0	[response]	80	verb	list	2	37	nomatch	jongler	-1	1	p	0.73817
