onset	duration	stim	trial_number	trial_type	trial_structure	trial_length	sequential_position	probe_type	probe	probe_position	response_correct	response_key	response_time
0.059600000000003206	0.0	+	1	verb	phrase	4	1	match	tard	5	1	y	0.68556
0.5427000000000035	0.2	bxvrkhz	1	verb	phrase	4	2	match	tard	5	1	y	0.68556
0.742600000000003	0.0	+	1	verb	phrase	4	3	match	tard	5	1	y	0.68556
1.1425000000000054	0.2	jean	1	verb	phrase	4	4	match	tard	5	1	y	0.68556
1.342400000000005	0.0	+	1	verb	phrase	4	5	match	tard	5	1	y	0.68556
1.742200000000004	0.2	va	1	verb	phrase	4	6	match	tard	5	1	y	0.68556
1.9421000000000035	0.0	+	1	verb	phrase	4	7	match	tard	5	1	y	0.68556
2.3419000000000025	0.2	jongler	1	verb	phrase	4	8	match	tard	5	1	y	0.68556
2.5419000000000054	0.0	+	1	verb	phrase	4	9	match	tard	5	1	y	0.68556
2.9417000000000044	0.2	tard	1	verb	phrase	4	10	match	tard	5	1	y	0.68556
3.141600000000004	0.0	+	1	verb	phrase	4	11	match	tard	5	1	y	0.68556
3.541400000000003	0.0	+	1	verb	phrase	4	12	match	tard	5	1	y	0.68556
5.5405000000000015	0.0	TARD	1	verb	phrase	4	13	match	tard	5	1	y	0.68556
6.290200000000006	0.0	+	1	verb	phrase	4	14	match	tard	5	1	y	0.68556
6.226100000000002	0.0	[response]	1	verb	phrase	4	15	match	tard	5	1	y	0.68556
7.9395000000000024	0.0	+	2	noun	list	1	1	match	mieux	5	1	y	0.5885500000000001
8.489200000000004	0.2	fgzxt	2	noun	list	1	2	match	mieux	5	1	y	0.5885500000000001
8.6892	0.0	+	2	noun	list	1	3	match	mieux	5	1	y	0.5885500000000001
9.089000000000006	0.2	lnpz	2	noun	list	1	4	match	mieux	5	1	y	0.5885500000000001
9.288900000000005	0.0	+	2	noun	list	1	5	match	mieux	5	1	y	0.5885500000000001
9.688700000000004	0.2	wvrh	2	noun	list	1	6	match	mieux	5	1	y	0.5885500000000001
9.888600000000004	0.0	+	2	noun	list	1	7	match	mieux	5	1	y	0.5885500000000001
10.289100000000005	0.2	jnpgfxm	2	noun	list	1	8	match	mieux	5	1	y	0.5885500000000001
10.489000000000004	0.0	+	2	noun	list	1	9	match	mieux	5	1	y	0.5885500000000001
10.888200000000005	0.2	mieux	2	noun	list	1	10	match	mieux	5	1	y	0.5885500000000001
11.088100000000004	0.0	+	2	noun	list	1	11	match	mieux	5	1	y	0.5885500000000001
11.487900000000003	0.0	+	2	noun	list	1	12	match	mieux	5	1	y	0.5885500000000001
13.487000000000002	0.0	MIEUX	2	noun	list	1	13	match	mieux	5	1	y	0.5885500000000001
14.136800000000001	0.0	+	2	noun	list	1	14	match	mieux	5	1	y	0.5885500000000001
14.075600000000001	0.0	[response]	2	noun	list	1	15	match	mieux	5	1	y	0.5885500000000001
15.886000000000003	0.0	+	3	noun	phrase	1	1	match	sablier	5	1	y	0.38526
16.435700000000004	0.2	mrvpk	3	noun	phrase	1	2	match	sablier	5	1	y	0.38526
16.635600000000004	0.0	+	3	noun	phrase	1	3	match	sablier	5	1	y	0.38526
17.035500000000006	0.2	lnmr	3	noun	phrase	1	4	match	sablier	5	1	y	0.38526
17.235400000000006	0.0	+	3	noun	phrase	1	5	match	sablier	5	1	y	0.38526
17.635200000000005	0.2	hfs	3	noun	phrase	1	6	match	sablier	5	1	y	0.38526
17.835100000000004	0.0	+	3	noun	phrase	1	7	match	sablier	5	1	y	0.38526
18.234900000000003	0.2	bdkwc	3	noun	phrase	1	8	match	sablier	5	1	y	0.38526
18.434900000000006	0.0	+	3	noun	phrase	1	9	match	sablier	5	1	y	0.38526
18.835299999999997	0.2	sablier	3	noun	phrase	1	10	match	sablier	5	1	y	0.38526
19.035100000000007	0.0	+	3	noun	phrase	1	11	match	sablier	5	1	y	0.38526
19.451299999999996	0.0	+	3	noun	phrase	1	12	match	sablier	5	1	y	0.38526
21.450800000000008	0.0	SABLIER	3	noun	phrase	1	13	match	sablier	5	1	y	0.38526
21.9	0.0	+	3	noun	phrase	1	14	match	sablier	5	1	y	0.38526
21.836000000000006	0.0	[response]	3	noun	phrase	1	15	match	sablier	5	1	y	0.38526
23.849899999999998	0.0	+	4	noun	list	2	1	nomatch	tard	-1	1	p	0.71627
24.398900000000005	0.2	rwcm	4	noun	list	2	2	nomatch	tard	-1	1	p	0.71627
24.598800000000004	0.0	+	4	noun	list	2	3	nomatch	tard	-1	1	p	0.71627
24.998600000000003	0.2	hsnx	4	noun	list	2	4	nomatch	tard	-1	1	p	0.71627
25.198600000000006	0.0	+	4	noun	list	2	5	nomatch	tard	-1	1	p	0.71627
25.598400000000005	0.2	glhb	4	noun	list	2	6	nomatch	tard	-1	1	p	0.71627
25.7986	0.0	+	4	noun	list	2	7	nomatch	tard	-1	1	p	0.71627
26.19870000000001	0.2	rocher	4	noun	list	2	8	nomatch	tard	-1	1	p	0.71627
26.398500000000006	0.0	+	4	noun	list	2	9	nomatch	tard	-1	1	p	0.71627
26.7982	0.2	vite	4	noun	list	2	10	nomatch	tard	-1	1	p	0.71627
26.997800000000005	0.0	+	4	noun	list	2	11	nomatch	tard	-1	1	p	0.71627
27.397600000000004	0.0	+	4	noun	list	2	12	nomatch	tard	-1	1	p	0.71627
29.396700000000003	0.0	TARD	4	noun	list	2	13	nomatch	tard	-1	1	p	0.71627
30.179700000000004	0.0	+	4	noun	list	2	14	nomatch	tard	-1	1	p	0.71627
30.113000000000007	0.0	[response]	4	noun	list	2	15	nomatch	tard	-1	1	p	0.71627
31.795700000000004	0.0	+	5	noun	list	1	1	nomatch	blanc	-1	1	p	0.65791
32.345400000000005	0.2	tdbqjn	5	noun	list	1	2	nomatch	blanc	-1	1	p	0.65791
32.545300000000005	0.0	+	5	noun	list	1	3	nomatch	blanc	-1	1	p	0.65791
32.945100000000004	0.2	dsv	5	noun	list	1	4	nomatch	blanc	-1	1	p	0.65791
33.145100000000006	0.0	+	5	noun	list	1	5	nomatch	blanc	-1	1	p	0.65791
33.544900000000005	0.2	ldk	5	noun	list	1	6	nomatch	blanc	-1	1	p	0.65791
33.744800000000005	0.0	+	5	noun	list	1	7	nomatch	blanc	-1	1	p	0.65791
34.144600000000004	0.2	bmlzsqf	5	noun	list	1	8	nomatch	blanc	-1	1	p	0.65791
34.344500000000004	0.0	+	5	noun	list	1	9	nomatch	blanc	-1	1	p	0.65791
34.74450000000001	0.2	plus	5	noun	list	1	10	nomatch	blanc	-1	1	p	0.65791
34.9446	0.0	+	5	noun	list	1	11	nomatch	blanc	-1	1	p	0.65791
35.3448	0.0	+	5	noun	list	1	12	nomatch	blanc	-1	1	p	0.65791
37.3432	0.0	BLANC	5	noun	list	1	13	nomatch	blanc	-1	1	p	0.65791
38.059599999999996	0.0	+	5	noun	list	1	14	nomatch	blanc	-1	1	p	0.65791
38.0011	0.0	[response]	5	noun	list	1	15	nomatch	blanc	-1	1	p	0.65791
47.80570000000001	0.0	+	6	noun	phrase	1	1	match	grand	5	1	y	0.60462
48.2884	0.2	gfbl	6	noun	phrase	1	2	match	grand	5	1	y	0.60462
48.4883	0.0	+	6	noun	phrase	1	3	match	grand	5	1	y	0.60462
48.8881	0.2	dtsr	6	noun	phrase	1	4	match	grand	5	1	y	0.60462
49.088100000000004	0.0	+	6	noun	phrase	1	5	match	grand	5	1	y	0.60462
49.4879	0.2	wvrh	6	noun	phrase	1	6	match	grand	5	1	y	0.60462
49.6878	0.0	+	6	noun	phrase	1	7	match	grand	5	1	y	0.60462
50.0876	0.2	cjzhfmw	6	noun	phrase	1	8	match	grand	5	1	y	0.60462
50.2875	0.0	+	6	noun	phrase	1	9	match	grand	5	1	y	0.60462
50.6873	0.2	grand	6	noun	phrase	1	10	match	grand	5	1	y	0.60462
50.8873	0.0	+	6	noun	phrase	1	11	match	grand	5	1	y	0.60462
51.2871	0.0	+	6	noun	phrase	1	12	match	grand	5	1	y	0.60462
53.286899999999996	0.0	GRAND	6	noun	phrase	1	13	match	grand	5	1	y	0.60462
53.9526	0.0	+	6	noun	phrase	1	14	match	grand	5	1	y	0.60462
53.8915	0.0	[response]	6	noun	phrase	1	15	match	grand	5	1	y	0.60462
55.6851	0.0	+	7	noun	list	3	1	match	vite	5	1	y	0.54429
56.2349	0.2	lmn	7	noun	list	3	2	match	vite	5	1	y	0.54429
56.4348	0.0	+	7	noun	list	3	3	match	vite	5	1	y	0.54429
56.835100000000004	0.2	kxqr	7	noun	list	3	4	match	vite	5	1	y	0.54429
57.051700000000004	0.0	+	7	noun	list	3	5	match	vite	5	1	y	0.54429
57.43500000000001	0.2	doit	7	noun	list	3	6	match	vite	5	1	y	0.54429
57.6347	0.0	+	7	noun	list	3	7	match	vite	5	1	y	0.54429
58.0341	0.2	tablier	7	noun	list	3	8	match	vite	5	1	y	0.54429
58.234	0.0	+	7	noun	list	3	9	match	vite	5	1	y	0.54429
58.633900000000004	0.2	vite	7	noun	list	3	10	match	vite	5	1	y	0.54429
58.833800000000004	0.0	+	7	noun	list	3	11	match	vite	5	1	y	0.54429
59.233700000000006	0.0	+	7	noun	list	3	12	match	vite	5	1	y	0.54429
61.2494	0.0	VITE	7	noun	list	3	13	match	vite	5	1	y	0.54429
61.8997	0.0	+	7	noun	list	3	14	match	vite	5	1	y	0.54429
61.79370000000001	0.0	[response]	7	noun	list	3	15	match	vite	5	1	y	0.54429
63.6483	0.0	+	8	verb	list	1	1	nomatch	mieux	-1	1	p	0.6348
64.19820000000001	0.2	nzmfjb	8	verb	list	1	2	nomatch	mieux	-1	1	p	0.6348
64.398	0.0	+	8	verb	list	1	3	nomatch	mieux	-1	1	p	0.6348
64.7978	0.2	lnpz	8	verb	list	1	4	nomatch	mieux	-1	1	p	0.6348
64.99770000000001	0.0	+	8	verb	list	1	5	nomatch	mieux	-1	1	p	0.6348
65.39750000000001	0.2	wvrh	8	verb	list	1	6	nomatch	mieux	-1	1	p	0.6348
65.5975	0.0	+	8	verb	list	1	7	nomatch	mieux	-1	1	p	0.6348
65.9974	0.2	nxfmj	8	verb	list	1	8	nomatch	mieux	-1	1	p	0.6348
66.1977	0.0	+	8	verb	list	1	9	nomatch	mieux	-1	1	p	0.6348
66.5974	0.2	nager	8	verb	list	1	10	nomatch	mieux	-1	1	p	0.6348
66.79760000000002	0.0	+	8	verb	list	1	11	nomatch	mieux	-1	1	p	0.6348
67.1968	0.0	+	8	verb	list	1	12	nomatch	mieux	-1	1	p	0.6348
69.1959	0.0	MIEUX	8	verb	list	1	13	nomatch	mieux	-1	1	p	0.6348
69.8956	0.0	+	8	verb	list	1	14	nomatch	mieux	-1	1	p	0.6348
69.83070000000001	0.0	[response]	8	verb	list	1	15	nomatch	mieux	-1	1	p	0.6348
71.62819999999999	0.0	+	9	noun	list	4	1	nomatch	moins	-1	1	p	0.61012
72.1446	0.2	tmkfp	9	noun	list	4	2	nomatch	moins	-1	1	p	0.61012
72.34450000000001	0.0	+	9	noun	list	4	3	nomatch	moins	-1	1	p	0.61012
72.745	0.2	sans	9	noun	list	4	4	nomatch	moins	-1	1	p	0.61012
72.9615	0.0	+	9	noun	list	4	5	nomatch	moins	-1	1	p	0.61012
73.344	0.2	peut	9	noun	list	4	6	nomatch	moins	-1	1	p	0.61012
73.54410000000001	0.0	+	9	noun	list	4	7	nomatch	moins	-1	1	p	0.61012
73.94409999999999	0.2	tablier	9	noun	list	4	8	nomatch	moins	-1	1	p	0.61012
74.1437	0.0	+	9	noun	list	4	9	nomatch	moins	-1	1	p	0.61012
74.54350000000002	0.2	vite	9	noun	list	4	10	nomatch	moins	-1	1	p	0.61012
74.74340000000001	0.0	+	9	noun	list	4	11	nomatch	moins	-1	1	p	0.61012
75.14330000000001	0.0	+	9	noun	list	4	12	nomatch	moins	-1	1	p	0.61012
77.14240000000001	0.0	MOINS	9	noun	list	4	13	nomatch	moins	-1	1	p	0.61012
77.89240000000001	0.0	+	9	noun	list	4	14	nomatch	moins	-1	1	p	0.61012
77.7525	0.0	[response]	9	noun	list	4	15	nomatch	moins	-1	1	p	0.61012
79.5413	0.0	+	10	noun	list	4	1	match	va	3	1	y	0.95452
80.09110000000001	0.2	lpr	10	noun	list	4	2	match	va	3	1	y	0.95452
80.291	0.0	+	10	noun	list	4	3	match	va	3	1	y	0.95452
80.69120000000001	0.2	vers	10	noun	list	4	4	match	va	3	1	y	0.95452
80.9077	0.0	+	10	noun	list	4	5	match	va	3	1	y	0.95452
81.29090000000002	0.2	va	10	noun	list	4	6	match	va	3	1	y	0.95452
81.49080000000001	0.0	+	10	noun	list	4	7	match	va	3	1	y	0.95452
81.8903	0.2	voilier	10	noun	list	4	8	match	va	3	1	y	0.95452
82.09020000000001	0.0	+	10	noun	list	4	9	match	va	3	1	y	0.95452
82.49000000000001	0.2	ainsi	10	noun	list	4	10	match	va	3	1	y	0.95452
82.68990000000002	0.0	+	10	noun	list	4	11	match	va	3	1	y	0.95452
83.0898	0.0	+	10	noun	list	4	12	match	va	3	1	y	0.95452
85.08890000000002	0.0	VA	10	noun	list	4	13	match	va	3	1	y	0.95452
86.10510000000002	0.0	+	10	noun	list	4	14	match	va	3	1	y	0.95452
86.04350000000002	0.0	[response]	10	noun	list	4	15	match	va	3	1	y	0.95452
87.48780000000002	0.0	+	11	noun	phrase	1	1	match	vert	5	1	y	0.35005
88.0376	0.2	pgxnvb	11	noun	phrase	1	2	match	vert	5	1	y	0.35005
88.23750000000001	0.0	+	11	noun	phrase	1	3	match	vert	5	1	y	0.35005
88.63730000000001	0.2	njr	11	noun	phrase	1	4	match	vert	5	1	y	0.35005
88.8372	0.0	+	11	noun	phrase	1	5	match	vert	5	1	y	0.35005
89.2371	0.2	wvrh	11	noun	phrase	1	6	match	vert	5	1	y	0.35005
89.43700000000001	0.0	+	11	noun	phrase	1	7	match	vert	5	1	y	0.35005
89.8374	0.2	zntspqg	11	noun	phrase	1	8	match	vert	5	1	y	0.35005
90.0539	0.0	+	11	noun	phrase	1	9	match	vert	5	1	y	0.35005
90.45340000000002	0.2	vert	11	noun	phrase	1	10	match	vert	5	1	y	0.35005
90.6369	0.0	+	11	noun	phrase	1	11	match	vert	5	1	y	0.35005
91.03630000000001	0.0	+	11	noun	phrase	1	12	match	vert	5	1	y	0.35005
93.03540000000001	0.0	VERT	11	noun	phrase	1	13	match	vert	5	1	y	0.35005
93.45190000000002	0.0	+	11	noun	phrase	1	14	match	vert	5	1	y	0.35005
93.3854	0.0	[response]	11	noun	phrase	1	15	match	vert	5	1	y	0.35005
95.43430000000001	0.0	+	12	noun	list	3	1	match	mon	3	1	y	0.52684
95.98410000000001	0.2	bcwh	12	noun	list	3	2	match	mon	3	1	y	0.52684
96.184	0.0	+	12	noun	list	3	3	match	mon	3	1	y	0.52684
96.58440000000002	0.2	dsv	12	noun	list	3	4	match	mon	3	1	y	0.52684
96.80080000000001	0.0	+	12	noun	list	3	5	match	mon	3	1	y	0.52684
97.2003	0.2	mon	12	noun	list	3	6	match	mon	3	1	y	0.52684
97.40050000000002	0.0	+	12	noun	list	3	7	match	mon	3	1	y	0.52684
97.80030000000002	0.2	moins	12	noun	list	3	8	match	mon	3	1	y	0.52684
97.9999	0.0	+	12	noun	list	3	9	match	mon	3	1	y	0.52684
98.3997	0.2	casier	12	noun	list	3	10	match	mon	3	1	y	0.52684
98.59960000000001	0.0	+	12	noun	list	3	11	match	mon	3	1	y	0.52684
98.99940000000001	0.0	+	12	noun	list	3	12	match	mon	3	1	y	0.52684
100.9985	0.0	MON	12	noun	list	3	13	match	mon	3	1	y	0.52684
101.6816	0.0	+	12	noun	list	3	14	match	mon	3	1	y	0.52684
101.52540000000002	0.0	[response]	12	noun	list	3	15	match	mon	3	1	y	0.52684
103.39750000000001	0.0	+	13	noun	phrase	3	1	nomatch	grand	-1	1	p	0.59072
103.94730000000001	0.2	rdqmt	13	noun	phrase	3	2	nomatch	grand	-1	1	p	0.59072
104.1472	0.0	+	13	noun	phrase	3	3	nomatch	grand	-1	1	p	0.59072
104.5471	0.2	ptxf	13	noun	phrase	3	4	nomatch	grand	-1	1	p	0.59072
104.7475	0.0	+	13	noun	phrase	3	5	nomatch	grand	-1	1	p	0.59072
105.14670000000001	0.2	leur	13	noun	phrase	3	6	nomatch	grand	-1	1	p	0.59072
105.34660000000002	0.0	+	13	noun	phrase	3	7	nomatch	grand	-1	1	p	0.59072
105.7465	0.2	nouveau	13	noun	phrase	3	8	nomatch	grand	-1	1	p	0.59072
105.94640000000001	0.0	+	13	noun	phrase	3	9	nomatch	grand	-1	1	p	0.59072
106.34620000000001	0.2	sablier	13	noun	phrase	3	10	nomatch	grand	-1	1	p	0.59072
106.54610000000002	0.0	+	13	noun	phrase	3	11	nomatch	grand	-1	1	p	0.59072
106.94590000000002	0.0	+	13	noun	phrase	3	12	nomatch	grand	-1	1	p	0.59072
108.94570000000002	0.0	GRAND	13	noun	phrase	3	13	nomatch	grand	-1	1	p	0.59072
109.59530000000001	0.0	+	13	noun	phrase	3	14	nomatch	grand	-1	1	p	0.59072
109.53640000000001	0.0	[response]	13	noun	phrase	3	15	nomatch	grand	-1	1	p	0.59072
111.3612	0.0	+	14	noun	list	4	1	nomatch	vite	-1	1	p	0.72451
111.89410000000001	0.2	ksv	14	noun	list	4	2	nomatch	vite	-1	1	p	0.72451
112.09370000000001	0.0	+	14	noun	list	4	3	nomatch	vite	-1	1	p	0.72451
112.49350000000001	0.2	pour	14	noun	list	4	4	nomatch	vite	-1	1	p	0.72451
112.6934	0.0	+	14	noun	list	4	5	nomatch	vite	-1	1	p	0.72451
113.0932	0.2	peut	14	noun	list	4	6	nomatch	vite	-1	1	p	0.72451
113.29310000000001	0.0	+	14	noun	list	4	7	nomatch	vite	-1	1	p	0.72451
113.69300000000001	0.2	casier	14	noun	list	4	8	nomatch	vite	-1	1	p	0.72451
113.8929	0.0	+	14	noun	list	4	9	nomatch	vite	-1	1	p	0.72451
114.2927	0.2	tard	14	noun	list	4	10	nomatch	vite	-1	1	p	0.72451
114.49260000000001	0.0	+	14	noun	list	4	11	nomatch	vite	-1	1	p	0.72451
114.89240000000001	0.0	+	14	noun	list	4	12	nomatch	vite	-1	1	p	0.72451
116.89180000000002	0.0	VITE	14	noun	list	4	13	nomatch	vite	-1	1	p	0.72451
117.6746	0.0	+	14	noun	list	4	14	nomatch	vite	-1	1	p	0.72451
117.61630000000002	0.0	[response]	14	noun	list	4	15	nomatch	vite	-1	1	p	0.72451
119.29050000000001	0.0	+	15	noun	phrase	4	1	match	sans	2	1	y	0.63922
119.84030000000001	0.2	tfp	15	noun	phrase	4	2	match	sans	2	1	y	0.63922
120.0402	0.0	+	15	noun	phrase	4	3	match	sans	2	1	y	0.63922
120.44	0.2	sans	15	noun	phrase	4	4	match	sans	2	1	y	0.63922
120.64000000000001	0.0	+	15	noun	phrase	4	5	match	sans	2	1	y	0.63922
121.0404	0.2	leur	15	noun	phrase	4	6	match	sans	2	1	y	0.63922
121.2399	0.0	+	15	noun	phrase	4	7	match	sans	2	1	y	0.63922
121.6397	0.2	voilier	15	noun	phrase	4	8	match	sans	2	1	y	0.63922
121.83950000000002	0.0	+	15	noun	phrase	4	9	match	sans	2	1	y	0.63922
122.23920000000001	0.2	blanc	15	noun	phrase	4	10	match	sans	2	1	y	0.63922
122.4391	0.0	+	15	noun	phrase	4	11	match	sans	2	1	y	0.63922
122.83890000000002	0.0	+	15	noun	phrase	4	12	match	sans	2	1	y	0.63922
124.8381	0.0	SANS	15	noun	phrase	4	13	match	sans	2	1	y	0.63922
125.5378	0.0	+	15	noun	phrase	4	14	match	sans	2	1	y	0.63922
125.47730000000001	0.0	[response]	15	noun	phrase	4	15	match	sans	2	1	y	0.63922
127.23700000000002	0.0	+	16	noun	phrase	1	1	match	clavier	5	1	y	0.42395
127.7868	0.2	fzxwkc	16	noun	phrase	1	2	match	clavier	5	1	y	0.42395
127.98670000000001	0.0	+	16	noun	phrase	1	3	match	clavier	5	1	y	0.42395
128.3871	0.2	kxqr	16	noun	phrase	1	4	match	clavier	5	1	y	0.42395
128.6038	0.0	+	16	noun	phrase	1	5	match	clavier	5	1	y	0.42395
128.9862	0.2	ldk	16	noun	phrase	1	6	match	clavier	5	1	y	0.42395
129.1861	0.0	+	16	noun	phrase	1	7	match	clavier	5	1	y	0.42395
129.586	0.2	tskwq	16	noun	phrase	1	8	match	clavier	5	1	y	0.42395
129.7859	0.0	+	16	noun	phrase	1	9	match	clavier	5	1	y	0.42395
130.1857	0.2	clavier	16	noun	phrase	1	10	match	clavier	5	1	y	0.42395
130.3856	0.0	+	16	noun	phrase	1	11	match	clavier	5	1	y	0.42395
130.7855	0.0	+	16	noun	phrase	1	12	match	clavier	5	1	y	0.42395
132.785	0.0	CLAVIER	16	noun	phrase	1	13	match	clavier	5	1	y	0.42395
133.31810000000002	0.0	+	16	noun	phrase	1	14	match	clavier	5	1	y	0.42395
133.2089	0.0	[response]	16	noun	phrase	1	15	match	clavier	5	1	y	0.42395
135.20020000000002	0.0	+	17	noun	phrase	4	1	match	avec	2	1	y	0.65322
135.7499	0.2	tczxkfm	17	noun	phrase	4	2	match	avec	2	1	y	0.65322
135.9498	0.0	+	17	noun	phrase	4	3	match	avec	2	1	y	0.65322
136.3502	0.2	avec	17	noun	phrase	4	4	match	avec	2	1	y	0.65322
136.5498	0.0	+	17	noun	phrase	4	5	match	avec	2	1	y	0.65322
136.9494	0.2	son	17	noun	phrase	4	6	match	avec	2	1	y	0.65322
137.1493	0.0	+	17	noun	phrase	4	7	match	avec	2	1	y	0.65322
137.5491	0.2	petit	17	noun	phrase	4	8	match	avec	2	1	y	0.65322
137.7491	0.0	+	17	noun	phrase	4	9	match	avec	2	1	y	0.65322
138.1489	0.2	grenier	17	noun	phrase	4	10	match	avec	2	1	y	0.65322
138.3488	0.0	+	17	noun	phrase	4	11	match	avec	2	1	y	0.65322
138.7493	0.0	+	17	noun	phrase	4	12	match	avec	2	1	y	0.65322
140.7477	0.0	AVEC	17	noun	phrase	4	13	match	avec	2	1	y	0.65322
141.4641	0.0	+	17	noun	phrase	4	14	match	avec	2	1	y	0.65322
141.401	0.0	[response]	17	noun	phrase	4	15	match	avec	2	1	y	0.65322
143.1467	0.0	+	18	noun	list	3	1	match	va	3	1	y	0.51037
143.6964	0.2	tjgr	18	noun	list	3	2	match	va	3	1	y	0.51037
143.8963	0.0	+	18	noun	list	3	3	match	va	3	1	y	0.51037
144.2962	0.2	ptxf	18	noun	list	3	4	match	va	3	1	y	0.51037
144.4961	0.0	+	18	noun	list	3	5	match	va	3	1	y	0.51037
144.8959	0.2	va	18	noun	list	3	6	match	va	3	1	y	0.51037
145.09640000000002	0.0	+	18	noun	list	3	7	match	va	3	1	y	0.51037
145.5124	0.2	clavier	18	noun	list	3	8	match	va	3	1	y	0.51037
145.69570000000002	0.0	+	18	noun	list	3	9	match	va	3	1	y	0.51037
146.0954	0.2	loin	18	noun	list	3	10	match	va	3	1	y	0.51037
146.2953	0.0	+	18	noun	list	3	11	match	va	3	1	y	0.51037
146.6951	0.0	+	18	noun	list	3	12	match	va	3	1	y	0.51037
148.69420000000002	0.0	VA	18	noun	list	3	13	match	va	3	1	y	0.51037
149.2607	0.0	+	18	noun	list	3	14	match	va	3	1	y	0.51037
149.2046	0.0	[response]	18	noun	list	3	15	match	va	3	1	y	0.51037
151.0932	0.0	+	19	verb	list	4	1	match	chasser	4	1	y	0.55882
151.6429	0.2	skjn	19	verb	list	4	2	match	chasser	4	1	y	0.55882
151.8428	0.0	+	19	verb	list	4	3	match	chasser	4	1	y	0.55882
152.2595	0.2	adam	19	verb	list	4	4	match	chasser	4	1	y	0.55882
152.443	0.0	+	19	verb	list	4	5	match	chasser	4	1	y	0.55882
152.8424	0.2	mon	19	verb	list	4	6	match	chasser	4	1	y	0.55882
153.0423	0.0	+	19	verb	list	4	7	match	chasser	4	1	y	0.55882
153.4422	0.2	chasser	19	verb	list	4	8	match	chasser	4	1	y	0.55882
153.6421	0.0	+	19	verb	list	4	9	match	chasser	4	1	y	0.55882
154.0419	0.2	vert	19	verb	list	4	10	match	chasser	4	1	y	0.55882
154.2418	0.0	+	19	verb	list	4	11	match	chasser	4	1	y	0.55882
154.6416	0.0	+	19	verb	list	4	12	match	chasser	4	1	y	0.55882
156.6579	0.0	CHASSER	19	verb	list	4	13	match	chasser	4	1	y	0.55882
157.3905	0.0	+	19	verb	list	4	14	match	chasser	4	1	y	0.55882
157.2167	0.0	[response]	19	verb	list	4	15	match	chasser	4	1	y	0.55882
167.07000000000002	0.0	+	20	noun	list	3	1	nomatch	petit	-1	1	p	0.75178
167.60320000000002	0.2	nrx	20	noun	list	3	2	nomatch	petit	-1	1	p	0.75178
167.7863	0.0	+	20	noun	list	3	3	nomatch	petit	-1	1	p	0.75178
168.1858	0.2	rmjd	20	noun	list	3	4	nomatch	petit	-1	1	p	0.75178
168.3856	0.0	+	20	noun	list	3	5	nomatch	petit	-1	1	p	0.75178
168.7854	0.2	leur	20	noun	list	3	6	nomatch	petit	-1	1	p	0.75178
168.98530000000002	0.0	+	20	noun	list	3	7	nomatch	petit	-1	1	p	0.75178
169.38510000000002	0.2	beaucoup	20	noun	list	3	8	nomatch	petit	-1	1	p	0.75178
169.5851	0.0	+	20	noun	list	3	9	nomatch	petit	-1	1	p	0.75178
169.9849	0.2	clavier	20	noun	list	3	10	nomatch	petit	-1	1	p	0.75178
170.18480000000002	0.0	+	20	noun	list	3	11	nomatch	petit	-1	1	p	0.75178
170.5848	0.0	+	20	noun	list	3	12	nomatch	petit	-1	1	p	0.75178
172.58370000000002	0.0	PETIT	20	noun	list	3	13	nomatch	petit	-1	1	p	0.75178
173.4	0.0	+	20	noun	list	3	14	nomatch	petit	-1	1	p	0.75178
173.3355	0.0	[response]	20	noun	list	3	15	nomatch	petit	-1	1	p	0.75178
174.9993	0.0	+	21	noun	list	2	1	match	sablier	4	1	y	0.58116
175.54940000000002	0.2	pgsvrht	21	noun	list	2	2	match	sablier	4	1	y	0.58116
175.74900000000002	0.0	+	21	noun	list	2	3	match	sablier	4	1	y	0.58116
176.18280000000001	0.2	hsnx	21	noun	list	2	4	match	sablier	4	1	y	0.58116
176.34910000000002	0.0	+	21	noun	list	2	5	match	sablier	4	1	y	0.58116
176.7486	0.2	jq	21	noun	list	2	6	match	sablier	4	1	y	0.58116
176.9485	0.0	+	21	noun	list	2	7	match	sablier	4	1	y	0.58116
177.34830000000002	0.2	sablier	21	noun	list	2	8	match	sablier	4	1	y	0.58116
177.5482	0.0	+	21	noun	list	2	9	match	sablier	4	1	y	0.58116
177.9481	0.2	loin	21	noun	list	2	10	match	sablier	4	1	y	0.58116
178.148	0.0	+	21	noun	list	2	11	match	sablier	4	1	y	0.58116
178.54780000000002	0.0	+	21	noun	list	2	12	match	sablier	4	1	y	0.58116
180.5471	0.0	SABLIER	21	noun	list	2	13	match	sablier	4	1	y	0.58116
181.24720000000002	0.0	+	21	noun	list	2	14	match	sablier	4	1	y	0.58116
181.1283	0.0	[response]	21	noun	list	2	15	match	sablier	4	1	y	0.58116
182.94590000000002	0.0	+	22	verb	phrase	2	1	match	voyager	5	1	y	0.57701
183.4956	0.2	pwv	22	verb	phrase	2	2	match	voyager	5	1	y	0.57701
183.6955	0.0	+	22	verb	phrase	2	3	match	voyager	5	1	y	0.57701
184.0958	0.2	rmjd	22	verb	phrase	2	4	match	voyager	5	1	y	0.57701
184.2958	0.0	+	22	verb	phrase	2	5	match	voyager	5	1	y	0.57701
184.6956	0.2	vzgp	22	verb	phrase	2	6	match	voyager	5	1	y	0.57701
184.9121	0.0	+	22	verb	phrase	2	7	match	voyager	5	1	y	0.57701
185.2948	0.2	beaucoup	22	verb	phrase	2	8	match	voyager	5	1	y	0.57701
185.49470000000002	0.0	+	22	verb	phrase	2	9	match	voyager	5	1	y	0.57701
185.89450000000002	0.2	voyager	22	verb	phrase	2	10	match	voyager	5	1	y	0.57701
186.0945	0.0	+	22	verb	phrase	2	11	match	voyager	5	1	y	0.57701
186.4943	0.0	+	22	verb	phrase	2	12	match	voyager	5	1	y	0.57701
188.4934	0.0	VOYAGER	22	verb	phrase	2	13	match	voyager	5	1	y	0.57701
189.21030000000002	0.0	+	22	verb	phrase	2	14	match	voyager	5	1	y	0.57701
189.0704	0.0	[response]	22	verb	phrase	2	15	match	voyager	5	1	y	0.57701
190.8923	0.0	+	23	noun	phrase	1	1	match	rocher	5	1	y	0.3841300000000001
191.4421	0.2	gmbj	23	noun	phrase	1	2	match	rocher	5	1	y	0.3841300000000001
191.642	0.0	+	23	noun	phrase	1	3	match	rocher	5	1	y	0.3841300000000001
192.04180000000002	0.2	ptxf	23	noun	phrase	1	4	match	rocher	5	1	y	0.3841300000000001
192.2418	0.0	+	23	noun	phrase	1	5	match	rocher	5	1	y	0.3841300000000001
192.6416	0.2	wvrh	23	noun	phrase	1	6	match	rocher	5	1	y	0.3841300000000001
192.8415	0.0	+	23	noun	phrase	1	7	match	rocher	5	1	y	0.3841300000000001
193.24130000000002	0.2	bdkwc	23	noun	phrase	1	8	match	rocher	5	1	y	0.3841300000000001
193.4412	0.0	+	23	noun	phrase	1	9	match	rocher	5	1	y	0.3841300000000001
193.8417	0.2	rocher	23	noun	phrase	1	10	match	rocher	5	1	y	0.3841300000000001
194.04160000000002	0.0	+	23	noun	phrase	1	11	match	rocher	5	1	y	0.3841300000000001
194.4411	0.0	+	23	noun	phrase	1	12	match	rocher	5	1	y	0.3841300000000001
196.4403	0.0	ROCHER	23	noun	phrase	1	13	match	rocher	5	1	y	0.3841300000000001
196.9567	0.0	+	23	noun	phrase	1	14	match	rocher	5	1	y	0.3841300000000001
196.82440000000003	0.0	[response]	23	noun	phrase	1	15	match	rocher	5	1	y	0.3841300000000001
198.83890000000002	0.0	+	24	verb	phrase	1	1	nomatch	plonger	-1	1	p	0.7307
199.3886	0.2	vhfk	24	verb	phrase	1	2	nomatch	plonger	-1	1	p	0.7307
199.5885	0.0	+	24	verb	phrase	1	3	nomatch	plonger	-1	1	p	0.7307
199.9884	0.2	pfmr	24	verb	phrase	1	4	nomatch	plonger	-1	1	p	0.7307
200.1883	0.0	+	24	verb	phrase	1	5	nomatch	plonger	-1	1	p	0.7307
200.5881	0.2	jq	24	verb	phrase	1	6	nomatch	plonger	-1	1	p	0.7307
200.8052	0.0	+	24	verb	phrase	1	7	nomatch	plonger	-1	1	p	0.7307
201.2049	0.2	rxbz	24	verb	phrase	1	8	nomatch	plonger	-1	1	p	0.7307
201.388	0.0	+	24	verb	phrase	1	9	nomatch	plonger	-1	1	p	0.7307
201.7877	0.2	jongler	24	verb	phrase	1	10	nomatch	plonger	-1	1	p	0.7307
201.98780000000002	0.0	+	24	verb	phrase	1	11	nomatch	plonger	-1	1	p	0.7307
202.3873	0.0	+	24	verb	phrase	1	12	nomatch	plonger	-1	1	p	0.7307
204.3864	0.0	PLONGER	24	verb	phrase	1	13	nomatch	plonger	-1	1	p	0.7307
205.16940000000002	0.0	+	24	verb	phrase	1	14	nomatch	plonger	-1	1	p	0.7307
205.11710000000002	0.0	[response]	24	verb	phrase	1	15	nomatch	plonger	-1	1	p	0.7307
206.7854	0.0	+	25	noun	phrase	1	1	nomatch	sous	-1	1	p	0.54503
207.33509999999998	0.2	hxdfpj	25	noun	phrase	1	2	nomatch	sous	-1	1	p	0.54503
207.535	0.0	+	25	noun	phrase	1	3	nomatch	sous	-1	1	p	0.54503
207.9349	0.2	lnmr	25	noun	phrase	1	4	nomatch	sous	-1	1	p	0.54503
208.1348	0.0	+	25	noun	phrase	1	5	nomatch	sous	-1	1	p	0.54503
208.5517	0.2	ldk	25	noun	phrase	1	6	nomatch	sous	-1	1	p	0.54503
208.7347	0.0	+	25	noun	phrase	1	7	nomatch	sous	-1	1	p	0.54503
209.13470000000004	0.2	mkgprb	25	noun	phrase	1	8	nomatch	sous	-1	1	p	0.54503
209.3513	0.0	+	25	noun	phrase	1	9	nomatch	sous	-1	1	p	0.54503
209.7513	0.2	beau	25	noun	phrase	1	10	nomatch	sous	-1	1	p	0.54503
209.934	0.0	+	25	noun	phrase	1	11	nomatch	sous	-1	1	p	0.54503
210.33380000000002	0.0	+	25	noun	phrase	1	12	nomatch	sous	-1	1	p	0.54503
212.35030000000003	0.0	SOUS	25	noun	phrase	1	13	nomatch	sous	-1	1	p	0.54503
213.04999999999998	0.0	+	25	noun	phrase	1	14	nomatch	sous	-1	1	p	0.54503
212.89540000000002	0.0	[response]	25	noun	phrase	1	15	nomatch	sous	-1	1	p	0.54503
222.82900000000004	0.0	+	26	verb	list	3	1	match	doit	3	1	y	0.63475
223.29480000000004	0.2	jgvclqh	26	verb	list	3	2	match	doit	3	1	y	0.63475
223.4947	0.0	+	26	verb	list	3	3	match	doit	3	1	y	0.63475
223.89450000000002	0.2	njr	26	verb	list	3	4	match	doit	3	1	y	0.63475
224.09440000000004	0.0	+	26	verb	list	3	5	match	doit	3	1	y	0.63475
224.4942	0.2	doit	26	verb	list	3	6	match	doit	3	1	y	0.63475
224.6942	0.0	+	26	verb	list	3	7	match	doit	3	1	y	0.63475
225.09400000000002	0.2	petit	26	verb	list	3	8	match	doit	3	1	y	0.63475
225.29390000000004	0.0	+	26	verb	list	3	9	match	doit	3	1	y	0.63475
225.6937	0.2	danser	26	verb	list	3	10	match	doit	3	1	y	0.63475
225.89360000000002	0.0	+	26	verb	list	3	11	match	doit	3	1	y	0.63475
226.29350000000002	0.0	+	26	verb	list	3	12	match	doit	3	1	y	0.63475
228.29330000000002	0.0	DOIT	26	verb	list	3	13	match	doit	3	1	y	0.63475
228.99230000000003	0.0	+	26	verb	list	3	14	match	doit	3	1	y	0.63475
228.92800000000003	0.0	[response]	26	verb	list	3	15	match	doit	3	1	y	0.63475
230.6915	0.0	+	27	noun	phrase	1	1	match	voilier	5	1	y	0.49279
231.2413	0.2	rtkv	27	noun	phrase	1	2	match	voilier	5	1	y	0.49279
231.4412	0.0	+	27	noun	phrase	1	3	match	voilier	5	1	y	0.49279
231.84100000000004	0.2	ptxf	27	noun	phrase	1	4	match	voilier	5	1	y	0.49279
232.0409	0.0	+	27	noun	phrase	1	5	match	voilier	5	1	y	0.49279
232.44129999999998	0.2	wvrh	27	noun	phrase	1	6	match	voilier	5	1	y	0.49279
232.64079999999998	0.0	+	27	noun	phrase	1	7	match	voilier	5	1	y	0.49279
233.04050000000004	0.2	vdzg	27	noun	phrase	1	8	match	voilier	5	1	y	0.49279
233.2411	0.0	+	27	noun	phrase	1	9	match	voilier	5	1	y	0.49279
233.64090000000002	0.2	voilier	27	noun	phrase	1	10	match	voilier	5	1	y	0.49279
233.84010000000004	0.0	+	27	noun	phrase	1	11	match	voilier	5	1	y	0.49279
234.2399	0.0	+	27	noun	phrase	1	12	match	voilier	5	1	y	0.49279
236.2395	0.0	VOILIER	27	noun	phrase	1	13	match	voilier	5	1	y	0.49279
236.8722	0.0	+	27	noun	phrase	1	14	match	voilier	5	1	y	0.49279
236.73230000000004	0.0	[response]	27	noun	phrase	1	15	match	voilier	5	1	y	0.49279
246.7352	0.0	+	28	verb	phrase	1	1	nomatch	nager	-1	1	p	0.60395
247.18500000000003	0.2	vzlq	28	verb	phrase	1	2	nomatch	nager	-1	1	p	0.60395
247.40150000000003	0.0	+	28	verb	phrase	1	3	nomatch	nager	-1	1	p	0.60395
247.78400000000002	0.2	hgvw	28	verb	phrase	1	4	nomatch	nager	-1	1	p	0.60395
247.98390000000003	0.0	+	28	verb	phrase	1	5	nomatch	nager	-1	1	p	0.60395
248.3837	0.2	vzgp	28	verb	phrase	1	6	nomatch	nager	-1	1	p	0.60395
248.5837	0.0	+	28	verb	phrase	1	7	nomatch	nager	-1	1	p	0.60395
249.0001	0.2	svt	28	verb	phrase	1	8	nomatch	nager	-1	1	p	0.60395
249.20000000000002	0.0	+	28	verb	phrase	1	9	nomatch	nager	-1	1	p	0.60395
249.59990000000002	0.2	voyager	28	verb	phrase	1	10	nomatch	nager	-1	1	p	0.60395
249.79980000000003	0.0	+	28	verb	phrase	1	11	nomatch	nager	-1	1	p	0.60395
250.1996	0.0	+	28	verb	phrase	1	12	nomatch	nager	-1	1	p	0.60395
252.19930000000002	0.0	NAGER	28	verb	phrase	1	13	nomatch	nager	-1	1	p	0.60395
252.8651	0.0	+	28	verb	phrase	1	14	nomatch	nager	-1	1	p	0.60395
252.80330000000006	0.0	[response]	28	verb	phrase	1	15	nomatch	nager	-1	1	p	0.60395
254.5977	0.0	+	29	noun	list	1	1	match	tôt	5	1	y	0.47358
255.14790000000002	0.2	tdzvcjh	29	noun	list	1	2	match	tôt	5	1	y	0.47358
255.3473	0.0	+	29	noun	list	1	3	match	tôt	5	1	y	0.47358
255.7639	0.2	ptxf	29	noun	list	1	4	match	tôt	5	1	y	0.47358
255.9474	0.0	+	29	noun	list	1	5	match	tôt	5	1	y	0.47358
256.3469	0.2	jq	29	noun	list	1	6	match	tôt	5	1	y	0.47358
256.54679999999996	0.0	+	29	noun	list	1	7	match	tôt	5	1	y	0.47358
256.9466	0.2	cjzhfmw	29	noun	list	1	8	match	tôt	5	1	y	0.47358
257.1465	0.0	+	29	noun	list	1	9	match	tôt	5	1	y	0.47358
257.5464	0.2	tôt	29	noun	list	1	10	match	tôt	5	1	y	0.47358
257.74629999999996	0.0	+	29	noun	list	1	11	match	tôt	5	1	y	0.47358
258.1461	0.0	+	29	noun	list	1	12	match	tôt	5	1	y	0.47358
260.16249999999997	0.0	TÔT	29	noun	list	1	13	match	tôt	5	1	y	0.47358
260.7623	0.0	+	29	noun	list	1	14	match	tôt	5	1	y	0.47358
260.63599999999997	0.0	[response]	29	noun	list	1	15	match	tôt	5	1	y	0.47358
262.5442	0.0	+	30	noun	phrase	3	1	match	son	3	1	y	0.53817
263.09389999999996	0.2	wpqk	30	noun	phrase	3	2	match	son	3	1	y	0.53817
263.2938	0.0	+	30	noun	phrase	3	3	match	son	3	1	y	0.53817
263.6937	0.2	njr	30	noun	phrase	3	4	match	son	3	1	y	0.53817
263.8936	0.0	+	30	noun	phrase	3	5	match	son	3	1	y	0.53817
264.29339999999996	0.2	son	30	noun	phrase	3	6	match	son	3	1	y	0.53817
264.4933	0.0	+	30	noun	phrase	3	7	match	son	3	1	y	0.53817
264.8939	0.2	petit	30	noun	phrase	3	8	match	son	3	1	y	0.53817
265.0934	0.0	+	30	noun	phrase	3	9	match	son	3	1	y	0.53817
265.4933	0.2	voilier	30	noun	phrase	3	10	match	son	3	1	y	0.53817
265.7099	0.0	+	30	noun	phrase	3	11	match	son	3	1	y	0.53817
266.0926	0.0	+	30	noun	phrase	3	12	match	son	3	1	y	0.53817
268.0917	0.0	SON	30	noun	phrase	3	13	match	son	3	1	y	0.53817
268.69149999999996	0.0	+	30	noun	phrase	3	14	match	son	3	1	y	0.53817
268.62989999999996	0.0	[response]	30	noun	phrase	3	15	match	son	3	1	y	0.53817
270.4907	0.0	+	31	noun	list	1	1	match	moins	5	1	y	0.43939
271.0404	0.2	xsk	31	noun	list	1	2	match	moins	5	1	y	0.43939
271.24039999999997	0.0	+	31	noun	list	1	3	match	moins	5	1	y	0.43939
271.6402	0.2	lnpz	31	noun	list	1	4	match	moins	5	1	y	0.43939
271.8401	0.0	+	31	noun	list	1	5	match	moins	5	1	y	0.43939
272.2399	0.2	wvrh	31	noun	list	1	6	match	moins	5	1	y	0.43939
272.4403	0.0	+	31	noun	list	1	7	match	moins	5	1	y	0.43939
272.84029999999996	0.2	zntspqg	31	noun	list	1	8	match	moins	5	1	y	0.43939
273.0396	0.0	+	31	noun	list	1	9	match	moins	5	1	y	0.43939
273.4394	0.2	moins	31	noun	list	1	10	match	moins	5	1	y	0.43939
273.6393	0.0	+	31	noun	list	1	11	match	moins	5	1	y	0.43939
274.03909999999996	0.0	+	31	noun	list	1	12	match	moins	5	1	y	0.43939
276.03819999999996	0.0	MOINS	31	noun	list	1	13	match	moins	5	1	y	0.43939
276.53799999999995	0.0	+	31	noun	list	1	14	match	moins	5	1	y	0.43939
276.4776	0.0	[response]	31	noun	list	1	15	match	moins	5	1	y	0.43939
278.43719999999996	0.0	+	32	verb	list	1	1	match	bleu	5	1	y	0.94058
278.9869	0.2	gdx	32	verb	list	1	2	match	bleu	5	1	y	0.94058
279.1868	0.0	+	32	verb	list	1	3	match	bleu	5	1	y	0.94058
279.5868	0.2	dgpc	32	verb	list	1	4	match	bleu	5	1	y	0.94058
279.78679999999997	0.0	+	32	verb	list	1	5	match	bleu	5	1	y	0.94058
280.2032	0.2	hfs	32	verb	list	1	6	match	bleu	5	1	y	0.94058
280.4035	0.0	+	32	verb	list	1	7	match	bleu	5	1	y	0.94058
280.7861	0.2	qtjhvsb	32	verb	list	1	8	match	bleu	5	1	y	0.94058
280.98609999999996	0.0	+	32	verb	list	1	9	match	bleu	5	1	y	0.94058
281.3859	0.2	bleu	32	verb	list	1	10	match	bleu	5	1	y	0.94058
281.5858	0.0	+	32	verb	list	1	11	match	bleu	5	1	y	0.94058
281.9856	0.0	+	32	verb	list	1	12	match	bleu	5	1	y	0.94058
283.9847	0.0	BLEU	32	verb	list	1	13	match	bleu	5	1	y	0.94058
284.98429999999996	0.0	+	32	verb	list	1	14	match	bleu	5	1	y	0.94058
284.9253	0.0	[response]	32	verb	list	1	15	match	bleu	5	1	y	0.94058
294.3968	0.0	+	33	noun	phrase	3	1	match	casier	4	1	y	0.59323
294.9466	0.2	qbz	33	noun	phrase	3	2	match	casier	4	1	y	0.59323
295.1465	0.0	+	33	noun	phrase	3	3	match	casier	4	1	y	0.59323
295.5463	0.2	dtsr	33	noun	phrase	3	4	match	casier	4	1	y	0.59323
295.7462	0.0	+	33	noun	phrase	3	5	match	casier	4	1	y	0.59323
296.1461	0.2	mon	33	noun	phrase	3	6	match	casier	4	1	y	0.59323
296.346	0.0	+	33	noun	phrase	3	7	match	casier	4	1	y	0.59323
296.7458	0.2	casier	33	noun	phrase	3	8	match	casier	4	1	y	0.59323
296.9457	0.0	+	33	noun	phrase	3	9	match	casier	4	1	y	0.59323
297.34549999999996	0.2	blanc	33	noun	phrase	3	10	match	casier	4	1	y	0.59323
297.5454	0.0	+	33	noun	phrase	3	11	match	casier	4	1	y	0.59323
297.9455	0.0	+	33	noun	phrase	3	12	match	casier	4	1	y	0.59323
299.9444	0.0	CASIER	33	noun	phrase	3	13	match	casier	4	1	y	0.59323
300.59409999999997	0.0	+	33	noun	phrase	3	14	match	casier	4	1	y	0.59323
300.5376	0.0	[response]	33	noun	phrase	3	15	match	casier	4	1	y	0.59323
310.35699999999997	0.0	+	34	noun	list	1	1	nomatch	adam	-1	1	p	0.6531400000000002
310.90639999999996	0.2	qgxw	34	noun	list	1	2	nomatch	adam	-1	1	p	0.6531400000000002
311.1069	0.0	+	34	noun	list	1	3	nomatch	adam	-1	1	p	0.6531400000000002
311.5066	0.2	lnpz	34	noun	list	1	4	nomatch	adam	-1	1	p	0.6531400000000002
311.6894	0.0	+	34	noun	list	1	5	nomatch	adam	-1	1	p	0.6531400000000002
312.0891	0.2	ldk	34	noun	list	1	6	nomatch	adam	-1	1	p	0.6531400000000002
312.289	0.0	+	34	noun	list	1	7	nomatch	adam	-1	1	p	0.6531400000000002
312.68879999999996	0.2	nxps	34	noun	list	1	8	nomatch	adam	-1	1	p	0.6531400000000002
312.8887	0.0	+	34	noun	list	1	9	nomatch	adam	-1	1	p	0.6531400000000002
313.2885	0.2	sablier	34	noun	list	1	10	nomatch	adam	-1	1	p	0.6531400000000002
313.48839999999996	0.0	+	34	noun	list	1	11	nomatch	adam	-1	1	p	0.6531400000000002
313.88829999999996	0.0	+	34	noun	list	1	12	nomatch	adam	-1	1	p	0.6531400000000002
315.88739999999996	0.0	ADAM	34	noun	list	1	13	nomatch	adam	-1	1	p	0.6531400000000002
316.6037	0.0	+	34	noun	list	1	14	nomatch	adam	-1	1	p	0.6531400000000002
316.5405	0.0	[response]	34	noun	list	1	15	nomatch	adam	-1	1	p	0.6531400000000002
318.2863	0.0	+	35	noun	phrase	4	1	match	noir	5	1	y	0.74756
318.8361	0.2	rmqs	35	noun	phrase	4	2	match	noir	5	1	y	0.74756
319.036	0.0	+	35	noun	phrase	4	3	match	noir	5	1	y	0.74756
319.4358	0.2	dans	35	noun	phrase	4	4	match	noir	5	1	y	0.74756
319.6357	0.0	+	35	noun	phrase	4	5	match	noir	5	1	y	0.74756
320.0356	0.2	leur	35	noun	phrase	4	6	match	noir	5	1	y	0.74756
320.2355	0.0	+	35	noun	phrase	4	7	match	noir	5	1	y	0.74756
320.6359	0.2	tablier	35	noun	phrase	4	8	match	noir	5	1	y	0.74756
320.8358	0.0	+	35	noun	phrase	4	9	match	noir	5	1	y	0.74756
321.23499999999996	0.2	noir	35	noun	phrase	4	10	match	noir	5	1	y	0.74756
321.43489999999997	0.0	+	35	noun	phrase	4	11	match	noir	5	1	y	0.74756
321.8348	0.0	+	35	noun	phrase	4	12	match	noir	5	1	y	0.74756
323.83389999999997	0.0	NOIR	35	noun	phrase	4	13	match	noir	5	1	y	0.74756
324.66749999999996	0.0	+	35	noun	phrase	4	14	match	noir	5	1	y	0.74756
324.5814	0.0	[response]	35	noun	phrase	4	15	match	noir	5	1	y	0.74756
326.24949999999995	0.0	+	36	noun	list	2	1	nomatch	voilier	-1	0	TIMEOUT	-1.0
326.7992	0.2	kfm	36	noun	list	2	2	nomatch	voilier	-1	0	TIMEOUT	-1.0
326.9992	0.0	+	36	noun	list	2	3	nomatch	voilier	-1	0	TIMEOUT	-1.0
327.399	0.2	kxqr	36	noun	list	2	4	nomatch	voilier	-1	0	TIMEOUT	-1.0
327.59889999999996	0.0	+	36	noun	list	2	5	nomatch	voilier	-1	0	TIMEOUT	-1.0
327.9989	0.2	jq	36	noun	list	2	6	nomatch	voilier	-1	0	TIMEOUT	-1.0
328.1986	0.0	+	36	noun	list	2	7	nomatch	voilier	-1	0	TIMEOUT	-1.0
328.5988	0.2	casier	36	noun	list	2	8	nomatch	voilier	-1	0	TIMEOUT	-1.0
328.8152	0.0	+	36	noun	list	2	9	nomatch	voilier	-1	0	TIMEOUT	-1.0
329.1988	0.2	ainsi	36	noun	list	2	10	nomatch	voilier	-1	0	TIMEOUT	-1.0
329.4154	0.0	+	36	noun	list	2	11	nomatch	voilier	-1	0	TIMEOUT	-1.0
329.798	0.0	+	36	noun	list	2	12	nomatch	voilier	-1	0	TIMEOUT	-1.0
331.79699999999997	0.0	VOILIER	36	noun	list	2	13	nomatch	voilier	-1	0	TIMEOUT	-1.0
334.19599999999997	0.0	+	37	noun	phrase	1	1	nomatch	cendrier	-1	1	p	1.063
334.79569999999995	0.2	nhfgm	37	noun	phrase	1	2	nomatch	cendrier	-1	1	p	1.063
334.99559999999997	0.0	+	37	noun	phrase	1	3	nomatch	cendrier	-1	1	p	1.063
335.39549999999997	0.2	hsnx	37	noun	phrase	1	4	nomatch	cendrier	-1	1	p	1.063
335.5954	0.0	+	37	noun	phrase	1	5	nomatch	cendrier	-1	1	p	1.063
335.99519999999995	0.2	hfs	37	noun	phrase	1	6	nomatch	cendrier	-1	1	p	1.063
336.19509999999997	0.0	+	37	noun	phrase	1	7	nomatch	cendrier	-1	1	p	1.063
336.5949	0.2	vdzg	37	noun	phrase	1	8	nomatch	cendrier	-1	1	p	1.063
336.7949	0.0	+	37	noun	phrase	1	9	nomatch	cendrier	-1	1	p	1.063
337.19469999999995	0.2	tablier	37	noun	phrase	1	10	nomatch	cendrier	-1	1	p	1.063
337.39459999999997	0.0	+	37	noun	phrase	1	11	nomatch	cendrier	-1	1	p	1.063
337.7951	0.0	+	37	noun	phrase	1	12	nomatch	cendrier	-1	1	p	1.063
339.7935	0.0	CENDRIER	37	noun	phrase	1	13	nomatch	cendrier	-1	1	p	1.063
340.9097	0.0	+	37	noun	phrase	1	14	nomatch	cendrier	-1	1	p	1.063
340.8565	0.0	[response]	37	noun	phrase	1	15	nomatch	cendrier	-1	1	p	1.063
342.1925	0.0	+	38	verb	list	1	1	nomatch	grand	-1	1	p	0.49637000000000003
342.74219999999997	0.2	lcdnmkp	38	verb	list	1	2	nomatch	grand	-1	1	p	0.49637000000000003
342.94219999999996	0.0	+	38	verb	list	1	3	nomatch	grand	-1	1	p	0.49637000000000003
343.342	0.2	dtsr	38	verb	list	1	4	nomatch	grand	-1	1	p	0.49637000000000003
343.5419	0.0	+	38	verb	list	1	5	nomatch	grand	-1	1	p	0.49637000000000003
343.94169999999997	0.2	jq	38	verb	list	1	6	nomatch	grand	-1	1	p	0.49637000000000003
344.1416	0.0	+	38	verb	list	1	7	nomatch	grand	-1	1	p	0.49637000000000003
344.54139999999995	0.2	ckrfhw	38	verb	list	1	8	nomatch	grand	-1	1	p	0.49637000000000003
344.7414	0.0	+	38	verb	list	1	9	nomatch	grand	-1	1	p	0.49637000000000003
345.1413	0.2	nouveau	38	verb	list	1	10	nomatch	grand	-1	1	p	0.49637000000000003
345.3418	0.0	+	38	verb	list	1	11	nomatch	grand	-1	1	p	0.49637000000000003
345.74129999999997	0.0	+	38	verb	list	1	12	nomatch	grand	-1	1	p	0.49637000000000003
347.74	0.0	GRAND	38	verb	list	1	13	nomatch	grand	-1	1	p	0.49637000000000003
348.28979999999996	0.0	+	38	verb	list	1	14	nomatch	grand	-1	1	p	0.49637000000000003
348.2364	0.0	[response]	38	verb	list	1	15	nomatch	grand	-1	1	p	0.49637000000000003
350.13899999999995	0.0	+	39	noun	phrase	3	1	nomatch	vite	-1	1	p	0.60744
350.6887	0.2	pvhnrjz	39	noun	phrase	3	2	nomatch	vite	-1	1	p	0.60744
350.8886	0.0	+	39	noun	phrase	3	3	nomatch	vite	-1	1	p	0.60744
351.28909999999996	0.2	lnmr	39	noun	phrase	3	4	nomatch	vite	-1	1	p	0.60744
351.5054	0.0	+	39	noun	phrase	3	5	nomatch	vite	-1	1	p	0.60744
351.8882	0.2	mon	39	noun	phrase	3	6	nomatch	vite	-1	1	p	0.60744
352.0881	0.0	+	39	noun	phrase	3	7	nomatch	vite	-1	1	p	0.60744
352.48789999999997	0.2	beau	39	noun	phrase	3	8	nomatch	vite	-1	1	p	0.60744
352.68789999999996	0.0	+	39	noun	phrase	3	9	nomatch	vite	-1	1	p	0.60744
353.0877	0.2	grenier	39	noun	phrase	3	10	nomatch	vite	-1	1	p	0.60744
353.2876	0.0	+	39	noun	phrase	3	11	nomatch	vite	-1	1	p	0.60744
353.68739999999997	0.0	+	39	noun	phrase	3	12	nomatch	vite	-1	1	p	0.60744
355.68649999999997	0.0	VITE	39	noun	phrase	3	13	nomatch	vite	-1	1	p	0.60744
356.3529	0.0	+	39	noun	phrase	3	14	nomatch	vite	-1	1	p	0.60744
356.294	0.0	[response]	39	noun	phrase	3	15	nomatch	vite	-1	1	p	0.60744
358.08549999999997	0.0	+	40	verb	phrase	1	1	match	chasser	5	1	y	0.31901
358.6352	0.2	bhkzwn	40	verb	phrase	1	2	match	chasser	5	1	y	0.31901
358.83509999999995	0.0	+	40	verb	phrase	1	3	match	chasser	5	1	y	0.31901
359.23499999999996	0.2	lnpz	40	verb	phrase	1	4	match	chasser	5	1	y	0.31901
359.43489999999997	0.0	+	40	verb	phrase	1	5	match	chasser	5	1	y	0.31901
359.83509999999995	0.2	jq	40	verb	phrase	1	6	match	chasser	5	1	y	0.31901
360.0349	0.0	+	40	verb	phrase	1	7	match	chasser	5	1	y	0.31901
360.4352	0.2	qsdb	40	verb	phrase	1	8	match	chasser	5	1	y	0.31901
360.6683	0.0	+	40	verb	phrase	1	9	match	chasser	5	1	y	0.31901
361.0342	0.2	chasser	40	verb	phrase	1	10	match	chasser	5	1	y	0.31901
361.23409999999996	0.0	+	40	verb	phrase	1	11	match	chasser	5	1	y	0.31901
361.65119999999996	0.0	+	40	verb	phrase	1	12	match	chasser	5	1	y	0.31901
363.6497	0.0	CHASSER	40	verb	phrase	1	13	match	chasser	5	1	y	0.31901
364.0329	0.0	+	40	verb	phrase	1	14	match	chasser	5	1	y	0.31901
363.96869999999996	0.0	[response]	40	verb	phrase	1	15	match	chasser	5	1	y	0.31901
366.0487	0.0	+	41	noun	list	2	1	match	tablier	5	1	y	0.49168
366.59839999999997	0.2	swgvbnh	41	noun	list	2	2	match	tablier	5	1	y	0.49168
366.7983	0.0	+	41	noun	list	2	3	match	tablier	5	1	y	0.49168
367.19809999999995	0.2	hgvw	41	noun	list	2	4	match	tablier	5	1	y	0.49168
367.3981	0.0	+	41	noun	list	2	5	match	tablier	5	1	y	0.49168
367.79789999999997	0.2	ldk	41	noun	list	2	6	match	tablier	5	1	y	0.49168
367.9978	0.0	+	41	noun	list	2	7	match	tablier	5	1	y	0.49168
368.3981	0.2	mieux	41	noun	list	2	8	match	tablier	5	1	y	0.49168
368.5979	0.0	+	41	noun	list	2	9	match	tablier	5	1	y	0.49168
368.9973	0.2	tablier	41	noun	list	2	10	match	tablier	5	1	y	0.49168
369.1973	0.0	+	41	noun	list	2	11	match	tablier	5	1	y	0.49168
369.59709999999995	0.0	+	41	noun	list	2	12	match	tablier	5	1	y	0.49168
371.61339999999996	0.0	TABLIER	41	noun	list	2	13	match	tablier	5	1	y	0.49168
372.1626	0.0	+	41	noun	list	2	14	match	tablier	5	1	y	0.49168
372.1051	0.0	[response]	41	noun	list	2	15	match	tablier	5	1	y	0.49168
373.99519999999995	0.0	+	42	verb	list	3	1	nomatch	jongler	-1	1	p	0.54482
374.5449	0.2	gxl	42	verb	list	3	2	nomatch	jongler	-1	1	p	0.54482
374.74539999999996	0.0	+	42	verb	list	3	3	nomatch	jongler	-1	1	p	0.54482
375.1447	0.2	pfmr	42	verb	list	3	4	nomatch	jongler	-1	1	p	0.54482
375.3614	0.0	+	42	verb	list	3	5	nomatch	jongler	-1	1	p	0.54482
375.7444	0.2	son	42	verb	list	3	6	nomatch	jongler	-1	1	p	0.54482
375.9443	0.0	+	42	verb	list	3	7	nomatch	jongler	-1	1	p	0.54482
376.34409999999997	0.2	parader	42	verb	list	3	8	nomatch	jongler	-1	1	p	0.54482
376.544	0.0	+	42	verb	list	3	9	nomatch	jongler	-1	1	p	0.54482
376.9439	0.2	rouge	42	verb	list	3	10	nomatch	jongler	-1	1	p	0.54482
377.1438	0.0	+	42	verb	list	3	11	nomatch	jongler	-1	1	p	0.54482
377.54359999999997	0.0	+	42	verb	list	3	12	nomatch	jongler	-1	1	p	0.54482
379.54269999999997	0.0	JONGLER	42	verb	list	3	13	nomatch	jongler	-1	1	p	0.54482
380.1424	0.0	+	42	verb	list	3	14	nomatch	jongler	-1	1	p	0.54482
380.0875	0.0	[response]	42	verb	list	3	15	nomatch	jongler	-1	1	p	0.54482
381.94169999999997	0.0	+	43	verb	phrase	4	1	nomatch	voyager	-1	1	p	0.60433
382.4914	0.2	hjgpt	43	verb	phrase	4	2	nomatch	voyager	-1	1	p	0.60433
382.69129999999996	0.0	+	43	verb	phrase	4	3	nomatch	voyager	-1	1	p	0.60433
383.09119999999996	0.2	jade	43	verb	phrase	4	4	nomatch	voyager	-1	1	p	0.60433
383.2911	0.0	+	43	verb	phrase	4	5	nomatch	voyager	-1	1	p	0.60433
383.6909	0.2	peut	43	verb	phrase	4	6	nomatch	voyager	-1	1	p	0.60433
383.89079999999996	0.0	+	43	verb	phrase	4	7	nomatch	voyager	-1	1	p	0.60433
384.30789999999996	0.2	moins	43	verb	phrase	4	8	nomatch	voyager	-1	1	p	0.60433
384.491	0.0	+	43	verb	phrase	4	9	nomatch	voyager	-1	1	p	0.60433
384.8904	0.2	chasser	43	verb	phrase	4	10	nomatch	voyager	-1	1	p	0.60433
385.09029999999996	0.0	+	43	verb	phrase	4	11	nomatch	voyager	-1	1	p	0.60433
385.4901	0.0	+	43	verb	phrase	4	12	nomatch	voyager	-1	1	p	0.60433
387.4896	0.0	VOYAGER	43	verb	phrase	4	13	nomatch	voyager	-1	1	p	0.60433
388.1556	0.0	+	43	verb	phrase	4	14	nomatch	voyager	-1	1	p	0.60433
388.09389999999996	0.0	[response]	43	verb	phrase	4	15	nomatch	voyager	-1	1	p	0.60433
389.8882	0.0	+	44	verb	list	4	1	match	nager	4	1	y	0.70506
390.43789999999996	0.2	pghnt	44	verb	list	4	2	match	nager	4	1	y	0.70506
390.63779999999997	0.0	+	44	verb	list	4	3	match	nager	4	1	y	0.70506
391.0377	0.2	jean	44	verb	list	4	4	match	nager	4	1	y	0.70506
391.238	0.0	+	44	verb	list	4	5	match	nager	4	1	y	0.70506
391.6381	0.2	son	44	verb	list	4	6	match	nager	4	1	y	0.70506
391.8374	0.0	+	44	verb	list	4	7	match	nager	4	1	y	0.70506
392.2371	0.2	nager	44	verb	list	4	8	match	nager	4	1	y	0.70506
392.4371	0.0	+	44	verb	list	4	9	match	nager	4	1	y	0.70506
392.83689999999996	0.2	noir	44	verb	list	4	10	match	nager	4	1	y	0.70506
393.03679999999997	0.0	+	44	verb	list	4	11	match	nager	4	1	y	0.70506
393.4366	0.0	+	44	verb	list	4	12	match	nager	4	1	y	0.70506
395.4357	0.0	NAGER	44	verb	list	4	13	match	nager	4	1	y	0.70506
396.2355	0.0	+	44	verb	list	4	14	match	nager	4	1	y	0.70506
396.14079999999996	0.0	[response]	44	verb	list	4	15	match	nager	4	1	y	0.70506
405.8478	0.0	+	45	noun	phrase	2	1	match	blanc	5	1	y	0.67296
406.39759999999995	0.2	czjtfqx	45	noun	phrase	2	2	match	blanc	5	1	y	0.67296
406.59749999999997	0.0	+	45	noun	phrase	2	3	match	blanc	5	1	y	0.67296
406.99789999999996	0.2	hsnx	45	noun	phrase	2	4	match	blanc	5	1	y	0.67296
407.1978	0.0	+	45	noun	phrase	2	5	match	blanc	5	1	y	0.67296
407.59729999999996	0.2	hfs	45	noun	phrase	2	6	match	blanc	5	1	y	0.67296
407.8143	0.0	+	45	noun	phrase	2	7	match	blanc	5	1	y	0.67296
408.1968	0.2	tablier	45	noun	phrase	2	8	match	blanc	5	1	y	0.67296
408.3967	0.0	+	45	noun	phrase	2	9	match	blanc	5	1	y	0.67296
408.7965	0.2	blanc	45	noun	phrase	2	10	match	blanc	5	1	y	0.67296
408.9964	0.0	+	45	noun	phrase	2	11	match	blanc	5	1	y	0.67296
409.3963	0.0	+	45	noun	phrase	2	12	match	blanc	5	1	y	0.67296
411.3954	0.0	BLANC	45	noun	phrase	2	13	match	blanc	5	1	y	0.67296
412.1954	0.0	+	45	noun	phrase	2	14	match	blanc	5	1	y	0.67296
412.06829999999997	0.0	[response]	45	noun	phrase	2	15	match	blanc	5	1	y	0.67296
413.79429999999996	0.0	+	46	verb	phrase	1	1	match	plus	5	1	y	0.61769
414.34409999999997	0.2	wmjk	46	verb	phrase	1	2	match	plus	5	1	y	0.61769
414.544	0.0	+	46	verb	phrase	1	3	match	plus	5	1	y	0.61769
414.94379999999995	0.2	dsv	46	verb	phrase	1	4	match	plus	5	1	y	0.61769
415.14369999999997	0.0	+	46	verb	phrase	1	5	match	plus	5	1	y	0.61769
415.5435	0.2	glhb	46	verb	phrase	1	6	match	plus	5	1	y	0.61769
415.7435	0.0	+	46	verb	phrase	1	7	match	plus	5	1	y	0.61769
416.14329999999995	0.2	qtjhvsb	46	verb	phrase	1	8	match	plus	5	1	y	0.61769
416.34319999999997	0.0	+	46	verb	phrase	1	9	match	plus	5	1	y	0.61769
416.7435	0.2	plus	46	verb	phrase	1	10	match	plus	5	1	y	0.61769
416.94329999999997	0.0	+	46	verb	phrase	1	11	match	plus	5	1	y	0.61769
417.34279999999995	0.0	+	46	verb	phrase	1	12	match	plus	5	1	y	0.61769
419.3426	0.0	PLUS	46	verb	phrase	1	13	match	plus	5	1	y	0.61769
420.0251	0.0	+	46	verb	phrase	1	14	match	plus	5	1	y	0.61769
419.96029999999996	0.0	[response]	46	verb	phrase	1	15	match	plus	5	1	y	0.61769
421.7408	0.0	+	47	verb	phrase	1	1	nomatch	tard	-1	1	p	0.68335
422.2906	0.2	wdp	47	verb	phrase	1	2	nomatch	tard	-1	1	p	0.68335
422.4905	0.0	+	47	verb	phrase	1	3	nomatch	tard	-1	1	p	0.68335
422.89029999999997	0.2	hgvw	47	verb	phrase	1	4	nomatch	tard	-1	1	p	0.68335
423.0902	0.0	+	47	verb	phrase	1	5	nomatch	tard	-1	1	p	0.68335
423.4901	0.2	jq	47	verb	phrase	1	6	nomatch	tard	-1	1	p	0.68335
423.7068	0.0	+	47	verb	phrase	1	7	nomatch	tard	-1	1	p	0.68335
424.0904	0.2	lkvjn	47	verb	phrase	1	8	nomatch	tard	-1	1	p	0.68335
424.2899	0.0	+	47	verb	phrase	1	9	nomatch	tard	-1	1	p	0.68335
424.6902	0.2	vite	47	verb	phrase	1	10	nomatch	tard	-1	1	p	0.68335
424.8895	0.0	+	47	verb	phrase	1	11	nomatch	tard	-1	1	p	0.68335
425.28929999999997	0.0	+	47	verb	phrase	1	12	nomatch	tard	-1	1	p	0.68335
427.28839999999997	0.0	TARD	47	verb	phrase	1	13	nomatch	tard	-1	1	p	0.68335
428.0381	0.0	+	47	verb	phrase	1	14	nomatch	tard	-1	1	p	0.68335
427.9717	0.0	[response]	47	verb	phrase	1	15	nomatch	tard	-1	1	p	0.68335
429.6873	0.0	+	48	noun	phrase	2	1	nomatch	cendrier	-1	1	p	0.59026
430.2371	0.2	plxbsqk	48	noun	phrase	2	2	nomatch	cendrier	-1	1	p	0.59026
430.43699999999995	0.0	+	48	noun	phrase	2	3	nomatch	cendrier	-1	1	p	0.59026
430.8368	0.2	hsnx	48	noun	phrase	2	4	nomatch	cendrier	-1	1	p	0.59026
431.0367	0.0	+	48	noun	phrase	2	5	nomatch	cendrier	-1	1	p	0.59026
431.4366	0.2	hfs	48	noun	phrase	2	6	nomatch	cendrier	-1	1	p	0.59026
431.63649999999996	0.0	+	48	noun	phrase	2	7	nomatch	cendrier	-1	1	p	0.59026
432.03659999999996	0.2	clavier	48	noun	phrase	2	8	nomatch	cendrier	-1	1	p	0.59026
432.2535	0.0	+	48	noun	phrase	2	9	nomatch	cendrier	-1	1	p	0.59026
432.63599999999997	0.2	rouge	48	noun	phrase	2	10	nomatch	cendrier	-1	1	p	0.59026
432.8359	0.0	+	48	noun	phrase	2	11	nomatch	cendrier	-1	1	p	0.59026
433.2358	0.0	+	48	noun	phrase	2	12	nomatch	cendrier	-1	1	p	0.59026
435.25169999999997	0.0	CENDRIER	48	noun	phrase	2	13	nomatch	cendrier	-1	1	p	0.59026
435.952	0.0	+	48	noun	phrase	2	14	nomatch	cendrier	-1	1	p	0.59026
435.8419	0.0	[response]	48	noun	phrase	2	15	nomatch	cendrier	-1	1	p	0.59026
445.66429999999997	0.0	+	49	noun	list	4	1	match	doit	3	1	y	0.784
446.19669999999996	0.2	cjsxlht	49	noun	list	4	2	match	doit	3	1	y	0.784
446.3966	0.0	+	49	noun	list	4	3	match	doit	3	1	y	0.784
446.7965	0.2	vers	49	noun	list	4	4	match	doit	3	1	y	0.784
446.9964	0.0	+	49	noun	list	4	5	match	doit	3	1	y	0.784
447.39619999999996	0.2	doit	49	noun	list	4	6	match	doit	3	1	y	0.784
447.5961	0.0	+	49	noun	list	4	7	match	doit	3	1	y	0.784
447.9959	0.2	grenier	49	noun	list	4	8	match	doit	3	1	y	0.784
448.19579999999996	0.0	+	49	noun	list	4	9	match	doit	3	1	y	0.784
448.59569999999997	0.2	vite	49	noun	list	4	10	match	doit	3	1	y	0.784
448.7956	0.0	+	49	noun	list	4	11	match	doit	3	1	y	0.784
449.1954	0.0	+	49	noun	list	4	12	match	doit	3	1	y	0.784
451.1945	0.0	DOIT	49	noun	list	4	13	match	doit	3	1	y	0.784
452.0442	0.0	+	49	noun	list	4	14	match	doit	3	1	y	0.784
451.97850000000005	0.0	[response]	49	noun	list	4	15	match	doit	3	1	y	0.784
453.5935	0.0	+	50	verb	list	3	1	nomatch	moins	-1	1	p	0.68714
454.1432	0.2	cwng	50	verb	list	3	2	nomatch	moins	-1	1	p	0.68714
454.34319999999997	0.0	+	50	verb	list	3	3	nomatch	moins	-1	1	p	0.68714
454.743	0.2	lnmr	50	verb	list	3	4	nomatch	moins	-1	1	p	0.68714
454.9429	0.0	+	50	verb	list	3	5	nomatch	moins	-1	1	p	0.68714
455.3427	0.2	peut	50	verb	list	3	6	nomatch	moins	-1	1	p	0.68714
455.5426	0.0	+	50	verb	list	3	7	nomatch	moins	-1	1	p	0.68714
455.9595	0.2	grand	50	verb	list	3	8	nomatch	moins	-1	1	p	0.68714
456.1425	0.0	+	50	verb	list	3	9	nomatch	moins	-1	1	p	0.68714
456.54269999999997	0.2	parader	50	verb	list	3	10	nomatch	moins	-1	1	p	0.68714
456.7425	0.0	+	50	verb	list	3	11	nomatch	moins	-1	1	p	0.68714
457.142	0.0	+	50	verb	list	3	12	nomatch	moins	-1	1	p	0.68714
459.14099999999996	0.0	MOINS	50	verb	list	3	13	nomatch	moins	-1	1	p	0.68714
459.92409999999995	0.0	+	50	verb	list	3	14	nomatch	moins	-1	1	p	0.68714
459.82820000000004	0.0	[response]	50	verb	list	3	15	nomatch	moins	-1	1	p	0.68714
469.53649999999993	0.0	+	51	noun	phrase	4	1	nomatch	yves	-1	1	p	0.66738
470.08619999999996	0.2	wlcm	51	noun	phrase	4	2	nomatch	yves	-1	1	p	0.66738
470.28610000000003	0.0	+	51	noun	phrase	4	3	nomatch	yves	-1	1	p	0.66738
470.6867	0.2	sans	51	noun	phrase	4	4	nomatch	yves	-1	1	p	0.66738
470.90319999999997	0.0	+	51	noun	phrase	4	5	nomatch	yves	-1	1	p	0.66738
471.2858	0.2	son	51	noun	phrase	4	6	nomatch	yves	-1	1	p	0.66738
471.48569999999995	0.0	+	51	noun	phrase	4	7	nomatch	yves	-1	1	p	0.66738
471.88609999999994	0.2	nouveau	51	noun	phrase	4	8	nomatch	yves	-1	1	p	0.66738
472.08539999999994	0.0	+	51	noun	phrase	4	9	nomatch	yves	-1	1	p	0.66738
472.48519999999996	0.2	clavier	51	noun	phrase	4	10	nomatch	yves	-1	1	p	0.66738
472.68510000000003	0.0	+	51	noun	phrase	4	11	nomatch	yves	-1	1	p	0.66738
473.08489999999995	0.0	+	51	noun	phrase	4	12	nomatch	yves	-1	1	p	0.66738
475.08399999999995	0.0	YVES	51	noun	phrase	4	13	nomatch	yves	-1	1	p	0.66738
475.8506	0.0	+	51	noun	phrase	4	14	nomatch	yves	-1	1	p	0.66738
475.7514	0.0	[response]	51	noun	phrase	4	15	nomatch	yves	-1	1	p	0.66738
477.49969999999996	0.0	+	52	verb	phrase	3	1	match	va	3	1	y	0.43887000000000004
478.0494	0.2	rbcsj	52	verb	phrase	3	2	match	va	3	1	y	0.43887000000000004
478.24929999999995	0.0	+	52	verb	phrase	3	3	match	va	3	1	y	0.43887000000000004
478.6663	0.2	lnpz	52	verb	phrase	3	4	match	va	3	1	y	0.43887000000000004
478.84929999999997	0.0	+	52	verb	phrase	3	5	match	va	3	1	y	0.43887000000000004
479.2492	0.2	va	52	verb	phrase	3	6	match	va	3	1	y	0.43887000000000004
479.4661	0.0	+	52	verb	phrase	3	7	match	va	3	1	y	0.43887000000000004
479.84929999999997	0.2	rouler	52	verb	phrase	3	8	match	va	3	1	y	0.43887000000000004
480.0485	0.0	+	52	verb	phrase	3	9	match	va	3	1	y	0.43887000000000004
480.4483	0.2	tard	52	verb	phrase	3	10	match	va	3	1	y	0.43887000000000004
480.6482	0.0	+	52	verb	phrase	3	11	match	va	3	1	y	0.43887000000000004
481.0481	0.0	+	52	verb	phrase	3	12	match	va	3	1	y	0.43887000000000004
483.04729999999995	0.0	VA	52	verb	phrase	3	13	match	va	3	1	y	0.43887000000000004
483.547	0.0	+	52	verb	phrase	3	14	match	va	3	1	y	0.43887000000000004
483.48609999999996	0.0	[response]	52	verb	phrase	3	15	match	va	3	1	y	0.43887000000000004
485.4628	0.0	+	53	verb	phrase	1	1	match	tôt	5	1	y	0.3798
486.0132	0.2	pjslbw	53	verb	phrase	1	2	match	tôt	5	1	y	0.3798
486.19579999999996	0.0	+	53	verb	phrase	1	3	match	tôt	5	1	y	0.3798
486.5956	0.2	rtgc	53	verb	phrase	1	4	match	tôt	5	1	y	0.3798
486.79549999999995	0.0	+	53	verb	phrase	1	5	match	tôt	5	1	y	0.3798
487.19539999999995	0.2	jq	53	verb	phrase	1	6	match	tôt	5	1	y	0.3798
487.3953	0.0	+	53	verb	phrase	1	7	match	tôt	5	1	y	0.3798
487.79509999999993	0.2	qtjhvsb	53	verb	phrase	1	8	match	tôt	5	1	y	0.3798
487.995	0.0	+	53	verb	phrase	1	9	match	tôt	5	1	y	0.3798
488.39480000000003	0.2	tôt	53	verb	phrase	1	10	match	tôt	5	1	y	0.3798
488.59479999999996	0.0	+	53	verb	phrase	1	11	match	tôt	5	1	y	0.3798
488.99529999999993	0.0	+	53	verb	phrase	1	12	match	tôt	5	1	y	0.3798
490.9942	0.0	TÔT	53	verb	phrase	1	13	match	tôt	5	1	y	0.3798
491.42679999999996	0.0	+	53	verb	phrase	1	14	match	tôt	5	1	y	0.3798
491.37400000000014	0.0	[response]	53	verb	phrase	1	15	match	tôt	5	1	y	0.3798
493.3926	0.0	+	54	verb	list	4	1	nomatch	sur	-1	1	p	0.77501
493.9424	0.2	skpt	54	verb	list	4	2	nomatch	sur	-1	1	p	0.77501
494.1423	0.0	+	54	verb	list	4	3	nomatch	sur	-1	1	p	0.77501
494.5594	0.2	avec	54	verb	list	4	4	nomatch	sur	-1	1	p	0.77501
494.7424	0.0	+	54	verb	list	4	5	nomatch	sur	-1	1	p	0.77501
495.15909999999997	0.2	doit	54	verb	list	4	6	nomatch	sur	-1	1	p	0.77501
495.35900000000004	0.0	+	54	verb	list	4	7	nomatch	sur	-1	1	p	0.77501
495.7587	0.2	nouveau	54	verb	list	4	8	nomatch	sur	-1	1	p	0.77501
495.9415	0.0	+	54	verb	list	4	9	nomatch	sur	-1	1	p	0.77501
496.34129999999993	0.2	plonger	54	verb	list	4	10	nomatch	sur	-1	1	p	0.77501
496.5413	0.0	+	54	verb	list	4	11	nomatch	sur	-1	1	p	0.77501
496.9411	0.0	+	54	verb	list	4	12	nomatch	sur	-1	1	p	0.77501
498.9402	0.0	SUR	54	verb	list	4	13	nomatch	sur	-1	1	p	0.77501
499.7732	0.0	+	54	verb	list	4	14	nomatch	sur	-1	1	p	0.77501
499.7152000000001	0.0	[response]	54	verb	list	4	15	nomatch	sur	-1	1	p	0.77501
501.3392	0.0	+	55	verb	phrase	3	1	nomatch	noir	-1	1	p	0.56187
501.88890000000004	0.2	qtphr	55	verb	phrase	3	2	nomatch	noir	-1	1	p	0.56187
502.0888	0.0	+	55	verb	phrase	3	3	nomatch	noir	-1	1	p	0.56187
502.4886	0.2	dgpc	55	verb	phrase	3	4	nomatch	noir	-1	1	p	0.56187
502.68859999999995	0.0	+	55	verb	phrase	3	5	nomatch	noir	-1	1	p	0.56187
503.1056	0.2	peut	55	verb	phrase	3	6	nomatch	noir	-1	1	p	0.56187
503.28869999999995	0.0	+	55	verb	phrase	3	7	nomatch	noir	-1	1	p	0.56187
503.68809999999996	0.2	chasser	55	verb	phrase	3	8	nomatch	noir	-1	1	p	0.56187
503.88800000000003	0.0	+	55	verb	phrase	3	9	nomatch	noir	-1	1	p	0.56187
504.28790000000004	0.2	tôt	55	verb	phrase	3	10	nomatch	noir	-1	1	p	0.56187
504.4878	0.0	+	55	verb	phrase	3	11	nomatch	noir	-1	1	p	0.56187
504.8876	0.0	+	55	verb	phrase	3	12	nomatch	noir	-1	1	p	0.56187
506.8873	0.0	NOIR	55	verb	phrase	3	13	nomatch	noir	-1	1	p	0.56187
507.5031	0.0	+	55	verb	phrase	3	14	nomatch	noir	-1	1	p	0.56187
507.4492	0.0	[response]	55	verb	phrase	3	15	nomatch	noir	-1	1	p	0.56187
509.28599999999994	0.0	+	56	noun	list	1	1	nomatch	rocher	-1	1	p	0.47054
509.83579999999995	0.2	zbxdsw	56	noun	list	1	2	nomatch	rocher	-1	1	p	0.47054
510.0353	0.0	+	56	noun	list	1	3	nomatch	rocher	-1	1	p	0.47054
510.43510000000003	0.2	dsv	56	noun	list	1	4	nomatch	rocher	-1	1	p	0.47054
510.63509999999997	0.0	+	56	noun	list	1	5	nomatch	rocher	-1	1	p	0.47054
511.0349	0.2	hfs	56	noun	list	1	6	nomatch	rocher	-1	1	p	0.47054
511.23479999999995	0.0	+	56	noun	list	1	7	nomatch	rocher	-1	1	p	0.47054
511.6346	0.2	vrpg	56	noun	list	1	8	nomatch	rocher	-1	1	p	0.47054
511.83449999999993	0.0	+	56	noun	list	1	9	nomatch	rocher	-1	1	p	0.47054
512.2343999999999	0.2	cendrier	56	noun	list	1	10	nomatch	rocher	-1	1	p	0.47054
512.4343	0.0	+	56	noun	list	1	11	nomatch	rocher	-1	1	p	0.47054
512.8341	0.0	+	56	noun	list	1	12	nomatch	rocher	-1	1	p	0.47054
514.8505	0.0	ROCHER	56	noun	list	1	13	nomatch	rocher	-1	1	p	0.47054
515.383	0.0	+	56	noun	list	1	14	nomatch	rocher	-1	1	p	0.47054
515.3211000000001	0.0	[response]	56	noun	list	1	15	nomatch	rocher	-1	1	p	0.47054
517.2488	0.0	+	57	verb	list	1	1	nomatch	plonger	-1	1	p	0.52817
517.7986	0.2	flnpgh	57	verb	list	1	2	nomatch	plonger	-1	1	p	0.52817
517.9985	0.0	+	57	verb	list	1	3	nomatch	plonger	-1	1	p	0.52817
518.3983	0.2	lnmr	57	verb	list	1	4	nomatch	plonger	-1	1	p	0.52817
518.5985	0.0	+	57	verb	list	1	5	nomatch	plonger	-1	1	p	0.52817
518.9986	0.2	glhb	57	verb	list	1	6	nomatch	plonger	-1	1	p	0.52817
519.2152	0.0	+	57	verb	list	1	7	nomatch	plonger	-1	1	p	0.52817
519.598	0.2	tskwq	57	verb	list	1	8	nomatch	plonger	-1	1	p	0.52817
519.7977999999999	0.0	+	57	verb	list	1	9	nomatch	plonger	-1	1	p	0.52817
520.1975	0.2	danser	57	verb	list	1	10	nomatch	plonger	-1	1	p	0.52817
520.3974	0.0	+	57	verb	list	1	11	nomatch	plonger	-1	1	p	0.52817
520.7973	0.0	+	57	verb	list	1	12	nomatch	plonger	-1	1	p	0.52817
522.7964	0.0	PLONGER	57	verb	list	1	13	nomatch	plonger	-1	1	p	0.52817
523.3794	0.0	+	57	verb	list	1	14	nomatch	plonger	-1	1	p	0.52817
523.3245	0.0	[response]	57	verb	list	1	15	nomatch	plonger	-1	1	p	0.52817
525.1953	0.0	+	58	noun	phrase	2	1	match	nouveau	4	1	y	0.81084
525.7451	0.2	vsgc	58	noun	phrase	2	2	match	nouveau	4	1	y	0.81084
525.9449999999999	0.0	+	58	noun	phrase	2	3	match	nouveau	4	1	y	0.81084
526.3455	0.2	kxqr	58	noun	phrase	2	4	match	nouveau	4	1	y	0.81084
526.5449	0.0	+	58	noun	phrase	2	5	match	nouveau	4	1	y	0.81084
526.9446	0.2	hfs	58	noun	phrase	2	6	match	nouveau	4	1	y	0.81084
527.1445	0.0	+	58	noun	phrase	2	7	match	nouveau	4	1	y	0.81084
527.5443	0.2	nouveau	58	noun	phrase	2	8	match	nouveau	4	1	y	0.81084
527.7442	0.0	+	58	noun	phrase	2	9	match	nouveau	4	1	y	0.81084
528.1441	0.2	cendrier	58	noun	phrase	2	10	match	nouveau	4	1	y	0.81084
528.3439	0.0	+	58	noun	phrase	2	11	match	nouveau	4	1	y	0.81084
528.7438	0.0	+	58	noun	phrase	2	12	match	nouveau	4	1	y	0.81084
530.7429	0.0	NOUVEAU	58	noun	phrase	2	13	match	nouveau	4	1	y	0.81084
531.6092	0.0	+	58	noun	phrase	2	14	match	nouveau	4	1	y	0.81084
531.5536999999999	0.0	[response]	58	noun	phrase	2	15	match	nouveau	4	1	y	0.81084
541.1383	0.0	+	59	verb	list	1	1	match	petit	5	1	y	0.57863
541.6881	0.2	rmfpv	59	verb	list	1	2	match	petit	5	1	y	0.57863
541.8883	0.0	+	59	verb	list	1	3	match	petit	5	1	y	0.57863
542.2881	0.2	ptxf	59	verb	list	1	4	match	petit	5	1	y	0.57863
542.4883	0.0	+	59	verb	list	1	5	match	petit	5	1	y	0.57863
542.8882	0.2	jq	59	verb	list	1	6	match	petit	5	1	y	0.57863
543.0874	0.0	+	59	verb	list	1	7	match	petit	5	1	y	0.57863
543.4873	0.2	zxvbjts	59	verb	list	1	8	match	petit	5	1	y	0.57863
543.6872	0.0	+	59	verb	list	1	9	match	petit	5	1	y	0.57863
544.087	0.2	petit	59	verb	list	1	10	match	petit	5	1	y	0.57863
544.2869	0.0	+	59	verb	list	1	11	match	petit	5	1	y	0.57863
544.6868	0.0	+	59	verb	list	1	12	match	petit	5	1	y	0.57863
546.6865	0.0	PETIT	59	verb	list	1	13	match	petit	5	1	y	0.57863
547.4363	0.0	+	59	verb	list	1	14	match	petit	5	1	y	0.57863
547.2651999999999	0.0	[response]	59	verb	list	1	15	match	petit	5	1	y	0.57863
549.0848	0.0	+	60	verb	list	3	1	match	son	3	1	y	0.51804
549.6346	0.2	zwvgkq	60	verb	list	3	2	match	son	3	1	y	0.51804
549.8344999999999	0.0	+	60	verb	list	3	3	match	son	3	1	y	0.51804
550.2343	0.2	rmjd	60	verb	list	3	4	match	son	3	1	y	0.51804
550.4342	0.0	+	60	verb	list	3	5	match	son	3	1	y	0.51804
550.834	0.2	son	60	verb	list	3	6	match	son	3	1	y	0.51804
551.034	0.0	+	60	verb	list	3	7	match	son	3	1	y	0.51804
551.4338	0.2	jongler	60	verb	list	3	8	match	son	3	1	y	0.51804
551.6337	0.0	+	60	verb	list	3	9	match	son	3	1	y	0.51804
552.0503	0.2	noir	60	verb	list	3	10	match	son	3	1	y	0.51804
552.2502999999999	0.0	+	60	verb	list	3	11	match	son	3	1	y	0.51804
552.6504	0.0	+	60	verb	list	3	12	match	son	3	1	y	0.51804
554.6494	0.0	SON	60	verb	list	3	13	match	son	3	1	y	0.51804
555.2321	0.0	+	60	verb	list	3	14	match	son	3	1	y	0.51804
555.1675000000001	0.0	[response]	60	verb	list	3	15	match	son	3	1	y	0.51804
557.048	0.0	+	61	verb	phrase	2	1	nomatch	mieux	-1	1	p	1.0608
557.5977	0.2	ftmwdx	61	verb	phrase	2	2	nomatch	mieux	-1	1	p	1.0608
557.7977	0.0	+	61	verb	phrase	2	3	nomatch	mieux	-1	1	p	1.0608
558.1975	0.2	hgvw	61	verb	phrase	2	4	nomatch	mieux	-1	1	p	1.0608
558.3974	0.0	+	61	verb	phrase	2	5	nomatch	mieux	-1	1	p	1.0608
558.7977999999999	0.2	glhb	61	verb	phrase	2	6	nomatch	mieux	-1	1	p	1.0608
558.9978	0.0	+	61	verb	phrase	2	7	nomatch	mieux	-1	1	p	1.0608
559.3972	0.2	moins	61	verb	phrase	2	8	nomatch	mieux	-1	1	p	1.0608
559.6137	0.0	+	61	verb	phrase	2	9	nomatch	mieux	-1	1	p	1.0608
559.9967	0.2	rouler	61	verb	phrase	2	10	nomatch	mieux	-1	1	p	1.0608
560.1966	0.0	+	61	verb	phrase	2	11	nomatch	mieux	-1	1	p	1.0608
560.5964	0.0	+	61	verb	phrase	2	12	nomatch	mieux	-1	1	p	1.0608
562.5955	0.0	MIEUX	61	verb	phrase	2	13	nomatch	mieux	-1	1	p	1.0608
563.7117	0.0	+	61	verb	phrase	2	14	nomatch	mieux	-1	1	p	1.0608
563.6563	0.0	[response]	61	verb	phrase	2	15	nomatch	mieux	-1	1	p	1.0608
564.9945	0.0	+	62	verb	list	2	1	nomatch	vert	-1	1	p	1.4953000000000003
565.5441999999999	0.2	kqgth	62	verb	list	2	2	nomatch	vert	-1	1	p	1.4953000000000003
565.7442	0.0	+	62	verb	list	2	3	nomatch	vert	-1	1	p	1.4953000000000003
566.144	0.2	pfmr	62	verb	list	2	4	nomatch	vert	-1	1	p	1.4953000000000003
566.3439	0.0	+	62	verb	list	2	5	nomatch	vert	-1	1	p	1.4953000000000003
566.7437	0.2	wvrh	62	verb	list	2	6	nomatch	vert	-1	1	p	1.4953000000000003
566.9440999999999	0.0	+	62	verb	list	2	7	nomatch	vert	-1	1	p	1.4953000000000003
567.3442	0.2	chasser	62	verb	list	2	8	nomatch	vert	-1	1	p	1.4953000000000003
567.544	0.0	+	62	verb	list	2	9	nomatch	vert	-1	1	p	1.4953000000000003
567.9431999999999	0.2	noir	62	verb	list	2	10	nomatch	vert	-1	1	p	1.4953000000000003
568.1431	0.0	+	62	verb	list	2	11	nomatch	vert	-1	1	p	1.4953000000000003
568.5429	0.0	+	62	verb	list	2	12	nomatch	vert	-1	1	p	1.4953000000000003
570.5593	0.0	VERT	62	verb	list	2	13	nomatch	vert	-1	1	p	1.4953000000000003
572.108	0.0	+	62	verb	list	2	14	nomatch	vert	-1	1	p	1.4953000000000003
572.0545	0.0	[response]	62	verb	list	2	15	nomatch	vert	-1	1	p	1.4953000000000003
596.9471	0.0	+	63	verb	phrase	2	1	nomatch	voyager	-1	1	p	0.8816200000000001
597.4968	0.2	qfpnb	63	verb	phrase	2	2	nomatch	voyager	-1	1	p	0.8816200000000001
597.6967999999999	0.0	+	63	verb	phrase	2	3	nomatch	voyager	-1	1	p	0.8816200000000001
598.0966	0.2	rmjd	63	verb	phrase	2	4	nomatch	voyager	-1	1	p	0.8816200000000001
598.2965	0.0	+	63	verb	phrase	2	5	nomatch	voyager	-1	1	p	0.8816200000000001
598.7134	0.2	glhb	63	verb	phrase	2	6	nomatch	voyager	-1	1	p	0.8816200000000001
598.9132	0.0	+	63	verb	phrase	2	7	nomatch	voyager	-1	1	p	0.8816200000000001
599.2963	0.2	plonger	63	verb	phrase	2	8	nomatch	voyager	-1	1	p	0.8816200000000001
599.496	0.0	+	63	verb	phrase	2	9	nomatch	voyager	-1	1	p	0.8816200000000001
599.896	0.2	tard	63	verb	phrase	2	10	nomatch	voyager	-1	1	p	0.8816200000000001
600.0957	0.0	+	63	verb	phrase	2	11	nomatch	voyager	-1	1	p	0.8816200000000001
600.4955	0.0	+	63	verb	phrase	2	12	nomatch	voyager	-1	1	p	0.8816200000000001
602.4947	0.0	VOYAGER	63	verb	phrase	2	13	nomatch	voyager	-1	1	p	0.8816200000000001
603.4276	0.0	+	63	verb	phrase	2	14	nomatch	voyager	-1	1	p	0.8816200000000001
603.3763	0.0	[response]	63	verb	phrase	2	15	nomatch	voyager	-1	1	p	0.8816200000000001
604.8936	0.0	+	64	verb	list	4	1	nomatch	adam	-1	1	p	0.49974
605.4434	0.2	cvxp	64	verb	list	4	2	nomatch	adam	-1	1	p	0.49974
605.6433	0.0	+	64	verb	list	4	3	nomatch	adam	-1	1	p	0.49974
606.0431	0.2	pour	64	verb	list	4	4	nomatch	adam	-1	1	p	0.49974
606.2429999999999	0.0	+	64	verb	list	4	5	nomatch	adam	-1	1	p	0.49974
606.6596	0.2	va	64	verb	list	4	6	nomatch	adam	-1	1	p	0.49974
606.8432	0.0	+	64	verb	list	4	7	nomatch	adam	-1	1	p	0.49974
607.2431	0.2	petit	64	verb	list	4	8	nomatch	adam	-1	1	p	0.49974
607.4428	0.0	+	64	verb	list	4	9	nomatch	adam	-1	1	p	0.49974
607.8423	0.2	nager	64	verb	list	4	10	nomatch	adam	-1	1	p	0.49974
608.0422	0.0	+	64	verb	list	4	11	nomatch	adam	-1	1	p	0.49974
608.442	0.0	+	64	verb	list	4	12	nomatch	adam	-1	1	p	0.49974
610.458	0.0	ADAM	64	verb	list	4	13	nomatch	adam	-1	1	p	0.49974
611.0915	0.0	+	64	verb	list	4	14	nomatch	adam	-1	1	p	0.49974
610.9578	0.0	[response]	64	verb	list	4	15	nomatch	adam	-1	1	p	0.49974
612.8401	0.0	+	65	verb	list	2	1	match	chasser	5	1	y	0.50903
613.3905	0.2	fcbdpzh	65	verb	list	2	2	match	chasser	5	1	y	0.50903
613.5903	0.0	+	65	verb	list	2	3	match	chasser	5	1	y	0.50903
613.9898	0.2	ptxf	65	verb	list	2	4	match	chasser	5	1	y	0.50903
614.1897	0.0	+	65	verb	list	2	5	match	chasser	5	1	y	0.50903
614.5899	0.2	vzgp	65	verb	list	2	6	match	chasser	5	1	y	0.50903
614.7893	0.0	+	65	verb	list	2	7	match	chasser	5	1	y	0.50903
615.1890999999999	0.2	beau	65	verb	list	2	8	match	chasser	5	1	y	0.50903
615.389	0.0	+	65	verb	list	2	9	match	chasser	5	1	y	0.50903
615.7888	0.2	chasser	65	verb	list	2	10	match	chasser	5	1	y	0.50903
615.9887	0.0	+	65	verb	list	2	11	match	chasser	5	1	y	0.50903
616.3886	0.0	+	65	verb	list	2	12	match	chasser	5	1	y	0.50903
618.3877	0.0	CHASSER	65	verb	list	2	13	match	chasser	5	1	y	0.50903
618.9540999999999	0.0	+	65	verb	list	2	14	match	chasser	5	1	y	0.50903
618.8967	0.0	[response]	65	verb	list	2	15	match	chasser	5	1	y	0.50903
628.7998	0.0	+	66	verb	phrase	1	1	match	tard	5	1	y	0.3976
629.3495	0.2	fcpbl	66	verb	phrase	1	2	match	tard	5	1	y	0.3976
629.5494	0.0	+	66	verb	phrase	1	3	match	tard	5	1	y	0.3976
629.9492	0.2	dgpc	66	verb	phrase	1	4	match	tard	5	1	y	0.3976
630.1492	0.0	+	66	verb	phrase	1	5	match	tard	5	1	y	0.3976
630.549	0.2	glhb	66	verb	phrase	1	6	match	tard	5	1	y	0.3976
630.7488999999999	0.0	+	66	verb	phrase	1	7	match	tard	5	1	y	0.3976
631.1487	0.2	ckrfhw	66	verb	phrase	1	8	match	tard	5	1	y	0.3976
631.3486	0.0	+	66	verb	phrase	1	9	match	tard	5	1	y	0.3976
631.7658	0.2	tard	66	verb	phrase	1	10	match	tard	5	1	y	0.3976
631.9489	0.0	+	66	verb	phrase	1	11	match	tard	5	1	y	0.3976
632.3484	0.0	+	66	verb	phrase	1	12	match	tard	5	1	y	0.3976
634.3473	0.0	TARD	66	verb	phrase	1	13	match	tard	5	1	y	0.3976
634.7972	0.0	+	66	verb	phrase	1	14	match	tard	5	1	y	0.3976
634.7449	0.0	[response]	66	verb	phrase	1	15	match	tard	5	1	y	0.3976
636.8136	0.0	+	67	verb	phrase	1	1	match	rouler	5	1	y	0.50017
637.2959999999999	0.2	zkx	67	verb	phrase	1	2	match	rouler	5	1	y	0.50017
637.4961999999999	0.0	+	67	verb	phrase	1	3	match	rouler	5	1	y	0.50017
637.8959	0.2	pfmr	67	verb	phrase	1	4	match	rouler	5	1	y	0.50017
638.0957	0.0	+	67	verb	phrase	1	5	match	rouler	5	1	y	0.50017
638.4955	0.2	jq	67	verb	phrase	1	6	match	rouler	5	1	y	0.50017
638.6954	0.0	+	67	verb	phrase	1	7	match	rouler	5	1	y	0.50017
639.0952	0.2	mkfgxzbc	67	verb	phrase	1	8	match	rouler	5	1	y	0.50017
639.2950999999999	0.0	+	67	verb	phrase	1	9	match	rouler	5	1	y	0.50017
639.6949999999999	0.2	rouler	67	verb	phrase	1	10	match	rouler	5	1	y	0.50017
639.8949	0.0	+	67	verb	phrase	1	11	match	rouler	5	1	y	0.50017
640.2947	0.0	+	67	verb	phrase	1	12	match	rouler	5	1	y	0.50017
642.2944	0.0	ROULER	67	verb	phrase	1	13	match	rouler	5	1	y	0.50017
642.8936	0.0	+	67	verb	phrase	1	14	match	rouler	5	1	y	0.50017
642.7946	0.0	[response]	67	verb	phrase	1	15	match	rouler	5	1	y	0.50017
644.6928	0.0	+	68	verb	list	1	1	match	plonger	5	1	y	0.68176
645.2425	0.2	xvqtpks	68	verb	list	1	2	match	plonger	5	1	y	0.68176
645.4424	0.0	+	68	verb	list	1	3	match	plonger	5	1	y	0.68176
645.8423	0.2	rmjd	68	verb	list	1	4	match	plonger	5	1	y	0.68176
646.0422	0.0	+	68	verb	list	1	5	match	plonger	5	1	y	0.68176
646.4589	0.2	hfs	68	verb	list	1	6	match	plonger	5	1	y	0.68176
646.6427	0.0	+	68	verb	list	1	7	match	plonger	5	1	y	0.68176
647.0421	0.2	smlc	68	verb	list	1	8	match	plonger	5	1	y	0.68176
647.2420999999999	0.0	+	68	verb	list	1	9	match	plonger	5	1	y	0.68176
647.6415	0.2	plonger	68	verb	list	1	10	match	plonger	5	1	y	0.68176
647.8414	0.0	+	68	verb	list	1	11	match	plonger	5	1	y	0.68176
648.2411999999999	0.0	+	68	verb	list	1	12	match	plonger	5	1	y	0.68176
650.2405	0.0	PLONGER	68	verb	list	1	13	match	plonger	5	1	y	0.68176
650.99	0.0	+	68	verb	list	1	14	match	plonger	5	1	y	0.68176
650.9222000000001	0.0	[response]	68	verb	list	1	15	match	plonger	5	1	y	0.68176
652.6392999999999	0.0	+	69	noun	phrase	2	1	match	vert	5	1	y	0.53182
653.189	0.2	sgrxtd	69	noun	phrase	2	2	match	vert	5	1	y	0.53182
653.3889	0.0	+	69	noun	phrase	2	3	match	vert	5	1	y	0.53182
653.7888	0.2	kxqr	69	noun	phrase	2	4	match	vert	5	1	y	0.53182
653.9887	0.0	+	69	noun	phrase	2	5	match	vert	5	1	y	0.53182
654.3891	0.2	wvrh	69	noun	phrase	2	6	match	vert	5	1	y	0.53182
654.6057	0.0	+	69	noun	phrase	2	7	match	vert	5	1	y	0.53182
654.9882	0.2	casier	69	noun	phrase	2	8	match	vert	5	1	y	0.53182
655.1881	0.0	+	69	noun	phrase	2	9	match	vert	5	1	y	0.53182
655.588	0.2	vert	69	noun	phrase	2	10	match	vert	5	1	y	0.53182
655.7879	0.0	+	69	noun	phrase	2	11	match	vert	5	1	y	0.53182
656.1877	0.0	+	69	noun	phrase	2	12	match	vert	5	1	y	0.53182
658.1868	0.0	VERT	69	noun	phrase	2	13	match	vert	5	1	y	0.53182
658.7866	0.0	+	69	noun	phrase	2	14	match	vert	5	1	y	0.53182
658.7186	0.0	[response]	69	noun	phrase	2	15	match	vert	5	1	y	0.53182
660.5858	0.0	+	70	verb	phrase	4	1	match	paul	2	1	y	0.72207
661.1355	0.2	sbjv	70	verb	phrase	4	2	match	paul	2	1	y	0.72207
661.3358	0.0	+	70	verb	phrase	4	3	match	paul	2	1	y	0.72207
661.7357999999999	0.2	paul	70	verb	phrase	4	4	match	paul	2	1	y	0.72207
661.9352	0.0	+	70	verb	phrase	4	5	match	paul	2	1	y	0.72207
662.335	0.2	doit	70	verb	phrase	4	6	match	paul	2	1	y	0.72207
662.5349	0.0	+	70	verb	phrase	4	7	match	paul	2	1	y	0.72207
662.9347	0.2	trop	70	verb	phrase	4	8	match	paul	2	1	y	0.72207
663.1346	0.0	+	70	verb	phrase	4	9	match	paul	2	1	y	0.72207
663.5345	0.2	plonger	70	verb	phrase	4	10	match	paul	2	1	y	0.72207
663.7343999999999	0.0	+	70	verb	phrase	4	11	match	paul	2	1	y	0.72207
664.1346	0.0	+	70	verb	phrase	4	12	match	paul	2	1	y	0.72207
666.15	0.0	PAUL	70	verb	phrase	4	13	match	paul	2	1	y	0.72207
666.933	0.0	+	70	verb	phrase	4	14	match	paul	2	1	y	0.72207
666.8720999999999	0.0	[response]	70	verb	phrase	4	15	match	paul	2	1	y	0.72207
668.5489	0.0	+	71	verb	phrase	4	1	match	peut	3	1	y	0.58187
669.0987	0.2	gxzb	71	verb	phrase	4	2	match	peut	3	1	y	0.58187
669.2986999999999	0.0	+	71	verb	phrase	4	3	match	peut	3	1	y	0.58187
669.7156	0.2	adam	71	verb	phrase	4	4	match	peut	3	1	y	0.58187
669.8986	0.0	+	71	verb	phrase	4	5	match	peut	3	1	y	0.58187
670.2982	0.2	peut	71	verb	phrase	4	6	match	peut	3	1	y	0.58187
670.4987	0.0	+	71	verb	phrase	4	7	match	peut	3	1	y	0.58187
670.8983	0.2	rouler	71	verb	phrase	4	8	match	peut	3	1	y	0.58187
671.0978	0.0	+	71	verb	phrase	4	9	match	peut	3	1	y	0.58187
671.4976	0.2	loin	71	verb	phrase	4	10	match	peut	3	1	y	0.58187
671.6976	0.0	+	71	verb	phrase	4	11	match	peut	3	1	y	0.58187
672.0974	0.0	+	71	verb	phrase	4	12	match	peut	3	1	y	0.58187
674.0965	0.0	PEUT	71	verb	phrase	4	13	match	peut	3	1	y	0.58187
674.8302	0.0	+	71	verb	phrase	4	14	match	peut	3	1	y	0.58187
674.6784	0.0	[response]	71	verb	phrase	4	15	match	peut	3	1	y	0.58187
692.4884	0.0	+	72	verb	list	1	1	nomatch	vert	-1	1	p	0.79565
693.0382	0.2	gqtfj	72	verb	list	1	2	nomatch	vert	-1	1	p	0.79565
693.2381	0.0	+	72	verb	list	1	3	nomatch	vert	-1	1	p	0.79565
693.6379	0.2	pfmr	72	verb	list	1	4	nomatch	vert	-1	1	p	0.79565
693.8378	0.0	+	72	verb	list	1	5	nomatch	vert	-1	1	p	0.79565
694.2375999999999	0.2	wvrh	72	verb	list	1	6	nomatch	vert	-1	1	p	0.79565
694.4375	0.0	+	72	verb	list	1	7	nomatch	vert	-1	1	p	0.79565
694.8374	0.2	lgnmjqd	72	verb	list	1	8	nomatch	vert	-1	1	p	0.79565
695.0373	0.0	+	72	verb	list	1	9	nomatch	vert	-1	1	p	0.79565
695.4371	0.2	noir	72	verb	list	1	10	nomatch	vert	-1	1	p	0.79565
695.6377	0.0	+	72	verb	list	1	11	nomatch	vert	-1	1	p	0.79565
696.0376	0.0	+	72	verb	list	1	12	nomatch	vert	-1	1	p	0.79565
698.036	0.0	VERT	72	verb	list	1	13	nomatch	vert	-1	1	p	0.79565
698.8856	0.0	+	72	verb	list	1	14	nomatch	vert	-1	1	p	0.79565
698.8316	0.0	[response]	72	verb	list	1	15	nomatch	vert	-1	1	p	0.79565
700.4349	0.0	+	73	noun	list	1	1	match	cendrier	5	1	y	0.65466
700.9847	0.2	vnpz	73	noun	list	1	2	match	cendrier	5	1	y	0.65466
701.1845999999999	0.0	+	73	noun	list	1	3	match	cendrier	5	1	y	0.65466
701.5844	0.2	ptxf	73	noun	list	1	4	match	cendrier	5	1	y	0.65466
701.7843	0.0	+	73	noun	list	1	5	match	cendrier	5	1	y	0.65466
702.1844	0.2	jq	73	noun	list	1	6	match	cendrier	5	1	y	0.65466
702.4010999999999	0.0	+	73	noun	list	1	7	match	cendrier	5	1	y	0.65466
702.7839	0.2	qsdb	73	noun	list	1	8	match	cendrier	5	1	y	0.65466
702.9838	0.0	+	73	noun	list	1	9	match	cendrier	5	1	y	0.65466
703.3837	0.2	cendrier	73	noun	list	1	10	match	cendrier	5	1	y	0.65466
703.5837	0.0	+	73	noun	list	1	11	match	cendrier	5	1	y	0.65466
704.0	0.0	+	73	noun	list	1	12	match	cendrier	5	1	y	0.65466
705.9997999999999	0.0	CENDRIER	73	noun	list	1	13	match	cendrier	5	1	y	0.65466
706.7155	0.0	+	73	noun	list	1	14	match	cendrier	5	1	y	0.65466
706.6544	0.0	[response]	73	noun	list	1	15	match	cendrier	5	1	y	0.65466
708.3981	0.0	+	74	verb	list	2	1	nomatch	vieux	-1	1	p	0.54581
708.9479	0.2	rjtmd	74	verb	list	2	2	nomatch	vieux	-1	1	p	0.54581
709.1477	0.0	+	74	verb	list	2	3	nomatch	vieux	-1	1	p	0.54581
709.5476	0.2	hgvw	74	verb	list	2	4	nomatch	vieux	-1	1	p	0.54581
709.7479999999999	0.0	+	74	verb	list	2	5	nomatch	vieux	-1	1	p	0.54581
710.1476	0.2	hfs	74	verb	list	2	6	nomatch	vieux	-1	1	p	0.54581
710.3477	0.0	+	74	verb	list	2	7	nomatch	vieux	-1	1	p	0.54581
710.7476	0.2	rouler	74	verb	list	2	8	nomatch	vieux	-1	1	p	0.54581
710.9476999999999	0.0	+	74	verb	list	2	9	nomatch	vieux	-1	1	p	0.54581
711.3468	0.2	rouge	74	verb	list	2	10	nomatch	vieux	-1	1	p	0.54581
711.5467	0.0	+	74	verb	list	2	11	nomatch	vieux	-1	1	p	0.54581
711.9465	0.0	+	74	verb	list	2	12	nomatch	vieux	-1	1	p	0.54581
713.9456	0.0	VIEUX	74	verb	list	2	13	nomatch	vieux	-1	1	p	0.54581
714.5454	0.0	+	74	verb	list	2	14	nomatch	vieux	-1	1	p	0.54581
714.4915	0.0	[response]	74	verb	list	2	15	nomatch	vieux	-1	1	p	0.54581
716.3446	0.0	+	75	noun	list	1	1	nomatch	cendrier	-1	1	p	0.45504000000000006
716.8942999999999	0.2	pklqg	75	noun	list	1	2	nomatch	cendrier	-1	1	p	0.45504000000000006
717.0943	0.0	+	75	noun	list	1	3	nomatch	cendrier	-1	1	p	0.45504000000000006
717.4947999999999	0.2	dgpc	75	noun	list	1	4	nomatch	cendrier	-1	1	p	0.45504000000000006
717.694	0.0	+	75	noun	list	1	5	nomatch	cendrier	-1	1	p	0.45504000000000006
718.0944999999999	0.2	wvrh	75	noun	list	1	6	nomatch	cendrier	-1	1	p	0.45504000000000006
718.2943	0.0	+	75	noun	list	1	7	nomatch	cendrier	-1	1	p	0.45504000000000006
718.6938	0.2	sjxrn	75	noun	list	1	8	nomatch	cendrier	-1	1	p	0.45504000000000006
718.8935	0.0	+	75	noun	list	1	9	nomatch	cendrier	-1	1	p	0.45504000000000006
719.2932999999999	0.2	voilier	75	noun	list	1	10	nomatch	cendrier	-1	1	p	0.45504000000000006
719.4932	0.0	+	75	noun	list	1	11	nomatch	cendrier	-1	1	p	0.45504000000000006
719.893	0.0	+	75	noun	list	1	12	nomatch	cendrier	-1	1	p	0.45504000000000006
721.8921	0.0	CENDRIER	75	noun	list	1	13	nomatch	cendrier	-1	1	p	0.45504000000000006
722.4086	0.0	+	75	noun	list	1	14	nomatch	cendrier	-1	1	p	0.45504000000000006
722.3471999999999	0.0	[response]	75	noun	list	1	15	nomatch	cendrier	-1	1	p	0.45504000000000006
724.2911	0.0	+	76	verb	list	2	1	match	jongler	5	1	y	0.77728
724.8409	0.2	nrbdpfq	76	verb	list	2	2	match	jongler	5	1	y	0.77728
725.0408	0.0	+	76	verb	list	2	3	match	jongler	5	1	y	0.77728
725.4407	0.2	dtsr	76	verb	list	2	4	match	jongler	5	1	y	0.77728
725.6405	0.0	+	76	verb	list	2	5	match	jongler	5	1	y	0.77728
726.0403	0.2	glhb	76	verb	list	2	6	match	jongler	5	1	y	0.77728
726.2402	0.0	+	76	verb	list	2	7	match	jongler	5	1	y	0.77728
726.6408	0.2	grand	76	verb	list	2	8	match	jongler	5	1	y	0.77728
726.8405	0.0	+	76	verb	list	2	9	match	jongler	5	1	y	0.77728
727.2401	0.2	jongler	76	verb	list	2	10	match	jongler	5	1	y	0.77728
727.4564	0.0	+	76	verb	list	2	11	match	jongler	5	1	y	0.77728
727.8402	0.0	+	76	verb	list	2	12	match	jongler	5	1	y	0.77728
729.8387	0.0	JONGLER	76	verb	list	2	13	match	jongler	5	1	y	0.77728
730.6716	0.0	+	76	verb	list	2	14	match	jongler	5	1	y	0.77728
730.6159	0.0	[response]	76	verb	list	2	15	match	jongler	5	1	y	0.77728
732.2375999999999	0.0	+	77	verb	phrase	3	1	nomatch	paul	-1	1	p	0.8180600000000001
732.7873999999999	0.2	mrc	77	verb	phrase	3	2	nomatch	paul	-1	1	p	0.8180600000000001
732.9873	0.0	+	77	verb	phrase	3	3	nomatch	paul	-1	1	p	0.8180600000000001
733.3871	0.2	pfmr	77	verb	phrase	3	4	nomatch	paul	-1	1	p	0.8180600000000001
733.587	0.0	+	77	verb	phrase	3	5	nomatch	paul	-1	1	p	0.8180600000000001
733.9868	0.2	doit	77	verb	phrase	3	6	nomatch	paul	-1	1	p	0.8180600000000001
734.1867	0.0	+	77	verb	phrase	3	7	nomatch	paul	-1	1	p	0.8180600000000001
734.5867	0.2	nager	77	verb	phrase	3	8	nomatch	paul	-1	1	p	0.8180600000000001
734.7871	0.0	+	77	verb	phrase	3	9	nomatch	paul	-1	1	p	0.8180600000000001
735.2035999999999	0.2	vite	77	verb	phrase	3	10	nomatch	paul	-1	1	p	0.8180600000000001
735.3865999999999	0.0	+	77	verb	phrase	3	11	nomatch	paul	-1	1	p	0.8180600000000001
735.786	0.0	+	77	verb	phrase	3	12	nomatch	paul	-1	1	p	0.8180600000000001
737.7852	0.0	PAUL	77	verb	phrase	3	13	nomatch	paul	-1	1	p	0.8180600000000001
738.702	0.0	+	77	verb	phrase	3	14	nomatch	paul	-1	1	p	0.8180600000000001
738.6032	0.0	[response]	77	verb	phrase	3	15	nomatch	paul	-1	1	p	0.8180600000000001
740.1841	0.0	+	78	verb	phrase	3	1	match	plus	4	1	y	0.7102
740.7339	0.2	zrsvk	78	verb	phrase	3	2	match	plus	4	1	y	0.7102
740.9338	0.0	+	78	verb	phrase	3	3	match	plus	4	1	y	0.7102
741.3342	0.2	dgpc	78	verb	phrase	3	4	match	plus	4	1	y	0.7102
741.5502	0.0	+	78	verb	phrase	3	5	match	plus	4	1	y	0.7102
741.9504	0.2	va	78	verb	phrase	3	6	match	plus	4	1	y	0.7102
742.1505999999999	0.0	+	78	verb	phrase	3	7	match	plus	4	1	y	0.7102
742.55	0.2	plus	78	verb	phrase	3	8	match	plus	4	1	y	0.7102
742.7496	0.0	+	78	verb	phrase	3	9	match	plus	4	1	y	0.7102
743.1495	0.2	jongler	78	verb	phrase	3	10	match	plus	4	1	y	0.7102
743.3494	0.0	+	78	verb	phrase	3	11	match	plus	4	1	y	0.7102
743.7492	0.0	+	78	verb	phrase	3	12	match	plus	4	1	y	0.7102
745.749	0.0	PLUS	78	verb	phrase	3	13	match	plus	4	1	y	0.7102
746.5146	0.0	+	78	verb	phrase	3	14	match	plus	4	1	y	0.7102
746.4592	0.0	[response]	78	verb	phrase	3	15	match	plus	4	1	y	0.7102
748.1473	0.0	+	79	verb	phrase	2	1	nomatch	plonger	-1	1	p	0.76572
748.6974	0.2	jqv	79	verb	phrase	2	2	nomatch	plonger	-1	1	p	0.76572
748.8971	0.0	+	79	verb	phrase	2	3	nomatch	plonger	-1	1	p	0.76572
749.2973999999999	0.2	rtgc	79	verb	phrase	2	4	nomatch	plonger	-1	1	p	0.76572
749.4972	0.0	+	79	verb	phrase	2	5	nomatch	plonger	-1	1	p	0.76572
749.8965	0.2	vzgp	79	verb	phrase	2	6	nomatch	plonger	-1	1	p	0.76572
750.0964	0.0	+	79	verb	phrase	2	7	nomatch	plonger	-1	1	p	0.76572
750.4961999999999	0.2	mieux	79	verb	phrase	2	8	nomatch	plonger	-1	1	p	0.76572
750.6961	0.0	+	79	verb	phrase	2	9	nomatch	plonger	-1	1	p	0.76572
751.096	0.2	chasser	79	verb	phrase	2	10	nomatch	plonger	-1	1	p	0.76572
751.2959	0.0	+	79	verb	phrase	2	11	nomatch	plonger	-1	1	p	0.76572
751.6957	0.0	+	79	verb	phrase	2	12	nomatch	plonger	-1	1	p	0.76572
753.6948	0.0	PLONGER	79	verb	phrase	2	13	nomatch	plonger	-1	1	p	0.76572
754.5278	0.0	+	79	verb	phrase	2	14	nomatch	plonger	-1	1	p	0.76572
754.4605000000001	0.0	[response]	79	verb	phrase	2	15	nomatch	plonger	-1	1	p	0.76572
756.0938	0.0	+	80	verb	list	1	1	match	rouge	5	1	y	0.43839
756.6435	0.2	xmcstjd	80	verb	list	1	2	match	rouge	5	1	y	0.43839
756.8434	0.0	+	80	verb	list	1	3	match	rouge	5	1	y	0.43839
757.2433	0.2	lnpz	80	verb	list	1	4	match	rouge	5	1	y	0.43839
757.4431999999999	0.0	+	80	verb	list	1	5	match	rouge	5	1	y	0.43839
757.843	0.2	hfs	80	verb	list	1	6	match	rouge	5	1	y	0.43839
758.0429	0.0	+	80	verb	list	1	7	match	rouge	5	1	y	0.43839
758.4596	0.2	cfmhptg	80	verb	list	1	8	match	rouge	5	1	y	0.43839
758.6431	0.0	+	80	verb	list	1	9	match	rouge	5	1	y	0.43839
759.0425	0.2	rouge	80	verb	list	1	10	match	rouge	5	1	y	0.43839
759.2424	0.0	+	80	verb	list	1	11	match	rouge	5	1	y	0.43839
759.6428999999999	0.0	+	80	verb	list	1	12	match	rouge	5	1	y	0.43839
761.6413	0.0	ROUGE	80	verb	list	1	13	match	rouge	5	1	y	0.43839
762.1410999999999	0.0	+	80	verb	list	1	14	match	rouge	5	1	y	0.43839
764.0403	0.0	+	80	verb	list	1	15	match	rouge	5	1	y	0.43839
765.0232	0.0	+	80	verb	list	1	16	match	rouge	5	1	y	0.43839
765.1231	0.0	+	80	verb	list	1	17	match	rouge	5	1	y	0.43839
766.5059	0.0	+	80	verb	list	1	18	match	rouge	5	1	y	0.43839
766.6057999999999	0.0	+	80	verb	list	1	19	match	rouge	5	1	y	0.43839
768.0219	0.0	+	80	verb	list	1	20	match	rouge	5	1	y	0.43839
768.1218	0.0	+	80	verb	list	1	21	match	rouge	5	1	y	0.43839
769.5045	0.0	+	80	verb	list	1	22	match	rouge	5	1	y	0.43839
769.6045	0.0	+	80	verb	list	1	23	match	rouge	5	1	y	0.43839
771.0205	0.0	+	80	verb	list	1	24	match	rouge	5	1	y	0.43839
771.1205	0.0	+	80	verb	list	1	25	match	rouge	5	1	y	0.43839
772.5032	0.0	+	80	verb	list	1	26	match	rouge	5	1	y	0.43839
772.6032	0.0	+	80	verb	list	1	27	match	rouge	5	1	y	0.43839
774.0192	0.0	+	80	verb	list	1	28	match	rouge	5	1	y	0.43839
774.1192	0.0	+	80	verb	list	1	29	match	rouge	5	1	y	0.43839
775.5186	0.0	+	80	verb	list	1	30	match	rouge	5	1	y	0.43839
775.6184999999999	0.0	+	80	verb	list	1	31	match	rouge	5	1	y	0.43839
777.0178999999999	0.0	+	80	verb	list	1	32	match	rouge	5	1	y	0.43839
777.1179	0.0	+	80	verb	list	1	33	match	rouge	5	1	y	0.43839
778.5172	0.0	+	80	verb	list	1	34	match	rouge	5	1	y	0.43839
778.6172	0.0	+	80	verb	list	1	35	match	rouge	5	1	y	0.43839
781.2161	0.0	+	80	verb	list	1	36	match	rouge	5	1	y	0.43839
762.0797	0.0	[response]	80	verb	list	1	37	match	rouge	5	1	y	0.43839
