onset	duration	stim	trial_number	trial_type	trial_structure	trial_length	sequential_position	probe_type	probe	probe_position	response_correct	response_key	response_time
0.06080000000000041	0.0	+	1	noun	phrase	1	1	nomatch	grand	-1	1	p	0.4672
0.5438999999999936	0.2	bdg	1	noun	phrase	1	2	nomatch	grand	-1	1	p	0.4672
0.7437999999999931	0.0	+	1	noun	phrase	1	3	nomatch	grand	-1	1	p	0.4672
1.1435999999999922	0.2	kxqr	1	noun	phrase	1	4	nomatch	grand	-1	1	p	0.4672
1.343599999999995	0.0	+	1	noun	phrase	1	5	nomatch	grand	-1	1	p	0.4672
1.743399999999994	0.2	wvrh	1	noun	phrase	1	6	nomatch	grand	-1	1	p	0.4672
1.9432999999999936	0.0	+	1	noun	phrase	1	7	nomatch	grand	-1	1	p	0.4672
2.3430999999999926	0.2	bmlzsqf	1	noun	phrase	1	8	nomatch	grand	-1	1	p	0.4672
2.542999999999992	0.0	+	1	noun	phrase	1	9	nomatch	grand	-1	1	p	0.4672
2.9428999999999945	0.2	petit	1	noun	phrase	1	10	nomatch	grand	-1	1	p	0.4672
3.142799999999994	0.0	+	1	noun	phrase	1	11	nomatch	grand	-1	1	p	0.4672
3.542599999999993	0.0	+	1	noun	phrase	1	12	nomatch	grand	-1	1	p	0.4672
5.541699999999992	0.0	GRAND	1	noun	phrase	1	13	nomatch	grand	-1	1	p	0.4672
6.074799999999996	0.0	+	1	noun	phrase	1	14	nomatch	grand	-1	1	p	0.4672
6.008899999999997	0.0	[response]	1	noun	phrase	1	15	nomatch	grand	-1	1	p	0.4672
7.9406999999999925	0.0	+	2	verb	phrase	1	1	nomatch	va	-1	1	p	0.9404200000000001
8.490399999999994	0.2	khwpmfx	2	verb	phrase	1	2	nomatch	va	-1	1	p	0.9404200000000001
8.690299999999993	0.0	+	2	verb	phrase	1	3	nomatch	va	-1	1	p	0.9404200000000001
9.090199999999996	0.2	rtgc	2	verb	phrase	1	4	nomatch	va	-1	1	p	0.9404200000000001
9.290099999999995	0.0	+	2	verb	phrase	1	5	nomatch	va	-1	1	p	0.9404200000000001
9.689899999999994	0.2	vzgp	2	verb	phrase	1	6	nomatch	va	-1	1	p	0.9404200000000001
9.889799999999994	0.0	+	2	verb	phrase	1	7	nomatch	va	-1	1	p	0.9404200000000001
10.289599999999993	0.2	vgrqj	2	verb	phrase	1	8	nomatch	va	-1	1	p	0.9404200000000001
10.489499999999992	0.0	+	2	verb	phrase	1	9	nomatch	va	-1	1	p	0.9404200000000001
10.889399999999995	0.2	danser	2	verb	phrase	1	10	nomatch	va	-1	1	p	0.9404200000000001
11.089299999999994	0.0	+	2	verb	phrase	1	11	nomatch	va	-1	1	p	0.9404200000000001
11.489099999999993	0.0	+	2	verb	phrase	1	12	nomatch	va	-1	1	p	0.9404200000000001
13.488199999999992	0.0	VA	2	verb	phrase	1	13	nomatch	va	-1	1	p	0.9404200000000001
14.487799999999993	0.0	+	2	verb	phrase	1	14	nomatch	va	-1	1	p	0.9404200000000001
14.428599999999989	0.0	[response]	2	verb	phrase	1	15	nomatch	va	-1	1	p	0.9404200000000001
39.893299999999996	0.0	+	3	noun	list	4	1	nomatch	blanc	-1	1	p	0.69587
40.443	0.2	tcz	3	noun	list	4	2	nomatch	blanc	-1	1	p	0.69587
40.6429	0.0	+	3	noun	list	4	3	nomatch	blanc	-1	1	p	0.69587
41.0428	0.2	adam	3	noun	list	4	4	nomatch	blanc	-1	1	p	0.69587
41.2427	0.0	+	3	noun	list	4	5	nomatch	blanc	-1	1	p	0.69587
41.6425	0.2	mon	3	noun	list	4	6	nomatch	blanc	-1	1	p	0.69587
41.8424	0.0	+	3	noun	list	4	7	nomatch	blanc	-1	1	p	0.69587
42.2422	0.2	mieux	3	noun	list	4	8	nomatch	blanc	-1	1	p	0.69587
42.4422	0.0	+	3	noun	list	4	9	nomatch	blanc	-1	1	p	0.69587
42.842	0.2	casier	3	noun	list	4	10	nomatch	blanc	-1	1	p	0.69587
43.0419	0.0	+	3	noun	list	4	11	nomatch	blanc	-1	1	p	0.69587
43.4417	0.0	+	3	noun	list	4	12	nomatch	blanc	-1	1	p	0.69587
45.440799999999996	0.0	BLANC	3	noun	list	4	13	nomatch	blanc	-1	1	p	0.69587
46.257099999999994	0.0	+	3	noun	list	4	14	nomatch	blanc	-1	1	p	0.69587
46.136700000000005	0.0	[response]	3	noun	list	4	15	nomatch	blanc	-1	1	p	0.69587
47.8398	0.0	+	4	noun	phrase	3	1	match	cendrier	5	1	y	0.53603
48.3895	0.2	pdvk	4	noun	phrase	3	2	match	cendrier	5	1	y	0.53603
48.5894	0.0	+	4	noun	phrase	3	3	match	cendrier	5	1	y	0.53603
48.9893	0.2	kxqr	4	noun	phrase	3	4	match	cendrier	5	1	y	0.53603
49.1892	0.0	+	4	noun	phrase	3	5	match	cendrier	5	1	y	0.53603
49.589	0.2	leur	4	noun	phrase	3	6	match	cendrier	5	1	y	0.53603
49.7889	0.0	+	4	noun	phrase	3	7	match	cendrier	5	1	y	0.53603
50.18899999999999	0.2	vieux	4	noun	phrase	3	8	match	cendrier	5	1	y	0.53603
50.3891	0.0	+	4	noun	phrase	3	9	match	cendrier	5	1	y	0.53603
50.7885	0.2	cendrier	4	noun	phrase	3	10	match	cendrier	5	1	y	0.53603
50.9884	0.0	+	4	noun	phrase	3	11	match	cendrier	5	1	y	0.53603
51.38879999999999	0.0	+	4	noun	phrase	3	12	match	cendrier	5	1	y	0.53603
53.387299999999996	0.0	CENDRIER	4	noun	phrase	3	13	match	cendrier	5	1	y	0.53603
53.9871	0.0	+	4	noun	phrase	3	14	match	cendrier	5	1	y	0.53603
53.9234	0.0	[response]	4	noun	phrase	3	15	match	cendrier	5	1	y	0.53603
55.7863	0.0	+	5	noun	list	1	1	nomatch	plus	-1	1	p	0.67491
56.336	0.2	wcskzq	5	noun	list	1	2	nomatch	plus	-1	1	p	0.67491
56.53599999999999	0.0	+	5	noun	list	1	3	nomatch	plus	-1	1	p	0.67491
56.935799999999986	0.2	rtgc	5	noun	list	1	4	nomatch	plus	-1	1	p	0.67491
57.1357	0.0	+	5	noun	list	1	5	nomatch	plus	-1	1	p	0.67491
57.5355	0.2	ldk	5	noun	list	1	6	nomatch	plus	-1	1	p	0.67491
57.735399999999984	0.0	+	5	noun	list	1	7	nomatch	plus	-1	1	p	0.67491
58.13529999999999	0.2	mkgprb	5	noun	list	1	8	nomatch	plus	-1	1	p	0.67491
58.33569999999999	0.0	+	5	noun	list	1	9	nomatch	plus	-1	1	p	0.67491
58.75189999999999	0.2	mieux	5	noun	list	1	10	nomatch	plus	-1	1	p	0.67491
58.934899999999985	0.0	+	5	noun	list	1	11	nomatch	plus	-1	1	p	0.67491
59.334699999999984	0.0	+	5	noun	list	1	12	nomatch	plus	-1	1	p	0.67491
61.333899999999986	0.0	PLUS	5	noun	list	1	13	nomatch	plus	-1	1	p	0.67491
62.06689999999999	0.0	+	5	noun	list	1	14	nomatch	plus	-1	1	p	0.67491
62.008799999999994	0.0	[response]	5	noun	list	1	15	nomatch	plus	-1	1	p	0.67491
63.7495	0.0	+	6	verb	list	3	1	nomatch	adam	-1	1	p	0.76846
64.2992	0.2	nplfvmd	6	verb	list	3	2	nomatch	adam	-1	1	p	0.76846
64.49909999999998	0.0	+	6	verb	list	3	3	nomatch	adam	-1	1	p	0.76846
64.89899999999999	0.2	dgpc	6	verb	list	3	4	nomatch	adam	-1	1	p	0.76846
65.0989	0.0	+	6	verb	list	3	5	nomatch	adam	-1	1	p	0.76846
65.4987	0.2	son	6	verb	list	3	6	nomatch	adam	-1	1	p	0.76846
65.69859999999998	0.0	+	6	verb	list	3	7	nomatch	adam	-1	1	p	0.76846
66.09839999999998	0.2	voyager	6	verb	list	3	8	nomatch	adam	-1	1	p	0.76846
66.2983	0.0	+	6	verb	list	3	9	nomatch	adam	-1	1	p	0.76846
66.6982	0.2	vert	6	verb	list	3	10	nomatch	adam	-1	1	p	0.76846
66.89809999999999	0.0	+	6	verb	list	3	11	nomatch	adam	-1	1	p	0.76846
67.29789999999998	0.0	+	6	verb	list	3	12	nomatch	adam	-1	1	p	0.76846
69.31419999999999	0.0	ADAM	6	verb	list	3	13	nomatch	adam	-1	1	p	0.76846
70.17999999999999	0.0	+	6	verb	list	3	14	nomatch	adam	-1	1	p	0.76846
70.0826	0.0	[response]	6	verb	list	3	15	nomatch	adam	-1	1	p	0.76846
79.6924	0.0	+	7	noun	list	1	1	nomatch	cendrier	-1	1	p	0.47645
80.24219999999998	0.2	kmtls	7	noun	list	1	2	nomatch	cendrier	-1	1	p	0.47645
80.4421	0.0	+	7	noun	list	1	3	nomatch	cendrier	-1	1	p	0.47645
80.8419	0.2	dsv	7	noun	list	1	4	nomatch	cendrier	-1	1	p	0.47645
81.04199999999999	0.0	+	7	noun	list	1	5	nomatch	cendrier	-1	1	p	0.47645
81.4422	0.2	ldk	7	noun	list	1	6	nomatch	cendrier	-1	1	p	0.47645
81.6418	0.0	+	7	noun	list	1	7	nomatch	cendrier	-1	1	p	0.47645
82.0414	0.2	nxps	7	noun	list	1	8	nomatch	cendrier	-1	1	p	0.47645
82.24159999999999	0.0	+	7	noun	list	1	9	nomatch	cendrier	-1	1	p	0.47645
82.6416	0.2	tablier	7	noun	list	1	10	nomatch	cendrier	-1	1	p	0.47645
82.8411	0.0	+	7	noun	list	1	11	nomatch	cendrier	-1	1	p	0.47645
83.2409	0.0	+	7	noun	list	1	12	nomatch	cendrier	-1	1	p	0.47645
85.24	0.0	CENDRIER	7	noun	list	1	13	nomatch	cendrier	-1	1	p	0.47645
85.77309999999999	0.0	+	7	noun	list	1	14	nomatch	cendrier	-1	1	p	0.47645
85.71640000000001	0.0	[response]	7	noun	list	1	15	nomatch	cendrier	-1	1	p	0.47645
87.63889999999999	0.0	+	8	noun	phrase	2	1	nomatch	tôt	-1	1	p	0.85579
88.1887	0.2	vjxnhl	8	noun	phrase	2	2	nomatch	tôt	-1	1	p	0.85579
88.38859999999998	0.0	+	8	noun	phrase	2	3	nomatch	tôt	-1	1	p	0.85579
88.78839999999998	0.2	ptxf	8	noun	phrase	2	4	nomatch	tôt	-1	1	p	0.85579
88.9884	0.0	+	8	noun	phrase	2	5	nomatch	tôt	-1	1	p	0.85579
89.3882	0.2	wvrh	8	noun	phrase	2	6	nomatch	tôt	-1	1	p	0.85579
89.58809999999998	0.0	+	8	noun	phrase	2	7	nomatch	tôt	-1	1	p	0.85579
89.9886	0.2	sablier	8	noun	phrase	2	8	nomatch	tôt	-1	1	p	0.85579
90.1878	0.0	+	8	noun	phrase	2	9	nomatch	tôt	-1	1	p	0.85579
90.5876	0.2	bleu	8	noun	phrase	2	10	nomatch	tôt	-1	1	p	0.85579
90.78759999999998	0.0	+	8	noun	phrase	2	11	nomatch	tôt	-1	1	p	0.85579
91.18739999999998	0.0	+	8	noun	phrase	2	12	nomatch	tôt	-1	1	p	0.85579
93.18659999999998	0.0	TÔT	8	noun	phrase	2	13	nomatch	tôt	-1	1	p	0.85579
94.10279999999999	0.0	+	8	noun	phrase	2	14	nomatch	tôt	-1	1	p	0.85579
94.0424	0.0	[response]	8	noun	phrase	2	15	nomatch	tôt	-1	1	p	0.85579
95.5854	0.0	+	9	noun	list	1	1	match	grenier	5	1	y	0.73959
96.13519999999998	0.2	pshlb	9	noun	list	1	2	match	grenier	5	1	y	0.73959
96.33559999999999	0.0	+	9	noun	list	1	3	match	grenier	5	1	y	0.73959
96.7349	0.2	hsnx	9	noun	list	1	4	match	grenier	5	1	y	0.73959
96.93489999999998	0.0	+	9	noun	list	1	5	match	grenier	5	1	y	0.73959
97.33469999999998	0.2	vzgp	9	noun	list	1	6	match	grenier	5	1	y	0.73959
97.5346	0.0	+	9	noun	list	1	7	match	grenier	5	1	y	0.73959
97.9344	0.2	rxbz	9	noun	list	1	8	match	grenier	5	1	y	0.73959
98.13429999999998	0.0	+	9	noun	list	1	9	match	grenier	5	1	y	0.73959
98.53409999999998	0.2	grenier	9	noun	list	1	10	match	grenier	5	1	y	0.73959
98.7341	0.0	+	9	noun	list	1	11	match	grenier	5	1	y	0.73959
99.1339	0.0	+	9	noun	list	1	12	match	grenier	5	1	y	0.73959
101.14969999999998	0.0	GRENIER	9	noun	list	1	13	match	grenier	5	1	y	0.73959
101.94930000000001	0.0	+	9	noun	list	1	14	match	grenier	5	1	y	0.73959
101.88930000000003	0.0	[response]	9	noun	list	1	15	match	grenier	5	1	y	0.73959
103.54860000000001	0.0	+	10	noun	phrase	1	1	match	blanc	5	1	y	0.6089200000000001
104.09839999999998	0.2	tpwrk	10	noun	phrase	1	2	match	blanc	5	1	y	0.6089200000000001
104.2983	0.0	+	10	noun	phrase	1	3	match	blanc	5	1	y	0.6089200000000001
104.6981	0.2	dtsr	10	noun	phrase	1	4	match	blanc	5	1	y	0.6089200000000001
104.89799999999998	0.0	+	10	noun	phrase	1	5	match	blanc	5	1	y	0.6089200000000001
105.29779999999998	0.2	hfs	10	noun	phrase	1	6	match	blanc	5	1	y	0.6089200000000001
105.4978	0.0	+	10	noun	phrase	1	7	match	blanc	5	1	y	0.6089200000000001
105.9148	0.2	bmlzsqf	10	noun	phrase	1	8	match	blanc	5	1	y	0.6089200000000001
106.09779999999999	0.0	+	10	noun	phrase	1	9	match	blanc	5	1	y	0.6089200000000001
106.49729999999998	0.2	blanc	10	noun	phrase	1	10	match	blanc	5	1	y	0.6089200000000001
106.6972	0.0	+	10	noun	phrase	1	11	match	blanc	5	1	y	0.6089200000000001
107.0971	0.0	+	10	noun	phrase	1	12	match	blanc	5	1	y	0.6089200000000001
109.0962	0.0	BLANC	10	noun	phrase	1	13	match	blanc	5	1	y	0.6089200000000001
109.7625	0.0	+	10	noun	phrase	1	14	match	blanc	5	1	y	0.6089200000000001
109.7051	0.0	[response]	10	noun	phrase	1	15	match	blanc	5	1	y	0.6089200000000001
111.4951	0.0	+	11	noun	list	1	1	nomatch	casier	-1	1	p	0.90118
112.0449	0.2	lzpvhj	11	noun	list	1	2	nomatch	casier	-1	1	p	0.90118
112.24479999999998	0.0	+	11	noun	list	1	3	nomatch	casier	-1	1	p	0.90118
112.64459999999998	0.2	kxqr	11	noun	list	1	4	nomatch	casier	-1	1	p	0.90118
112.8445	0.0	+	11	noun	list	1	5	nomatch	casier	-1	1	p	0.90118
113.2444	0.2	jq	11	noun	list	1	6	nomatch	casier	-1	1	p	0.90118
113.44429999999998	0.0	+	11	noun	list	1	7	nomatch	casier	-1	1	p	0.90118
113.84409999999998	0.2	vgrqj	11	noun	list	1	8	nomatch	casier	-1	1	p	0.90118
114.044	0.0	+	11	noun	list	1	9	nomatch	casier	-1	1	p	0.90118
114.44429999999998	0.2	sablier	11	noun	list	1	10	nomatch	casier	-1	1	p	0.90118
114.6607	0.0	+	11	noun	list	1	11	nomatch	casier	-1	1	p	0.90118
115.0442	0.0	+	11	noun	list	1	12	nomatch	casier	-1	1	p	0.90118
117.04269999999998	0.0	CASIER	11	noun	list	1	13	nomatch	casier	-1	1	p	0.90118
118.0089	0.0	+	11	noun	list	1	14	nomatch	casier	-1	1	p	0.90118
117.9439	0.0	[response]	11	noun	list	1	15	nomatch	casier	-1	1	p	0.90118
119.44160000000001	0.0	+	12	noun	phrase	1	1	nomatch	grand	-1	1	p	0.84125
119.99139999999998	0.2	dblrk	12	noun	phrase	1	2	nomatch	grand	-1	1	p	0.84125
120.1913	0.0	+	12	noun	phrase	1	3	nomatch	grand	-1	1	p	0.84125
120.5911	0.2	dtsr	12	noun	phrase	1	4	nomatch	grand	-1	1	p	0.84125
120.79099999999998	0.0	+	12	noun	phrase	1	5	nomatch	grand	-1	1	p	0.84125
121.19089999999998	0.2	wvrh	12	noun	phrase	1	6	nomatch	grand	-1	1	p	0.84125
121.3908	0.0	+	12	noun	phrase	1	7	nomatch	grand	-1	1	p	0.84125
121.8079	0.2	hgzjnw	12	noun	phrase	1	8	nomatch	grand	-1	1	p	0.84125
121.99049999999998	0.0	+	12	noun	phrase	1	9	nomatch	grand	-1	1	p	0.84125
122.39049999999999	0.2	nouveau	12	noun	phrase	1	10	nomatch	grand	-1	1	p	0.84125
122.5902	0.0	+	12	noun	phrase	1	11	nomatch	grand	-1	1	p	0.84125
122.9908	0.0	+	12	noun	phrase	1	12	nomatch	grand	-1	1	p	0.84125
124.9892	0.0	GRAND	12	noun	phrase	1	13	nomatch	grand	-1	1	p	0.84125
125.92209999999999	0.0	+	12	noun	phrase	1	14	nomatch	grand	-1	1	p	0.84125
125.83040000000001	0.0	[response]	12	noun	phrase	1	15	nomatch	grand	-1	1	p	0.84125
127.3882	0.0	+	13	noun	phrase	1	1	nomatch	bleu	-1	1	p	0.75899
127.9379	0.2	dvqw	13	noun	phrase	1	2	nomatch	bleu	-1	1	p	0.75899
128.13779999999997	0.0	+	13	noun	phrase	1	3	nomatch	bleu	-1	1	p	0.75899
128.5376	0.2	kxqr	13	noun	phrase	1	4	nomatch	bleu	-1	1	p	0.75899
128.7375	0.0	+	13	noun	phrase	1	5	nomatch	bleu	-1	1	p	0.75899
129.1374	0.2	ldk	13	noun	phrase	1	6	nomatch	bleu	-1	1	p	0.75899
129.33780000000002	0.0	+	13	noun	phrase	1	7	nomatch	bleu	-1	1	p	0.75899
129.73739999999998	0.2	jnpgfxm	13	noun	phrase	1	8	nomatch	bleu	-1	1	p	0.75899
129.9538	0.0	+	13	noun	phrase	1	9	nomatch	bleu	-1	1	p	0.75899
130.33679999999998	0.2	vert	13	noun	phrase	1	10	nomatch	bleu	-1	1	p	0.75899
130.5367	0.0	+	13	noun	phrase	1	11	nomatch	bleu	-1	1	p	0.75899
130.9366	0.0	+	13	noun	phrase	1	12	nomatch	bleu	-1	1	p	0.75899
132.9357	0.0	BLEU	13	noun	phrase	1	13	nomatch	bleu	-1	1	p	0.75899
133.752	0.0	+	13	noun	phrase	1	14	nomatch	bleu	-1	1	p	0.75899
133.6947	0.0	[response]	13	noun	phrase	1	15	nomatch	bleu	-1	1	p	0.75899
143.38150000000002	0.0	+	14	noun	phrase	2	1	match	sablier	5	1	y	0.56528
143.89749999999998	0.2	jwv	14	noun	phrase	2	2	match	sablier	5	1	y	0.56528
144.0974	0.0	+	14	noun	phrase	2	3	match	sablier	5	1	y	0.56528
144.4973	0.2	ptxf	14	noun	phrase	2	4	match	sablier	5	1	y	0.56528
144.6972	0.0	+	14	noun	phrase	2	5	match	sablier	5	1	y	0.56528
145.09699999999998	0.2	hfs	14	noun	phrase	2	6	match	sablier	5	1	y	0.56528
145.2969	0.0	+	14	noun	phrase	2	7	match	sablier	5	1	y	0.56528
145.6968	0.2	nouveau	14	noun	phrase	2	8	match	sablier	5	1	y	0.56528
145.8967	0.0	+	14	noun	phrase	2	9	match	sablier	5	1	y	0.56528
146.29649999999998	0.2	sablier	14	noun	phrase	2	10	match	sablier	5	1	y	0.56528
146.4964	0.0	+	14	noun	phrase	2	11	match	sablier	5	1	y	0.56528
146.89620000000002	0.0	+	14	noun	phrase	2	12	match	sablier	5	1	y	0.56528
148.89530000000002	0.0	SABLIER	14	noun	phrase	2	13	match	sablier	5	1	y	0.56528
149.52839999999998	0.0	+	14	noun	phrase	2	14	match	sablier	5	1	y	0.56528
149.4606	0.0	[response]	14	noun	phrase	2	15	match	sablier	5	1	y	0.56528
159.2908	0.0	+	15	noun	phrase	3	1	nomatch	tablier	-1	1	p	0.56941
159.8413	0.2	dfqgv	15	noun	phrase	3	2	nomatch	tablier	-1	1	p	0.56941
160.04039999999998	0.0	+	15	noun	phrase	3	3	nomatch	tablier	-1	1	p	0.56941
160.44029999999998	0.2	hsnx	15	noun	phrase	3	4	nomatch	tablier	-1	1	p	0.56941
160.6402	0.0	+	15	noun	phrase	3	5	nomatch	tablier	-1	1	p	0.56941
161.04000000000002	0.2	leur	15	noun	phrase	3	6	nomatch	tablier	-1	1	p	0.56941
161.23989999999998	0.0	+	15	noun	phrase	3	7	nomatch	tablier	-1	1	p	0.56941
161.6397	0.2	grand	15	noun	phrase	3	8	nomatch	tablier	-1	1	p	0.56941
161.83960000000002	0.0	+	15	noun	phrase	3	9	nomatch	tablier	-1	1	p	0.56941
162.23950000000002	0.2	rocher	15	noun	phrase	3	10	nomatch	tablier	-1	1	p	0.56941
162.43939999999998	0.0	+	15	noun	phrase	3	11	nomatch	tablier	-1	1	p	0.56941
162.8392	0.0	+	15	noun	phrase	3	12	nomatch	tablier	-1	1	p	0.56941
164.8383	0.0	TABLIER	15	noun	phrase	3	13	nomatch	tablier	-1	1	p	0.56941
165.47140000000002	0.0	+	15	noun	phrase	3	14	nomatch	tablier	-1	1	p	0.56941
165.4078	0.0	[response]	15	noun	phrase	3	15	nomatch	tablier	-1	1	p	0.56941
167.2373	0.0	+	16	noun	phrase	1	1	match	sablier	5	1	y	0.57548
167.78699999999998	0.2	mfj	16	noun	phrase	1	2	match	sablier	5	1	y	0.57548
167.98699999999997	0.0	+	16	noun	phrase	1	3	match	sablier	5	1	y	0.57548
168.3868	0.2	njr	16	noun	phrase	1	4	match	sablier	5	1	y	0.57548
168.5867	0.0	+	16	noun	phrase	1	5	match	sablier	5	1	y	0.57548
169.0034	0.2	wvrh	16	noun	phrase	1	6	match	sablier	5	1	y	0.57548
169.1864	0.0	+	16	noun	phrase	1	7	match	sablier	5	1	y	0.57548
169.5867	0.2	nxfmj	16	noun	phrase	1	8	match	sablier	5	1	y	0.57548
169.8032	0.0	+	16	noun	phrase	1	9	match	sablier	5	1	y	0.57548
170.18669999999997	0.2	sablier	16	noun	phrase	1	10	match	sablier	5	1	y	0.57548
170.3859	0.0	+	16	noun	phrase	1	11	match	sablier	5	1	y	0.57548
170.78570000000002	0.0	+	16	noun	phrase	1	12	match	sablier	5	1	y	0.57548
172.78480000000002	0.0	SABLIER	16	noun	phrase	1	13	match	sablier	5	1	y	0.57548
173.41789999999997	0.0	+	16	noun	phrase	1	14	match	sablier	5	1	y	0.57548
173.3603	0.0	[response]	16	noun	phrase	1	15	match	sablier	5	1	y	0.57548
175.18380000000002	0.0	+	17	noun	list	1	1	nomatch	va	-1	1	p	0.66348
175.7337	0.2	hpbr	17	noun	list	1	2	nomatch	va	-1	1	p	0.66348
175.95010000000002	0.0	+	17	noun	list	1	3	nomatch	va	-1	1	p	0.66348
176.3499	0.2	lnpz	17	noun	list	1	4	nomatch	va	-1	1	p	0.66348
176.54989999999998	0.0	+	17	noun	list	1	5	nomatch	va	-1	1	p	0.66348
176.9497	0.2	ldk	17	noun	list	1	6	nomatch	va	-1	1	p	0.66348
177.14960000000002	0.0	+	17	noun	list	1	7	nomatch	va	-1	1	p	0.66348
177.5494	0.2	mkfgxzbc	17	noun	list	1	8	nomatch	va	-1	1	p	0.66348
177.7493	0.0	+	17	noun	list	1	9	nomatch	va	-1	1	p	0.66348
178.14909999999998	0.2	rocher	17	noun	list	1	10	nomatch	va	-1	1	p	0.66348
178.349	0.0	+	17	noun	list	1	11	nomatch	va	-1	1	p	0.66348
178.7489	0.0	+	17	noun	list	1	12	nomatch	va	-1	1	p	0.66348
180.748	0.0	VA	17	noun	list	1	13	nomatch	va	-1	1	p	0.66348
181.49810000000002	0.0	+	17	noun	list	1	14	nomatch	va	-1	1	p	0.66348
181.4115	0.0	[response]	17	noun	list	1	15	nomatch	va	-1	1	p	0.66348
183.147	0.0	+	18	verb	phrase	1	1	nomatch	nager	-1	1	p	0.6011600000000001
183.69670000000002	0.2	mpjq	18	verb	phrase	1	2	nomatch	nager	-1	1	p	0.6011600000000001
183.89659999999998	0.0	+	18	verb	phrase	1	3	nomatch	nager	-1	1	p	0.6011600000000001
184.2964	0.2	rmjd	18	verb	phrase	1	4	nomatch	nager	-1	1	p	0.6011600000000001
184.49629999999996	0.0	+	18	verb	phrase	1	5	nomatch	nager	-1	1	p	0.6011600000000001
184.89619999999996	0.2	vzgp	18	verb	phrase	1	6	nomatch	nager	-1	1	p	0.6011600000000001
185.09609999999998	0.0	+	18	verb	phrase	1	7	nomatch	nager	-1	1	p	0.6011600000000001
185.4959	0.2	sjxrn	18	verb	phrase	1	8	nomatch	nager	-1	1	p	0.6011600000000001
185.69579999999996	0.0	+	18	verb	phrase	1	9	nomatch	nager	-1	1	p	0.6011600000000001
186.0956	0.2	jongler	18	verb	phrase	1	10	nomatch	nager	-1	1	p	0.6011600000000001
186.29559999999998	0.0	+	18	verb	phrase	1	11	nomatch	nager	-1	1	p	0.6011600000000001
186.6954	0.0	+	18	verb	phrase	1	12	nomatch	nager	-1	1	p	0.6011600000000001
188.6945	0.0	NAGER	18	verb	phrase	1	13	nomatch	nager	-1	1	p	0.6011600000000001
189.3945	0.0	+	18	verb	phrase	1	14	nomatch	nager	-1	1	p	0.6011600000000001
189.29569999999995	0.0	[response]	18	verb	phrase	1	15	nomatch	nager	-1	1	p	0.6011600000000001
199.0899	0.0	+	19	noun	list	2	1	match	clavier	5	1	y	0.56978
199.6397	0.2	jlhpmb	19	noun	list	2	2	match	clavier	5	1	y	0.56978
199.83959999999996	0.0	+	19	noun	list	2	3	match	clavier	5	1	y	0.56978
200.2394	0.2	dgpc	19	noun	list	2	4	match	clavier	5	1	y	0.56978
200.43949999999995	0.0	+	19	noun	list	2	5	match	clavier	5	1	y	0.56978
200.8392	0.2	ldk	19	noun	list	2	6	match	clavier	5	1	y	0.56978
201.03909999999996	0.0	+	19	noun	list	2	7	match	clavier	5	1	y	0.56978
201.4389	0.2	beaucoup	19	noun	list	2	8	match	clavier	5	1	y	0.56978
201.6388	0.0	+	19	noun	list	2	9	match	clavier	5	1	y	0.56978
202.03859999999997	0.2	clavier	19	noun	list	2	10	match	clavier	5	1	y	0.56978
202.2385	0.0	+	19	noun	list	2	11	match	clavier	5	1	y	0.56978
202.6384	0.0	+	19	noun	list	2	12	match	clavier	5	1	y	0.56978
204.63819999999998	0.0	CLAVIER	19	noun	list	2	13	match	clavier	5	1	y	0.56978
205.3039	0.0	+	19	noun	list	2	14	match	clavier	5	1	y	0.56978
205.2079	0.0	[response]	19	noun	list	2	15	match	clavier	5	1	y	0.56978
223.04609999999997	0.0	+	20	noun	phrase	1	1	nomatch	va	-1	1	p	0.63331
223.5965	0.2	srwnbgt	20	noun	phrase	1	2	nomatch	va	-1	1	p	0.63331
223.79569999999995	0.0	+	20	noun	phrase	1	3	nomatch	va	-1	1	p	0.63331
224.19559999999996	0.2	njr	20	noun	phrase	1	4	nomatch	va	-1	1	p	0.63331
224.39589999999998	0.0	+	20	noun	phrase	1	5	nomatch	va	-1	1	p	0.63331
224.7953	0.2	wvrh	20	noun	phrase	1	6	nomatch	va	-1	1	p	0.63331
224.99519999999995	0.0	+	20	noun	phrase	1	7	nomatch	va	-1	1	p	0.63331
225.39499999999998	0.2	knshjdqz	20	noun	phrase	1	8	nomatch	va	-1	1	p	0.63331
225.5949	0.0	+	20	noun	phrase	1	9	nomatch	va	-1	1	p	0.63331
225.9948	0.2	blanc	20	noun	phrase	1	10	nomatch	va	-1	1	p	0.63331
226.19469999999995	0.0	+	20	noun	phrase	1	11	nomatch	va	-1	1	p	0.63331
226.59449999999998	0.0	+	20	noun	phrase	1	12	nomatch	va	-1	1	p	0.63331
228.59369999999996	0.0	VA	20	noun	phrase	1	13	nomatch	va	-1	1	p	0.63331
229.35999999999996	0.0	+	20	noun	phrase	1	14	nomatch	va	-1	1	p	0.63331
229.22699999999998	0.0	[response]	20	noun	phrase	1	15	nomatch	va	-1	1	p	0.63331
230.99259999999998	0.0	+	21	noun	list	3	1	match	grenier	5	1	y	0.59779
231.54229999999995	0.2	gspx	21	noun	list	3	2	match	grenier	5	1	y	0.59779
231.74219999999997	0.0	+	21	noun	list	3	3	match	grenier	5	1	y	0.59779
232.14209999999997	0.2	dsv	21	noun	list	3	4	match	grenier	5	1	y	0.59779
232.34199999999998	0.0	+	21	noun	list	3	5	match	grenier	5	1	y	0.59779
232.74179999999996	0.2	son	21	noun	list	3	6	match	grenier	5	1	y	0.59779
232.9418	0.0	+	21	noun	list	3	7	match	grenier	5	1	y	0.59779
233.34229999999997	0.2	trop	21	noun	list	3	8	match	grenier	5	1	y	0.59779
233.5421	0.0	+	21	noun	list	3	9	match	grenier	5	1	y	0.59779
233.94129999999996	0.2	grenier	21	noun	list	3	10	match	grenier	5	1	y	0.59779
234.14119999999997	0.0	+	21	noun	list	3	11	match	grenier	5	1	y	0.59779
234.541	0.0	+	21	noun	list	3	12	match	grenier	5	1	y	0.59779
236.5401	0.0	GRENIER	21	noun	list	3	13	match	grenier	5	1	y	0.59779
237.1898	0.0	+	21	noun	list	3	14	match	grenier	5	1	y	0.59779
237.1379	0.0	[response]	21	noun	list	3	15	match	grenier	5	1	y	0.59779
238.9391	0.0	+	22	verb	phrase	4	1	nomatch	doit	-1	1	p	0.90601
239.48879999999997	0.2	hdpfb	22	verb	phrase	4	2	nomatch	doit	-1	1	p	0.90601
239.68869999999998	0.0	+	22	verb	phrase	4	3	nomatch	doit	-1	1	p	0.90601
240.08859999999999	0.2	adam	22	verb	phrase	4	4	nomatch	doit	-1	1	p	0.90601
240.2885	0.0	+	22	verb	phrase	4	5	nomatch	doit	-1	1	p	0.90601
240.68829999999997	0.2	va	22	verb	phrase	4	6	nomatch	doit	-1	1	p	0.90601
240.88889999999998	0.0	+	22	verb	phrase	4	7	nomatch	doit	-1	1	p	0.90601
241.2881	0.2	beaucoup	22	verb	phrase	4	8	nomatch	doit	-1	1	p	0.90601
241.488	0.0	+	22	verb	phrase	4	9	nomatch	doit	-1	1	p	0.90601
241.88779999999997	0.2	jongler	22	verb	phrase	4	10	nomatch	doit	-1	1	p	0.90601
242.08769999999998	0.0	+	22	verb	phrase	4	11	nomatch	doit	-1	1	p	0.90601
242.50439999999998	0.0	+	22	verb	phrase	4	12	nomatch	doit	-1	1	p	0.90601
244.48659999999995	0.0	DOIT	22	verb	phrase	4	13	nomatch	doit	-1	1	p	0.90601
245.4529	0.0	+	22	verb	phrase	4	14	nomatch	doit	-1	1	p	0.90601
245.39259999999996	0.0	[response]	22	verb	phrase	4	15	nomatch	doit	-1	1	p	0.90601
246.88559999999995	0.0	+	23	verb	phrase	1	1	match	tard	5	1	y	0.62411
247.43529999999998	0.2	krqxmhg	23	verb	phrase	1	2	match	tard	5	1	y	0.62411
247.63529999999997	0.0	+	23	verb	phrase	1	3	match	tard	5	1	y	0.62411
248.0351	0.2	rtgc	23	verb	phrase	1	4	match	tard	5	1	y	0.62411
248.23499999999996	0.0	+	23	verb	phrase	1	5	match	tard	5	1	y	0.62411
248.63479999999998	0.2	jq	23	verb	phrase	1	6	match	tard	5	1	y	0.62411
248.8347	0.0	+	23	verb	phrase	1	7	match	tard	5	1	y	0.62411
249.23449999999997	0.2	gkbvqhm	23	verb	phrase	1	8	match	tard	5	1	y	0.62411
249.43449999999996	0.0	+	23	verb	phrase	1	9	match	tard	5	1	y	0.62411
249.85139999999996	0.2	tard	23	verb	phrase	1	10	match	tard	5	1	y	0.62411
250.0344	0.0	+	23	verb	phrase	1	11	match	tard	5	1	y	0.62411
250.43399999999997	0.0	+	23	verb	phrase	1	12	match	tard	5	1	y	0.62411
252.44979999999998	0.0	TARD	23	verb	phrase	1	13	match	tard	5	1	y	0.62411
253.1329	0.0	+	23	verb	phrase	1	14	match	tard	5	1	y	0.62411
253.07389999999998	0.0	[response]	23	verb	phrase	1	15	match	tard	5	1	y	0.62411
254.84879999999998	0.0	+	24	noun	phrase	4	1	match	son	3	1	y	0.56964
255.39849999999996	0.2	tzxpmb	24	noun	phrase	4	2	match	son	3	1	y	0.56964
255.59839999999997	0.0	+	24	noun	phrase	4	3	match	son	3	1	y	0.56964
255.9982	0.2	dans	24	noun	phrase	4	4	match	son	3	1	y	0.56964
256.1987	0.0	+	24	noun	phrase	4	5	match	son	3	1	y	0.56964
256.59799999999996	0.2	son	24	noun	phrase	4	6	match	son	3	1	y	0.56964
256.81469999999996	0.0	+	24	noun	phrase	4	7	match	son	3	1	y	0.56964
257.19829999999996	0.2	grand	24	noun	phrase	4	8	match	son	3	1	y	0.56964
257.39759999999995	0.0	+	24	noun	phrase	4	9	match	son	3	1	y	0.56964
257.79749999999996	0.2	cendrier	24	noun	phrase	4	10	match	son	3	1	y	0.56964
257.99739999999997	0.0	+	24	noun	phrase	4	11	match	son	3	1	y	0.56964
258.3972	0.0	+	24	noun	phrase	4	12	match	son	3	1	y	0.56964
260.3963	0.0	SON	24	noun	phrase	4	13	match	son	3	1	y	0.56964
261.0293	0.0	+	24	noun	phrase	4	14	match	son	3	1	y	0.56964
260.9659	0.0	[response]	24	noun	phrase	4	15	match	son	3	1	y	0.56964
262.7953	0.0	+	25	noun	list	4	1	match	marc	2	1	y	0.61885
263.34499999999997	0.2	lxnz	25	noun	list	4	2	match	marc	2	1	y	0.61885
263.5449	0.0	+	25	noun	list	4	3	match	marc	2	1	y	0.61885
263.9452	0.2	marc	25	noun	list	4	4	match	marc	2	1	y	0.61885
264.1447	0.0	+	25	noun	list	4	5	match	marc	2	1	y	0.61885
264.54449999999997	0.2	leur	25	noun	list	4	6	match	marc	2	1	y	0.61885
264.7444	0.0	+	25	noun	list	4	7	match	marc	2	1	y	0.61885
265.14419999999996	0.2	beaucoup	25	noun	list	4	8	match	marc	2	1	y	0.61885
265.34409999999997	0.0	+	25	noun	list	4	9	match	marc	2	1	y	0.61885
265.74399999999997	0.2	voilier	25	noun	list	4	10	match	marc	2	1	y	0.61885
265.9439	0.0	+	25	noun	list	4	11	match	marc	2	1	y	0.61885
266.34369999999996	0.0	+	25	noun	list	4	12	match	marc	2	1	y	0.61885
268.34279999999995	0.0	MARC	25	noun	list	4	13	match	marc	2	1	y	0.61885
269.0258	0.0	+	25	noun	list	4	14	match	marc	2	1	y	0.61885
268.9617	0.0	[response]	25	noun	list	4	15	match	marc	2	1	y	0.61885
278.7382	0.0	+	26	noun	phrase	4	1	nomatch	plus	-1	1	p	0.79294
279.28799999999995	0.2	dzthn	26	noun	phrase	4	2	nomatch	plus	-1	1	p	0.79294
279.48789999999997	0.0	+	26	noun	phrase	4	3	nomatch	plus	-1	1	p	0.79294
279.8877	0.2	sous	26	noun	phrase	4	4	nomatch	plus	-1	1	p	0.79294
280.08759999999995	0.0	+	26	noun	phrase	4	5	nomatch	plus	-1	1	p	0.79294
280.48749999999995	0.2	mon	26	noun	phrase	4	6	nomatch	plus	-1	1	p	0.79294
280.68739999999997	0.0	+	26	noun	phrase	4	7	nomatch	plus	-1	1	p	0.79294
281.0872	0.2	vieux	26	noun	phrase	4	8	nomatch	plus	-1	1	p	0.79294
281.28709999999995	0.0	+	26	noun	phrase	4	9	nomatch	plus	-1	1	p	0.79294
281.68699999999995	0.2	tablier	26	noun	phrase	4	10	nomatch	plus	-1	1	p	0.79294
281.8868	0.0	+	26	noun	phrase	4	11	nomatch	plus	-1	1	p	0.79294
282.2867	0.0	+	26	noun	phrase	4	12	nomatch	plus	-1	1	p	0.79294
284.2858	0.0	PLUS	26	noun	phrase	4	13	nomatch	plus	-1	1	p	0.79294
285.1354	0.0	+	26	noun	phrase	4	14	nomatch	plus	-1	1	p	0.79294
285.07869999999997	0.0	[response]	26	noun	phrase	4	15	nomatch	plus	-1	1	p	0.79294
294.6979	0.0	+	27	noun	phrase	1	1	nomatch	grand	-1	1	p	0.76096
295.2484	0.2	vxmqbwf	27	noun	phrase	1	2	nomatch	grand	-1	1	p	0.76096
295.44809999999995	0.0	+	27	noun	phrase	1	3	nomatch	grand	-1	1	p	0.76096
295.8474	0.2	lnvt	27	noun	phrase	1	4	nomatch	grand	-1	1	p	0.76096
296.0474	0.0	+	27	noun	phrase	1	5	nomatch	grand	-1	1	p	0.76096
296.4471	0.2	hfs	27	noun	phrase	1	6	nomatch	grand	-1	1	p	0.76096
296.647	0.0	+	27	noun	phrase	1	7	nomatch	grand	-1	1	p	0.76096
297.04679999999996	0.2	jnpgfxm	27	noun	phrase	1	8	nomatch	grand	-1	1	p	0.76096
297.2468	0.0	+	27	noun	phrase	1	9	nomatch	grand	-1	1	p	0.76096
297.6466	0.2	nouveau	27	noun	phrase	1	10	nomatch	grand	-1	1	p	0.76096
297.8465	0.0	+	27	noun	phrase	1	11	nomatch	grand	-1	1	p	0.76096
298.24629999999996	0.0	+	27	noun	phrase	1	12	nomatch	grand	-1	1	p	0.76096
300.2455	0.0	GRAND	27	noun	phrase	1	13	nomatch	grand	-1	1	p	0.76096
301.0618	0.0	+	27	noun	phrase	1	14	nomatch	grand	-1	1	p	0.76096
301.0064	0.0	[response]	27	noun	phrase	1	15	nomatch	grand	-1	1	p	0.76096
302.64439999999996	0.0	+	28	noun	list	1	1	nomatch	beau	-1	1	p	0.57411
303.1941	0.2	gnxctbj	28	noun	list	1	2	nomatch	beau	-1	1	p	0.57411
303.3941	0.0	+	28	noun	list	1	3	nomatch	beau	-1	1	p	0.57411
303.7939	0.2	dgpc	28	noun	list	1	4	nomatch	beau	-1	1	p	0.57411
303.99379999999996	0.0	+	28	noun	list	1	5	nomatch	beau	-1	1	p	0.57411
304.3936	0.2	ldk	28	noun	list	1	6	nomatch	beau	-1	1	p	0.57411
304.5935	0.0	+	28	noun	list	1	7	nomatch	beau	-1	1	p	0.57411
304.99399999999997	0.2	cjzhfmw	28	noun	list	1	8	nomatch	beau	-1	1	p	0.57411
305.1936	0.0	+	28	noun	list	1	9	nomatch	beau	-1	1	p	0.57411
305.5931	0.2	beaucoup	28	noun	list	1	10	nomatch	beau	-1	1	p	0.57411
305.793	0.0	+	28	noun	list	1	11	nomatch	beau	-1	1	p	0.57411
306.1928	0.0	+	28	noun	list	1	12	nomatch	beau	-1	1	p	0.57411
308.1919	0.0	BEAU	28	noun	list	1	13	nomatch	beau	-1	1	p	0.57411
308.8257	0.0	+	28	noun	list	1	14	nomatch	beau	-1	1	p	0.57411
308.7661	0.0	[response]	28	noun	list	1	15	nomatch	beau	-1	1	p	0.57411
310.5909	0.0	+	29	verb	phrase	2	1	match	vite	5	1	y	0.54282
311.1407	0.2	jlhkt	29	verb	phrase	2	2	match	vite	5	1	y	0.54282
311.3406	0.0	+	29	verb	phrase	2	3	match	vite	5	1	y	0.54282
311.74039999999997	0.2	pfmr	29	verb	phrase	2	4	match	vite	5	1	y	0.54282
311.9403	0.0	+	29	verb	phrase	2	5	match	vite	5	1	y	0.54282
312.3402	0.2	jq	29	verb	phrase	2	6	match	vite	5	1	y	0.54282
312.53999999999996	0.0	+	29	verb	phrase	2	7	match	vite	5	1	y	0.54282
312.93989999999997	0.2	danser	29	verb	phrase	2	8	match	vite	5	1	y	0.54282
313.1397	0.0	+	29	verb	phrase	2	9	match	vite	5	1	y	0.54282
313.55679999999995	0.2	vite	29	verb	phrase	2	10	match	vite	5	1	y	0.54282
313.75669999999997	0.0	+	29	verb	phrase	2	11	match	vite	5	1	y	0.54282
314.14009999999996	0.0	+	29	verb	phrase	2	12	match	vite	5	1	y	0.54282
316.13849999999996	0.0	VITE	29	verb	phrase	2	13	match	vite	5	1	y	0.54282
316.7382	0.0	+	29	verb	phrase	2	14	match	vite	5	1	y	0.54282
316.68129999999996	0.0	[response]	29	verb	phrase	2	15	match	vite	5	1	y	0.54282
318.5374	0.0	+	30	noun	list	3	1	nomatch	tard	-1	1	p	0.58109
319.0872	0.2	lmvwns	30	noun	list	3	2	nomatch	tard	-1	1	p	0.58109
319.28709999999995	0.0	+	30	noun	list	3	3	nomatch	tard	-1	1	p	0.58109
319.6869	0.2	njr	30	noun	list	3	4	nomatch	tard	-1	1	p	0.58109
319.8868	0.0	+	30	noun	list	3	5	nomatch	tard	-1	1	p	0.58109
320.28659999999996	0.2	va	30	noun	list	3	6	nomatch	tard	-1	1	p	0.58109
320.48659999999995	0.0	+	30	noun	list	3	7	nomatch	tard	-1	1	p	0.58109
320.8864	0.2	rocher	30	noun	list	3	8	nomatch	tard	-1	1	p	0.58109
321.10339999999997	0.0	+	30	noun	list	3	9	nomatch	tard	-1	1	p	0.58109
321.4862	0.2	tôt	30	noun	list	3	10	nomatch	tard	-1	1	p	0.58109
321.686	0.0	+	30	noun	list	3	11	nomatch	tard	-1	1	p	0.58109
322.08619999999996	0.0	+	30	noun	list	3	12	nomatch	tard	-1	1	p	0.58109
324.085	0.0	TARD	30	noun	list	3	13	nomatch	tard	-1	1	p	0.58109
324.78479999999996	0.0	+	30	noun	list	3	14	nomatch	tard	-1	1	p	0.58109
324.66610000000003	0.0	[response]	30	noun	list	3	15	nomatch	tard	-1	1	p	0.58109
326.4839	0.0	+	31	noun	phrase	2	1	match	voilier	5	1	y	0.73249
327.0338	0.2	wvcdn	31	noun	phrase	2	2	match	voilier	5	1	y	0.73249
327.23359999999997	0.0	+	31	noun	phrase	2	3	match	voilier	5	1	y	0.73249
327.65009999999995	0.2	lnvt	31	noun	phrase	2	4	match	voilier	5	1	y	0.73249
327.86699999999996	0.0	+	31	noun	phrase	2	5	match	voilier	5	1	y	0.73249
328.2665	0.2	ldk	31	noun	phrase	2	6	match	voilier	5	1	y	0.73249
328.4504	0.0	+	31	noun	phrase	2	7	match	voilier	5	1	y	0.73249
328.8495	0.2	grand	31	noun	phrase	2	8	match	voilier	5	1	y	0.73249
329.06629999999996	0.0	+	31	noun	phrase	2	9	match	voilier	5	1	y	0.73249
329.4493	0.2	voilier	31	noun	phrase	2	10	match	voilier	5	1	y	0.73249
329.6492	0.0	+	31	noun	phrase	2	11	match	voilier	5	1	y	0.73249
330.049	0.0	+	31	noun	phrase	2	12	match	voilier	5	1	y	0.73249
332.0481	0.0	VOILIER	31	noun	phrase	2	13	match	voilier	5	1	y	0.73249
332.93109999999996	0.0	+	31	noun	phrase	2	14	match	voilier	5	1	y	0.73249
332.7806	0.0	[response]	31	noun	phrase	2	15	match	voilier	5	1	y	0.73249
334.4471	0.0	+	32	verb	phrase	1	1	match	parader	5	1	y	0.53167
334.9968	0.2	hfvpd	32	verb	phrase	1	2	match	parader	5	1	y	0.53167
335.19669999999996	0.0	+	32	verb	phrase	1	3	match	parader	5	1	y	0.53167
335.59659999999997	0.2	lnpz	32	verb	phrase	1	4	match	parader	5	1	y	0.53167
335.7965	0.0	+	32	verb	phrase	1	5	match	parader	5	1	y	0.53167
336.1963	0.2	glhb	32	verb	phrase	1	6	match	parader	5	1	y	0.53167
336.39619999999996	0.0	+	32	verb	phrase	1	7	match	parader	5	1	y	0.53167
336.796	0.2	sjxrn	32	verb	phrase	1	8	match	parader	5	1	y	0.53167
336.99649999999997	0.0	+	32	verb	phrase	1	9	match	parader	5	1	y	0.53167
337.3961	0.2	parader	32	verb	phrase	1	10	match	parader	5	1	y	0.53167
337.59569999999997	0.0	+	32	verb	phrase	1	11	match	parader	5	1	y	0.53167
337.9955	0.0	+	32	verb	phrase	1	12	match	parader	5	1	y	0.53167
339.99519999999995	0.0	PARADER	32	verb	phrase	1	13	match	parader	5	1	y	0.53167
340.5944	0.0	+	32	verb	phrase	1	14	match	parader	5	1	y	0.53167
340.52680000000004	0.0	[response]	32	verb	phrase	1	15	match	parader	5	1	y	0.53167
342.3936	0.0	+	33	noun	list	1	1	match	ainsi	5	1	y	0.58781
342.94329999999997	0.2	bxkt	33	noun	list	1	2	match	ainsi	5	1	y	0.58781
343.1432	0.0	+	33	noun	list	1	3	match	ainsi	5	1	y	0.58781
343.5431	0.2	kxqr	33	noun	list	1	4	match	ainsi	5	1	y	0.58781
343.743	0.0	+	33	noun	list	1	5	match	ainsi	5	1	y	0.58781
344.14279999999997	0.2	jq	33	noun	list	1	6	match	ainsi	5	1	y	0.58781
344.3427	0.0	+	33	noun	list	1	7	match	ainsi	5	1	y	0.58781
344.7426	0.2	bmlzsqf	33	noun	list	1	8	match	ainsi	5	1	y	0.58781
344.9427	0.0	+	33	noun	list	1	9	match	ainsi	5	1	y	0.58781
345.35929999999996	0.2	ainsi	33	noun	list	1	10	match	ainsi	5	1	y	0.58781
345.5422	0.0	+	33	noun	list	1	11	match	ainsi	5	1	y	0.58781
345.942	0.0	+	33	noun	list	1	12	match	ainsi	5	1	y	0.58781
347.9411	0.0	AINSI	33	noun	list	1	13	match	ainsi	5	1	y	0.58781
348.5909	0.0	+	33	noun	list	1	14	match	ainsi	5	1	y	0.58781
348.52889999999996	0.0	[response]	33	noun	list	1	15	match	ainsi	5	1	y	0.58781
350.3401	0.0	+	34	noun	list	1	1	match	tard	5	1	y	0.54494
350.8898	0.2	ngqvsfb	34	noun	list	1	2	match	tard	5	1	y	0.54494
351.08979999999997	0.0	+	34	noun	list	1	3	match	tard	5	1	y	0.54494
351.4896	0.2	njr	34	noun	list	1	4	match	tard	5	1	y	0.54494
351.68949999999995	0.0	+	34	noun	list	1	5	match	tard	5	1	y	0.54494
352.0893	0.2	vzgp	34	noun	list	1	6	match	tard	5	1	y	0.54494
352.2892	0.0	+	34	noun	list	1	7	match	tard	5	1	y	0.54494
352.6891	0.2	jsngrcz	34	noun	list	1	8	match	tard	5	1	y	0.54494
352.88939999999997	0.0	+	34	noun	list	1	9	match	tard	5	1	y	0.54494
353.2888	0.2	tard	34	noun	list	1	10	match	tard	5	1	y	0.54494
353.4887	0.0	+	34	noun	list	1	11	match	tard	5	1	y	0.54494
353.88849999999996	0.0	+	34	noun	list	1	12	match	tard	5	1	y	0.54494
355.88759999999996	0.0	TARD	34	noun	list	1	13	match	tard	5	1	y	0.54494
356.4874	0.0	+	34	noun	list	1	14	match	tard	5	1	y	0.54494
356.4326	0.0	[response]	34	noun	list	1	15	match	tard	5	1	y	0.54494
358.3033	0.0	+	35	noun	phrase	4	1	nomatch	vite	-1	1	p	0.71581
358.83639999999997	0.2	cmhwbdt	35	noun	phrase	4	2	nomatch	vite	-1	1	p	0.71581
359.0365	0.0	+	35	noun	phrase	4	3	nomatch	vite	-1	1	p	0.71581
359.43609999999995	0.2	pour	35	noun	phrase	4	4	nomatch	vite	-1	1	p	0.71581
359.63599999999997	0.0	+	35	noun	phrase	4	5	nomatch	vite	-1	1	p	0.71581
360.0358	0.2	mon	35	noun	phrase	4	6	nomatch	vite	-1	1	p	0.71581
360.2357	0.0	+	35	noun	phrase	4	7	nomatch	vite	-1	1	p	0.71581
360.63559999999995	0.2	grenier	35	noun	phrase	4	8	nomatch	vite	-1	1	p	0.71581
360.83549999999997	0.0	+	35	noun	phrase	4	9	nomatch	vite	-1	1	p	0.71581
361.2353	0.2	rouge	35	noun	phrase	4	10	nomatch	vite	-1	1	p	0.71581
361.4352	0.0	+	35	noun	phrase	4	11	nomatch	vite	-1	1	p	0.71581
361.835	0.0	+	35	noun	phrase	4	12	nomatch	vite	-1	1	p	0.71581
363.83419999999995	0.0	VITE	35	noun	phrase	4	13	nomatch	vite	-1	1	p	0.71581
364.61719999999997	0.0	+	35	noun	phrase	4	14	nomatch	vite	-1	1	p	0.71581
364.54999999999995	0.0	[response]	35	noun	phrase	4	15	nomatch	vite	-1	1	p	0.71581
366.24969999999996	0.0	+	36	verb	phrase	1	1	match	moins	5	1	y	0.6127
366.79949999999997	0.2	kdmwqbz	36	verb	phrase	1	2	match	moins	5	1	y	0.6127
366.9994	0.0	+	36	verb	phrase	1	3	match	moins	5	1	y	0.6127
367.3993	0.2	rmjd	36	verb	phrase	1	4	match	moins	5	1	y	0.6127
367.5992	0.0	+	36	verb	phrase	1	5	match	moins	5	1	y	0.6127
367.99899999999997	0.2	glhb	36	verb	phrase	1	6	match	moins	5	1	y	0.6127
368.1989	0.0	+	36	verb	phrase	1	7	match	moins	5	1	y	0.6127
368.6157	0.2	ckrfhw	36	verb	phrase	1	8	match	moins	5	1	y	0.6127
368.7987	0.0	+	36	verb	phrase	1	9	match	moins	5	1	y	0.6127
369.19849999999997	0.2	moins	36	verb	phrase	1	10	match	moins	5	1	y	0.6127
369.3984	0.0	+	36	verb	phrase	1	11	match	moins	5	1	y	0.6127
369.7982	0.0	+	36	verb	phrase	1	12	match	moins	5	1	y	0.6127
371.8141	0.0	MOINS	36	verb	phrase	1	13	match	moins	5	1	y	0.6127
372.4803	0.0	+	36	verb	phrase	1	14	match	moins	5	1	y	0.6127
372.42679999999996	0.0	[response]	36	verb	phrase	1	15	match	moins	5	1	y	0.6127
374.1963	0.0	+	37	noun	phrase	3	1	nomatch	luc	-1	1	p	0.9843700000000001
374.746	0.2	hkp	37	noun	phrase	3	2	nomatch	luc	-1	1	p	0.9843700000000001
374.9459	0.0	+	37	noun	phrase	3	3	nomatch	luc	-1	1	p	0.9843700000000001
375.3458	0.2	lnvt	37	noun	phrase	3	4	nomatch	luc	-1	1	p	0.9843700000000001
375.54569999999995	0.0	+	37	noun	phrase	3	5	nomatch	luc	-1	1	p	0.9843700000000001
375.9459	0.2	son	37	noun	phrase	3	6	nomatch	luc	-1	1	p	0.9843700000000001
376.1454	0.0	+	37	noun	phrase	3	7	nomatch	luc	-1	1	p	0.9843700000000001
376.54519999999997	0.2	grenier	37	noun	phrase	3	8	nomatch	luc	-1	1	p	0.9843700000000001
376.7451	0.0	+	37	noun	phrase	3	9	nomatch	luc	-1	1	p	0.9843700000000001
377.145	0.2	bleu	37	noun	phrase	3	10	nomatch	luc	-1	1	p	0.9843700000000001
377.3449	0.0	+	37	noun	phrase	3	11	nomatch	luc	-1	1	p	0.9843700000000001
377.74469999999997	0.0	+	37	noun	phrase	3	12	nomatch	luc	-1	1	p	0.9843700000000001
379.74379999999996	0.0	LUC	37	noun	phrase	3	13	nomatch	luc	-1	1	p	0.9843700000000001
380.79339999999996	0.0	+	37	noun	phrase	3	14	nomatch	luc	-1	1	p	0.9843700000000001
380.72819999999996	0.0	[response]	37	noun	phrase	3	15	nomatch	luc	-1	1	p	0.9843700000000001
382.14279999999997	0.0	+	38	verb	list	1	1	match	blanc	5	1	y	0.42236
382.6925	0.2	mgw	38	verb	list	1	2	match	blanc	5	1	y	0.42236
382.89239999999995	0.0	+	38	verb	list	1	3	match	blanc	5	1	y	0.42236
383.29229999999995	0.2	dgpc	38	verb	list	1	4	match	blanc	5	1	y	0.42236
383.49219999999997	0.0	+	38	verb	list	1	5	match	blanc	5	1	y	0.42236
383.892	0.2	wvrh	38	verb	list	1	6	match	blanc	5	1	y	0.42236
384.09189999999995	0.0	+	38	verb	list	1	7	match	blanc	5	1	y	0.42236
384.4917	0.2	ckrfhw	38	verb	list	1	8	match	blanc	5	1	y	0.42236
384.6918	0.0	+	38	verb	list	1	9	match	blanc	5	1	y	0.42236
385.09209999999996	0.2	blanc	38	verb	list	1	10	match	blanc	5	1	y	0.42236
385.29139999999995	0.0	+	38	verb	list	1	11	match	blanc	5	1	y	0.42236
385.6912	0.0	+	38	verb	list	1	12	match	blanc	5	1	y	0.42236
387.6903	0.0	BLANC	38	verb	list	1	13	match	blanc	5	1	y	0.42236
388.17339999999996	0.0	+	38	verb	list	1	14	match	blanc	5	1	y	0.42236
388.11269999999996	0.0	[response]	38	verb	list	1	15	match	blanc	5	1	y	0.42236
398.0858	0.0	+	39	verb	phrase	4	1	nomatch	sablier	-1	1	p	0.63568
398.6355	0.2	mnk	39	verb	phrase	4	2	nomatch	sablier	-1	1	p	0.63568
398.8358	0.0	+	39	verb	phrase	4	3	nomatch	sablier	-1	1	p	0.63568
399.23519999999996	0.2	jean	39	verb	phrase	4	4	nomatch	sablier	-1	1	p	0.63568
399.4525	0.0	+	39	verb	phrase	4	5	nomatch	sablier	-1	1	p	0.63568
399.835	0.2	doit	39	verb	phrase	4	6	nomatch	sablier	-1	1	p	0.63568
400.0349	0.0	+	39	verb	phrase	4	7	nomatch	sablier	-1	1	p	0.63568
400.43469999999996	0.2	mieux	39	verb	phrase	4	8	nomatch	sablier	-1	1	p	0.63568
400.6346	0.0	+	39	verb	phrase	4	9	nomatch	sablier	-1	1	p	0.63568
401.0344	0.2	nager	39	verb	phrase	4	10	nomatch	sablier	-1	1	p	0.63568
401.2344	0.0	+	39	verb	phrase	4	11	nomatch	sablier	-1	1	p	0.63568
401.63419999999996	0.0	+	39	verb	phrase	4	12	nomatch	sablier	-1	1	p	0.63568
403.65	0.0	SABLIER	39	verb	phrase	4	13	nomatch	sablier	-1	1	p	0.63568
404.36629999999997	0.0	+	39	verb	phrase	4	14	nomatch	sablier	-1	1	p	0.63568
404.28569999999996	0.0	[response]	39	verb	phrase	4	15	nomatch	sablier	-1	1	p	0.63568
406.0489	0.0	+	40	noun	phrase	4	1	nomatch	sur	-1	1	p	0.57113
406.5987	0.2	zxtwl	40	noun	phrase	4	2	nomatch	sur	-1	1	p	0.57113
406.79859999999996	0.0	+	40	noun	phrase	4	3	nomatch	sur	-1	1	p	0.57113
407.1984	0.2	vers	40	noun	phrase	4	4	nomatch	sur	-1	1	p	0.57113
407.3983	0.0	+	40	noun	phrase	4	5	nomatch	sur	-1	1	p	0.57113
407.7981	0.2	mon	40	noun	phrase	4	6	nomatch	sur	-1	1	p	0.57113
407.99809999999997	0.0	+	40	noun	phrase	4	7	nomatch	sur	-1	1	p	0.57113
408.3986	0.2	clavier	40	noun	phrase	4	8	nomatch	sur	-1	1	p	0.57113
408.5978	0.0	+	40	noun	phrase	4	9	nomatch	sur	-1	1	p	0.57113
408.9976	0.2	vert	40	noun	phrase	4	10	nomatch	sur	-1	1	p	0.57113
409.198	0.0	+	40	noun	phrase	4	11	nomatch	sur	-1	1	p	0.57113
409.5974	0.0	+	40	noun	phrase	4	12	nomatch	sur	-1	1	p	0.57113
411.5965	0.0	SUR	40	noun	phrase	4	13	nomatch	sur	-1	1	p	0.57113
412.2295	0.0	+	40	noun	phrase	4	14	nomatch	sur	-1	1	p	0.57113
412.1676	0.0	[response]	40	noun	phrase	4	15	nomatch	sur	-1	1	p	0.57113
413.99539999999996	0.0	+	41	verb	list	1	1	match	voyager	5	1	y	0.60544
414.54519999999997	0.2	xjf	41	verb	list	1	2	match	voyager	5	1	y	0.60544
414.7451	0.0	+	41	verb	list	1	3	match	voyager	5	1	y	0.60544
415.1449	0.2	pfmr	41	verb	list	1	4	match	voyager	5	1	y	0.60544
415.3452	0.0	+	41	verb	list	1	5	match	voyager	5	1	y	0.60544
415.7451	0.2	wvrh	41	verb	list	1	6	match	voyager	5	1	y	0.60544
415.9616	0.0	+	41	verb	list	1	7	match	voyager	5	1	y	0.60544
416.3444	0.2	vdzg	41	verb	list	1	8	match	voyager	5	1	y	0.60544
416.54429999999996	0.0	+	41	verb	list	1	9	match	voyager	5	1	y	0.60544
416.9441	0.2	voyager	41	verb	list	1	10	match	voyager	5	1	y	0.60544
417.144	0.0	+	41	verb	list	1	11	match	voyager	5	1	y	0.60544
417.5439	0.0	+	41	verb	list	1	12	match	voyager	5	1	y	0.60544
419.543	0.0	VOYAGER	41	verb	list	1	13	match	voyager	5	1	y	0.60544
420.30989999999997	0.0	+	41	verb	list	1	14	match	voyager	5	1	y	0.60544
420.1484	0.0	[response]	41	verb	list	1	15	match	voyager	5	1	y	0.60544
429.9555	0.0	+	42	noun	list	3	1	match	vite	5	1	y	0.52792
430.4882	0.2	rgbfnqk	42	noun	list	3	2	match	vite	5	1	y	0.52792
430.68809999999996	0.0	+	42	noun	list	3	3	match	vite	5	1	y	0.52792
431.0879	0.2	hsnx	42	noun	list	3	4	match	vite	5	1	y	0.52792
431.2878	0.0	+	42	noun	list	3	5	match	vite	5	1	y	0.52792
431.6876	0.2	va	42	noun	list	3	6	match	vite	5	1	y	0.52792
431.88759999999996	0.0	+	42	noun	list	3	7	match	vite	5	1	y	0.52792
432.2874	0.2	sablier	42	noun	list	3	8	match	vite	5	1	y	0.52792
432.4873	0.0	+	42	noun	list	3	9	match	vite	5	1	y	0.52792
432.8871	0.2	vite	42	noun	list	3	10	match	vite	5	1	y	0.52792
433.087	0.0	+	42	noun	list	3	11	match	vite	5	1	y	0.52792
433.4869	0.0	+	42	noun	list	3	12	match	vite	5	1	y	0.52792
435.486	0.0	VITE	42	noun	list	3	13	match	vite	5	1	y	0.52792
436.06899999999996	0.0	+	42	noun	list	3	14	match	vite	5	1	y	0.52792
436.0139	0.0	[response]	42	noun	list	3	15	match	vite	5	1	y	0.52792
437.88489999999996	0.0	+	43	verb	list	3	1	match	chasser	4	1	y	0.84517
438.43469999999996	0.2	dnqjw	43	verb	list	3	2	match	chasser	4	1	y	0.84517
438.6346	0.0	+	43	verb	list	3	3	match	chasser	4	1	y	0.84517
439.0345	0.2	pfmr	43	verb	list	3	4	match	chasser	4	1	y	0.84517
439.23499999999996	0.0	+	43	verb	list	3	5	match	chasser	4	1	y	0.84517
439.6346	0.2	leur	43	verb	list	3	6	match	chasser	4	1	y	0.84517
439.83439999999996	0.0	+	43	verb	list	3	7	match	chasser	4	1	y	0.84517
440.251	0.2	chasser	43	verb	list	3	8	match	chasser	4	1	y	0.84517
440.4338	0.0	+	43	verb	list	3	9	match	chasser	4	1	y	0.84517
440.83359999999993	0.2	bleu	43	verb	list	3	10	match	chasser	4	1	y	0.84517
441.0336	0.0	+	43	verb	list	3	11	match	chasser	4	1	y	0.84517
441.44999999999993	0.0	+	43	verb	list	3	12	match	chasser	4	1	y	0.84517
443.44909999999993	0.0	CHASSER	43	verb	list	3	13	match	chasser	4	1	y	0.84517
444.3487	0.0	+	43	verb	list	3	14	match	chasser	4	1	y	0.84517
444.2943	0.0	[response]	43	verb	list	3	15	match	chasser	4	1	y	0.84517
445.84809999999993	0.0	+	44	verb	list	1	1	match	grand	5	1	y	0.44796
446.39779999999996	0.2	rxldjnv	44	verb	list	1	2	match	grand	5	1	y	0.44796
446.59770000000003	0.0	+	44	verb	list	1	3	match	grand	5	1	y	0.44796
446.9982	0.2	lnmr	44	verb	list	1	4	match	grand	5	1	y	0.44796
447.2146	0.0	+	44	verb	list	1	5	match	grand	5	1	y	0.44796
447.5973	0.2	vzgp	44	verb	list	1	6	match	grand	5	1	y	0.44796
447.7972	0.0	+	44	verb	list	1	7	match	grand	5	1	y	0.44796
448.197	0.2	gkbvqhm	44	verb	list	1	8	match	grand	5	1	y	0.44796
448.39699999999993	0.0	+	44	verb	list	1	9	match	grand	5	1	y	0.44796
448.79679999999996	0.2	grand	44	verb	list	1	10	match	grand	5	1	y	0.44796
448.99670000000003	0.0	+	44	verb	list	1	11	match	grand	5	1	y	0.44796
449.39649999999995	0.0	+	44	verb	list	1	12	match	grand	5	1	y	0.44796
451.3962	0.0	GRAND	44	verb	list	1	13	match	grand	5	1	y	0.44796
451.96209999999996	0.0	+	44	verb	list	1	14	match	grand	5	1	y	0.44796
451.8442	0.0	[response]	44	verb	list	1	15	match	grand	5	1	y	0.44796
453.79459999999995	0.0	+	45	noun	list	4	1	match	grenier	5	1	y	0.56376
454.3443	0.2	tmgdsz	45	noun	list	4	2	match	grenier	5	1	y	0.56376
454.5448	0.0	+	45	noun	list	4	3	match	grenier	5	1	y	0.56376
454.94409999999993	0.2	adam	45	noun	list	4	4	match	grenier	5	1	y	0.56376
455.144	0.0	+	45	noun	list	4	5	match	grenier	5	1	y	0.56376
455.54380000000003	0.2	leur	45	noun	list	4	6	match	grenier	5	1	y	0.56376
455.7437	0.0	+	45	noun	list	4	7	match	grenier	5	1	y	0.56376
456.1435	0.2	plus	45	noun	list	4	8	match	grenier	5	1	y	0.56376
456.34349999999995	0.0	+	45	noun	list	4	9	match	grenier	5	1	y	0.56376
456.7433	0.2	grenier	45	noun	list	4	10	match	grenier	5	1	y	0.56376
456.94319999999993	0.0	+	45	noun	list	4	11	match	grenier	5	1	y	0.56376
457.3604	0.0	+	45	noun	list	4	12	match	grenier	5	1	y	0.56376
459.34219999999993	0.0	GRENIER	45	noun	list	4	13	match	grenier	5	1	y	0.56376
459.95849999999996	0.0	+	45	noun	list	4	14	match	grenier	5	1	y	0.56376
459.9059	0.0	[response]	45	noun	list	4	15	match	grenier	5	1	y	0.56376
461.74109999999996	0.0	+	46	noun	list	4	1	nomatch	avec	-1	1	p	0.63613
462.29089999999997	0.2	zdtjh	46	noun	list	4	2	nomatch	avec	-1	1	p	0.63613
462.49080000000004	0.0	+	46	noun	list	4	3	nomatch	avec	-1	1	p	0.63613
462.89059999999995	0.2	vers	46	noun	list	4	4	nomatch	avec	-1	1	p	0.63613
463.0905	0.0	+	46	noun	list	4	5	nomatch	avec	-1	1	p	0.63613
463.49029999999993	0.2	doit	46	noun	list	4	6	nomatch	avec	-1	1	p	0.63613
463.6902	0.0	+	46	noun	list	4	7	nomatch	avec	-1	1	p	0.63613
464.0901	0.2	clavier	46	noun	list	4	8	nomatch	avec	-1	1	p	0.63613
464.28999999999996	0.0	+	46	noun	list	4	9	nomatch	avec	-1	1	p	0.63613
464.6898	0.2	loin	46	noun	list	4	10	nomatch	avec	-1	1	p	0.63613
464.88969999999995	0.0	+	46	noun	list	4	11	nomatch	avec	-1	1	p	0.63613
465.2895	0.0	+	46	noun	list	4	12	nomatch	avec	-1	1	p	0.63613
467.2886	0.0	AVEC	46	noun	list	4	13	nomatch	avec	-1	1	p	0.63613
467.98839999999996	0.0	+	46	noun	list	4	14	nomatch	avec	-1	1	p	0.63613
467.9248	0.0	[response]	46	noun	list	4	15	nomatch	avec	-1	1	p	0.63613
469.6876	0.0	+	47	verb	phrase	2	1	nomatch	cendrier	-1	1	p	0.50799
470.2374	0.2	kfx	47	verb	phrase	2	2	nomatch	cendrier	-1	1	p	0.50799
470.43729999999994	0.0	+	47	verb	phrase	2	3	nomatch	cendrier	-1	1	p	0.50799
470.8373	0.2	lnpz	47	verb	phrase	2	4	nomatch	cendrier	-1	1	p	0.50799
471.03700000000003	0.0	+	47	verb	phrase	2	5	nomatch	cendrier	-1	1	p	0.50799
471.43679999999995	0.2	glhb	47	verb	phrase	2	6	nomatch	cendrier	-1	1	p	0.50799
471.6367	0.0	+	47	verb	phrase	2	7	nomatch	cendrier	-1	1	p	0.50799
472.0366	0.2	beaucoup	47	verb	phrase	2	8	nomatch	cendrier	-1	1	p	0.50799
472.2365	0.0	+	47	verb	phrase	2	9	nomatch	cendrier	-1	1	p	0.50799
472.6363	0.2	plonger	47	verb	phrase	2	10	nomatch	cendrier	-1	1	p	0.50799
472.83619999999996	0.0	+	47	verb	phrase	2	11	nomatch	cendrier	-1	1	p	0.50799
473.236	0.0	+	47	verb	phrase	2	12	nomatch	cendrier	-1	1	p	0.50799
475.2351	0.0	CENDRIER	47	verb	phrase	2	13	nomatch	cendrier	-1	1	p	0.50799
475.8016	0.0	+	47	verb	phrase	2	14	nomatch	cendrier	-1	1	p	0.50799
475.7431	0.0	[response]	47	verb	phrase	2	15	nomatch	cendrier	-1	1	p	0.50799
477.6341	0.0	+	48	verb	list	1	1	nomatch	doit	-1	1	p	0.71817
478.1839	0.2	pdmjs	48	verb	list	1	2	nomatch	doit	-1	1	p	0.71817
478.38379999999995	0.0	+	48	verb	list	1	3	nomatch	doit	-1	1	p	0.71817
478.7836	0.2	njr	48	verb	list	1	4	nomatch	doit	-1	1	p	0.71817
479.00019999999995	0.0	+	48	verb	list	1	5	nomatch	doit	-1	1	p	0.71817
479.4	0.2	vzgp	48	verb	list	1	6	nomatch	doit	-1	1	p	0.71817
479.59989999999993	0.0	+	48	verb	list	1	7	nomatch	doit	-1	1	p	0.71817
480.0171	0.2	xgpcz	48	verb	list	1	8	nomatch	doit	-1	1	p	0.71817
480.19960000000003	0.0	+	48	verb	list	1	9	nomatch	doit	-1	1	p	0.71817
480.59950000000003	0.2	voyager	48	verb	list	1	10	nomatch	doit	-1	1	p	0.71817
480.7994	0.0	+	48	verb	list	1	11	nomatch	doit	-1	1	p	0.71817
481.1992	0.0	+	48	verb	list	1	12	nomatch	doit	-1	1	p	0.71817
483.1983	0.0	DOIT	48	verb	list	1	13	nomatch	doit	-1	1	p	0.71817
484.0153	0.0	+	48	verb	list	1	14	nomatch	doit	-1	1	p	0.71817
483.9164999999999	0.0	[response]	48	verb	list	1	15	nomatch	doit	-1	1	p	0.71817
493.611	0.0	+	49	verb	list	1	1	nomatch	chasser	-1	1	p	0.61569
494.1435	0.2	kbpdt	49	verb	list	1	2	nomatch	chasser	-1	1	p	0.61569
494.3441	0.0	+	49	verb	list	1	3	nomatch	chasser	-1	1	p	0.61569
494.7432	0.2	dgpc	49	verb	list	1	4	nomatch	chasser	-1	1	p	0.61569
494.94319999999993	0.0	+	49	verb	list	1	5	nomatch	chasser	-1	1	p	0.61569
495.34299999999996	0.2	hfs	49	verb	list	1	6	nomatch	chasser	-1	1	p	0.61569
495.54290000000003	0.0	+	49	verb	list	1	7	nomatch	chasser	-1	1	p	0.61569
495.94269999999995	0.2	ljqpv	49	verb	list	1	8	nomatch	chasser	-1	1	p	0.61569
496.1426	0.0	+	49	verb	list	1	9	nomatch	chasser	-1	1	p	0.61569
496.54239999999993	0.2	rouler	49	verb	list	1	10	nomatch	chasser	-1	1	p	0.61569
496.7424	0.0	+	49	verb	list	1	11	nomatch	chasser	-1	1	p	0.61569
497.1422	0.0	+	49	verb	list	1	12	nomatch	chasser	-1	1	p	0.61569
499.1413	0.0	CHASSER	49	verb	list	1	13	nomatch	chasser	-1	1	p	0.61569
499.8243	0.0	+	49	verb	list	1	14	nomatch	chasser	-1	1	p	0.61569
499.75699999999995	0.0	[response]	49	verb	list	1	15	nomatch	chasser	-1	1	p	0.61569
501.5402	0.0	+	50	noun	phrase	3	1	match	clavier	4	1	y	0.47963
502.09000000000003	0.2	vrnf	50	noun	phrase	3	2	match	clavier	4	1	y	0.47963
502.2899	0.0	+	50	noun	phrase	3	3	match	clavier	4	1	y	0.47963
502.6898	0.2	ptxf	50	noun	phrase	3	4	match	clavier	4	1	y	0.47963
502.8903	0.0	+	50	noun	phrase	3	5	match	clavier	4	1	y	0.47963
503.2899	0.2	son	50	noun	phrase	3	6	match	clavier	4	1	y	0.47963
503.5063	0.0	+	50	noun	phrase	3	7	match	clavier	4	1	y	0.47963
503.88919999999996	0.2	clavier	50	noun	phrase	3	8	match	clavier	4	1	y	0.47963
504.08910000000003	0.0	+	50	noun	phrase	3	9	match	clavier	4	1	y	0.47963
504.48900000000003	0.2	rouge	50	noun	phrase	3	10	match	clavier	4	1	y	0.47963
504.6889	0.0	+	50	noun	phrase	3	11	match	clavier	4	1	y	0.47963
505.0887	0.0	+	50	noun	phrase	3	12	match	clavier	4	1	y	0.47963
507.0878	0.0	CLAVIER	50	noun	phrase	3	13	match	clavier	4	1	y	0.47963
507.6209	0.0	+	50	noun	phrase	3	14	match	clavier	4	1	y	0.47963
507.5674	0.0	[response]	50	noun	phrase	3	15	match	clavier	4	1	y	0.47963
509.4868	0.0	+	51	noun	list	3	1	nomatch	plus	-1	1	p	0.72532
510.03649999999993	0.2	rjtfs	51	noun	list	3	2	nomatch	plus	-1	1	p	0.72532
510.2364	0.0	+	51	noun	list	3	3	nomatch	plus	-1	1	p	0.72532
510.6363	0.2	hgvw	51	noun	list	3	4	nomatch	plus	-1	1	p	0.72532
510.8366	0.0	+	51	noun	list	3	5	nomatch	plus	-1	1	p	0.72532
511.236	0.2	mon	51	noun	list	3	6	nomatch	plus	-1	1	p	0.72532
511.43589999999995	0.0	+	51	noun	list	3	7	nomatch	plus	-1	1	p	0.72532
511.8357	0.2	mieux	51	noun	list	3	8	nomatch	plus	-1	1	p	0.72532
512.0525	0.0	+	51	noun	list	3	9	nomatch	plus	-1	1	p	0.72532
512.4354999999999	0.2	cendrier	51	noun	list	3	10	nomatch	plus	-1	1	p	0.72532
512.6354	0.0	+	51	noun	list	3	11	nomatch	plus	-1	1	p	0.72532
513.0359	0.0	+	51	noun	list	3	12	nomatch	plus	-1	1	p	0.72532
515.0514	0.0	PLUS	51	noun	list	3	13	nomatch	plus	-1	1	p	0.72532
515.834	0.0	+	51	noun	list	3	14	nomatch	plus	-1	1	p	0.72532
515.7767	0.0	[response]	51	noun	list	3	15	nomatch	plus	-1	1	p	0.72532
517.4499	0.0	+	52	verb	list	1	1	nomatch	moins	-1	1	p	0.53325
517.9997	0.2	lwsvf	52	verb	list	1	2	nomatch	moins	-1	1	p	0.53325
518.1996	0.0	+	52	verb	list	1	3	nomatch	moins	-1	1	p	0.53325
518.5994	0.2	lnmr	52	verb	list	1	4	nomatch	moins	-1	1	p	0.53325
518.7993	0.0	+	52	verb	list	1	5	nomatch	moins	-1	1	p	0.53325
519.2162999999999	0.2	jq	52	verb	list	1	6	nomatch	moins	-1	1	p	0.53325
519.3998	0.0	+	52	verb	list	1	7	nomatch	moins	-1	1	p	0.53325
519.7989	0.2	hqblxjr	52	verb	list	1	8	nomatch	moins	-1	1	p	0.53325
519.9994	0.0	+	52	verb	list	1	9	nomatch	moins	-1	1	p	0.53325
520.3992999999999	0.2	parader	52	verb	list	1	10	nomatch	moins	-1	1	p	0.53325
520.5985	0.0	+	52	verb	list	1	11	nomatch	moins	-1	1	p	0.53325
520.9984	0.0	+	52	verb	list	1	12	nomatch	moins	-1	1	p	0.53325
522.9975	0.0	MOINS	52	verb	list	1	13	nomatch	moins	-1	1	p	0.53325
523.5971999999999	0.0	+	52	verb	list	1	14	nomatch	moins	-1	1	p	0.53325
523.5307	0.0	[response]	52	verb	list	1	15	nomatch	moins	-1	1	p	0.53325
525.3964	0.0	+	53	verb	phrase	3	1	nomatch	nager	-1	1	p	0.80014
525.9462	0.2	zdj	53	verb	phrase	3	2	nomatch	nager	-1	1	p	0.80014
526.1460999999999	0.0	+	53	verb	phrase	3	3	nomatch	nager	-1	1	p	0.80014
526.5459	0.2	rmjd	53	verb	phrase	3	4	nomatch	nager	-1	1	p	0.80014
526.7458	0.0	+	53	verb	phrase	3	5	nomatch	nager	-1	1	p	0.80014
527.1625	0.2	doit	53	verb	phrase	3	6	nomatch	nager	-1	1	p	0.80014
527.3456	0.0	+	53	verb	phrase	3	7	nomatch	nager	-1	1	p	0.80014
527.7461	0.2	beaucoup	53	verb	phrase	3	8	nomatch	nager	-1	1	p	0.80014
527.9453	0.0	+	53	verb	phrase	3	9	nomatch	nager	-1	1	p	0.80014
528.3451	0.2	chasser	53	verb	phrase	3	10	nomatch	nager	-1	1	p	0.80014
528.5450999999999	0.0	+	53	verb	phrase	3	11	nomatch	nager	-1	1	p	0.80014
528.9449	0.0	+	53	verb	phrase	3	12	nomatch	nager	-1	1	p	0.80014
530.9442	0.0	NAGER	53	verb	phrase	3	13	nomatch	nager	-1	1	p	0.80014
531.8103	0.0	+	53	verb	phrase	3	14	nomatch	nager	-1	1	p	0.80014
531.7444	0.0	[response]	53	verb	phrase	3	15	nomatch	nager	-1	1	p	0.80014
533.3429	0.0	+	54	verb	phrase	1	1	nomatch	vite	-1	1	p	0.56188
533.8931	0.2	gwzkq	54	verb	phrase	1	2	nomatch	vite	-1	1	p	0.56188
534.11	0.0	+	54	verb	phrase	1	3	nomatch	vite	-1	1	p	0.56188
534.4929	0.2	hgvw	54	verb	phrase	1	4	nomatch	vite	-1	1	p	0.56188
534.6922999999999	0.0	+	54	verb	phrase	1	5	nomatch	vite	-1	1	p	0.56188
535.0928	0.2	vzgp	54	verb	phrase	1	6	nomatch	vite	-1	1	p	0.56188
535.2921	0.0	+	54	verb	phrase	1	7	nomatch	vite	-1	1	p	0.56188
535.6919	0.2	nxps	54	verb	phrase	1	8	nomatch	vite	-1	1	p	0.56188
535.8918	0.0	+	54	verb	phrase	1	9	nomatch	vite	-1	1	p	0.56188
536.2916	0.2	plonger	54	verb	phrase	1	10	nomatch	vite	-1	1	p	0.56188
536.4916	0.0	+	54	verb	phrase	1	11	nomatch	vite	-1	1	p	0.56188
536.8914	0.0	+	54	verb	phrase	1	12	nomatch	vite	-1	1	p	0.56188
538.8905	0.0	VITE	54	verb	phrase	1	13	nomatch	vite	-1	1	p	0.56188
539.5069	0.0	+	54	verb	phrase	1	14	nomatch	vite	-1	1	p	0.56188
539.4524	0.0	[response]	54	verb	phrase	1	15	nomatch	vite	-1	1	p	0.56188
541.2894	0.0	+	55	noun	phrase	1	1	match	noir	5	1	y	0.48027
541.8392	0.2	pxncq	55	noun	phrase	1	2	match	noir	5	1	y	0.48027
542.0391	0.0	+	55	noun	phrase	1	3	match	noir	5	1	y	0.48027
542.4389	0.2	dtsr	55	noun	phrase	1	4	match	noir	5	1	y	0.48027
542.6388	0.0	+	55	noun	phrase	1	5	match	noir	5	1	y	0.48027
543.0387	0.2	ldk	55	noun	phrase	1	6	match	noir	5	1	y	0.48027
543.2387	0.0	+	55	noun	phrase	1	7	match	noir	5	1	y	0.48027
543.6383999999999	0.2	cjzhfmw	55	noun	phrase	1	8	match	noir	5	1	y	0.48027
543.8385	0.0	+	55	noun	phrase	1	9	match	noir	5	1	y	0.48027
544.2381	0.2	noir	55	noun	phrase	1	10	match	noir	5	1	y	0.48027
544.4381	0.0	+	55	noun	phrase	1	11	match	noir	5	1	y	0.48027
544.8379	0.0	+	55	noun	phrase	1	12	match	noir	5	1	y	0.48027
546.837	0.0	NOIR	55	noun	phrase	1	13	match	noir	5	1	y	0.48027
547.3701	0.0	+	55	noun	phrase	1	14	match	noir	5	1	y	0.48027
547.3172999999999	0.0	[response]	55	noun	phrase	1	15	match	noir	5	1	y	0.48027
549.2359	0.0	+	56	noun	list	2	1	match	tablier	4	1	y	0.44108
549.7857	0.2	dkt	56	noun	list	2	2	match	tablier	4	1	y	0.44108
549.9856	0.0	+	56	noun	list	2	3	match	tablier	4	1	y	0.44108
550.3854	0.2	kxqr	56	noun	list	2	4	match	tablier	4	1	y	0.44108
550.5853999999999	0.0	+	56	noun	list	2	5	match	tablier	4	1	y	0.44108
550.9852	0.2	vzgp	56	noun	list	2	6	match	tablier	4	1	y	0.44108
551.1851	0.0	+	56	noun	list	2	7	match	tablier	4	1	y	0.44108
551.5849	0.2	tablier	56	noun	list	2	8	match	tablier	4	1	y	0.44108
551.7848	0.0	+	56	noun	list	2	9	match	tablier	4	1	y	0.44108
552.1845999999999	0.2	tôt	56	noun	list	2	10	match	tablier	4	1	y	0.44108
552.3846	0.0	+	56	noun	list	2	11	match	tablier	4	1	y	0.44108
552.7844	0.0	+	56	noun	list	2	12	match	tablier	4	1	y	0.44108
554.8002	0.0	TABLIER	56	noun	list	2	13	match	tablier	4	1	y	0.44108
555.3	0.0	+	56	noun	list	2	14	match	tablier	4	1	y	0.44108
555.2411999999999	0.0	[response]	56	noun	list	2	15	match	tablier	4	1	y	0.44108
565.1956	0.0	+	57	verb	phrase	3	1	nomatch	beaucoup	-1	1	p	0.6051900000000001
565.7454	0.2	tgfd	57	verb	phrase	3	2	nomatch	beaucoup	-1	1	p	0.6051900000000001
565.9453	0.0	+	57	verb	phrase	3	3	nomatch	beaucoup	-1	1	p	0.6051900000000001
566.3451	0.2	rmjd	57	verb	phrase	3	4	nomatch	beaucoup	-1	1	p	0.6051900000000001
566.545	0.0	+	57	verb	phrase	3	5	nomatch	beaucoup	-1	1	p	0.6051900000000001
566.9448	0.2	va	57	verb	phrase	3	6	nomatch	beaucoup	-1	1	p	0.6051900000000001
567.1447	0.0	+	57	verb	phrase	3	7	nomatch	beaucoup	-1	1	p	0.6051900000000001
567.5446	0.2	moins	57	verb	phrase	3	8	nomatch	beaucoup	-1	1	p	0.6051900000000001
567.7445	0.0	+	57	verb	phrase	3	9	nomatch	beaucoup	-1	1	p	0.6051900000000001
568.1442999999999	0.2	nager	57	verb	phrase	3	10	nomatch	beaucoup	-1	1	p	0.6051900000000001
568.3442	0.0	+	57	verb	phrase	3	11	nomatch	beaucoup	-1	1	p	0.6051900000000001
568.744	0.0	+	57	verb	phrase	3	12	nomatch	beaucoup	-1	1	p	0.6051900000000001
570.7432	0.0	BEAUCOUP	57	verb	phrase	3	13	nomatch	beaucoup	-1	1	p	0.6051900000000001
571.4095	0.0	+	57	verb	phrase	3	14	nomatch	beaucoup	-1	1	p	0.6051900000000001
571.3483	0.0	[response]	57	verb	phrase	3	15	nomatch	beaucoup	-1	1	p	0.6051900000000001
573.1421	0.0	+	58	verb	list	4	1	match	bleu	5	1	y	0.51147
573.6918	0.2	kxmph	58	verb	list	4	2	match	bleu	5	1	y	0.51147
573.8918	0.0	+	58	verb	list	4	3	match	bleu	5	1	y	0.51147
574.2916	0.2	jade	58	verb	list	4	4	match	bleu	5	1	y	0.51147
574.4915	0.0	+	58	verb	list	4	5	match	bleu	5	1	y	0.51147
574.8913	0.2	son	58	verb	list	4	6	match	bleu	5	1	y	0.51147
575.0912	0.0	+	58	verb	list	4	7	match	bleu	5	1	y	0.51147
575.4913	0.2	danser	58	verb	list	4	8	match	bleu	5	1	y	0.51147
575.691	0.0	+	58	verb	list	4	9	match	bleu	5	1	y	0.51147
576.0914	0.2	bleu	58	verb	list	4	10	match	bleu	5	1	y	0.51147
576.2907	0.0	+	58	verb	list	4	11	match	bleu	5	1	y	0.51147
576.6912	0.0	+	58	verb	list	4	12	match	bleu	5	1	y	0.51147
578.6895999999999	0.0	BLEU	58	verb	list	4	13	match	bleu	5	1	y	0.51147
579.3228	0.0	+	58	verb	list	4	14	match	bleu	5	1	y	0.51147
579.2011000000001	0.0	[response]	58	verb	list	4	15	match	bleu	5	1	y	0.51147
581.0885999999999	0.0	+	59	verb	phrase	1	1	match	mieux	5	1	y	0.41093
581.6383999999999	0.2	sxvbm	59	verb	phrase	1	2	match	mieux	5	1	y	0.41093
581.8383	0.0	+	59	verb	phrase	1	3	match	mieux	5	1	y	0.41093
582.2381	0.2	pfmr	59	verb	phrase	1	4	match	mieux	5	1	y	0.41093
582.438	0.0	+	59	verb	phrase	1	5	match	mieux	5	1	y	0.41093
582.8378	0.2	vzgp	59	verb	phrase	1	6	match	mieux	5	1	y	0.41093
583.0379	0.0	+	59	verb	phrase	1	7	match	mieux	5	1	y	0.41093
583.4381999999999	0.2	lgnmjqd	59	verb	phrase	1	8	match	mieux	5	1	y	0.41093
583.6546999999999	0.0	+	59	verb	phrase	1	9	match	mieux	5	1	y	0.41093
584.0379	0.2	mieux	59	verb	phrase	1	10	match	mieux	5	1	y	0.41093
584.2373	0.0	+	59	verb	phrase	1	11	match	mieux	5	1	y	0.41093
584.637	0.0	+	59	verb	phrase	1	12	match	mieux	5	1	y	0.41093
586.6362	0.0	MIEUX	59	verb	phrase	1	13	match	mieux	5	1	y	0.41093
587.1025999999999	0.0	+	59	verb	phrase	1	14	match	mieux	5	1	y	0.41093
587.0471000000001	0.0	[response]	59	verb	phrase	1	15	match	mieux	5	1	y	0.41093
589.0350999999999	0.0	+	60	verb	list	4	1	match	yves	2	1	y	0.6617200000000001
589.5849	0.2	zjwgvkf	60	verb	list	4	2	match	yves	2	1	y	0.6617200000000001
589.7848	0.0	+	60	verb	list	4	3	match	yves	2	1	y	0.6617200000000001
590.1845999999999	0.2	yves	60	verb	list	4	4	match	yves	2	1	y	0.6617200000000001
590.3845	0.0	+	60	verb	list	4	5	match	yves	2	1	y	0.6617200000000001
590.7843	0.2	leur	60	verb	list	4	6	match	yves	2	1	y	0.6617200000000001
590.9842	0.0	+	60	verb	list	4	7	match	yves	2	1	y	0.6617200000000001
591.3841	0.2	parader	60	verb	list	4	8	match	yves	2	1	y	0.6617200000000001
591.584	0.0	+	60	verb	list	4	9	match	yves	2	1	y	0.6617200000000001
591.9838	0.2	noir	60	verb	list	4	10	match	yves	2	1	y	0.6617200000000001
592.1836999999999	0.0	+	60	verb	list	4	11	match	yves	2	1	y	0.6617200000000001
592.5837	0.0	+	60	verb	list	4	12	match	yves	2	1	y	0.6617200000000001
594.5993	0.0	YVES	60	verb	list	4	13	match	yves	2	1	y	0.6617200000000001
595.3157	0.0	+	60	verb	list	4	14	match	yves	2	1	y	0.6617200000000001
595.261	0.0	[response]	60	verb	list	4	15	match	yves	2	1	y	0.6617200000000001
596.9983	0.0	+	61	noun	list	2	1	nomatch	adam	-1	1	p	0.51619
597.548	0.2	qgtc	61	noun	list	2	2	nomatch	adam	-1	1	p	0.51619
597.7479	0.0	+	61	noun	list	2	3	nomatch	adam	-1	1	p	0.51619
598.1478	0.2	dsv	61	noun	list	2	4	nomatch	adam	-1	1	p	0.51619
598.3477	0.0	+	61	noun	list	2	5	nomatch	adam	-1	1	p	0.51619
598.7475	0.2	hfs	61	noun	list	2	6	nomatch	adam	-1	1	p	0.51619
598.9474	0.0	+	61	noun	list	2	7	nomatch	adam	-1	1	p	0.51619
599.3471999999999	0.2	trop	61	noun	list	2	8	nomatch	adam	-1	1	p	0.51619
599.5472	0.0	+	61	noun	list	2	9	nomatch	adam	-1	1	p	0.51619
599.947	0.2	voilier	61	noun	list	2	10	nomatch	adam	-1	1	p	0.51619
600.1472	0.0	+	61	noun	list	2	11	nomatch	adam	-1	1	p	0.51619
600.5467	0.0	+	61	noun	list	2	12	nomatch	adam	-1	1	p	0.51619
602.5458	0.0	ADAM	61	noun	list	2	13	nomatch	adam	-1	1	p	0.51619
603.1791	0.0	+	61	noun	list	2	14	nomatch	adam	-1	1	p	0.51619
603.062	0.0	[response]	61	noun	list	2	15	nomatch	adam	-1	1	p	0.51619
604.9448	0.0	+	62	noun	phrase	2	1	nomatch	yves	-1	1	p	0.74179
605.4945	0.2	wmfhz	62	noun	phrase	2	2	nomatch	yves	-1	1	p	0.74179
605.6944	0.0	+	62	noun	phrase	2	3	nomatch	yves	-1	1	p	0.74179
606.0943	0.2	njr	62	noun	phrase	2	4	nomatch	yves	-1	1	p	0.74179
606.2941999999999	0.0	+	62	noun	phrase	2	5	nomatch	yves	-1	1	p	0.74179
606.694	0.2	ldk	62	noun	phrase	2	6	nomatch	yves	-1	1	p	0.74179
606.8939	0.0	+	62	noun	phrase	2	7	nomatch	yves	-1	1	p	0.74179
607.2943	0.2	vieux	62	noun	phrase	2	8	nomatch	yves	-1	1	p	0.74179
607.4937	0.0	+	62	noun	phrase	2	9	nomatch	yves	-1	1	p	0.74179
607.894	0.2	tablier	62	noun	phrase	2	10	nomatch	yves	-1	1	p	0.74179
608.0934	0.0	+	62	noun	phrase	2	11	nomatch	yves	-1	1	p	0.74179
608.4932	0.0	+	62	noun	phrase	2	12	nomatch	yves	-1	1	p	0.74179
610.4923	0.0	YVES	62	noun	phrase	2	13	nomatch	yves	-1	1	p	0.74179
611.292	0.0	+	62	noun	phrase	2	14	nomatch	yves	-1	1	p	0.74179
611.2341	0.0	[response]	62	noun	phrase	2	15	nomatch	yves	-1	1	p	0.74179
612.8913	0.0	+	63	verb	phrase	2	1	match	rouler	4	1	y	0.59803
613.441	0.2	thcfml	63	verb	phrase	2	2	match	rouler	4	1	y	0.59803
613.6409	0.0	+	63	verb	phrase	2	3	match	rouler	4	1	y	0.59803
614.0413	0.2	lnpz	63	verb	phrase	2	4	match	rouler	4	1	y	0.59803
614.2414	0.0	+	63	verb	phrase	2	5	match	rouler	4	1	y	0.59803
614.6410999999999	0.2	vzgp	63	verb	phrase	2	6	match	rouler	4	1	y	0.59803
614.841	0.0	+	63	verb	phrase	2	7	match	rouler	4	1	y	0.59803
615.2402	0.2	rouler	63	verb	phrase	2	8	match	rouler	4	1	y	0.59803
615.4402	0.0	+	63	verb	phrase	2	9	match	rouler	4	1	y	0.59803
615.84	0.2	ainsi	63	verb	phrase	2	10	match	rouler	4	1	y	0.59803
616.0399	0.0	+	63	verb	phrase	2	11	match	rouler	4	1	y	0.59803
616.4397	0.0	+	63	verb	phrase	2	12	match	rouler	4	1	y	0.59803
618.4388	0.0	ROULER	63	verb	phrase	2	13	match	rouler	4	1	y	0.59803
619.1391	0.0	+	63	verb	phrase	2	14	match	rouler	4	1	y	0.59803
619.0369	0.0	[response]	63	verb	phrase	2	15	match	rouler	4	1	y	0.59803
620.8378	0.0	+	64	verb	phrase	4	1	match	plus	4	1	y	0.5773
621.3874999999999	0.2	thj	64	verb	phrase	4	2	match	plus	4	1	y	0.5773
621.5874	0.0	+	64	verb	phrase	4	3	match	plus	4	1	y	0.5773
621.9873	0.2	marc	64	verb	phrase	4	4	match	plus	4	1	y	0.5773
622.1872	0.0	+	64	verb	phrase	4	5	match	plus	4	1	y	0.5773
622.587	0.2	doit	64	verb	phrase	4	6	match	plus	4	1	y	0.5773
622.7869	0.0	+	64	verb	phrase	4	7	match	plus	4	1	y	0.5773
623.204	0.2	plus	64	verb	phrase	4	8	match	plus	4	1	y	0.5773
623.3871	0.0	+	64	verb	phrase	4	9	match	plus	4	1	y	0.5773
623.7866	0.2	danser	64	verb	phrase	4	10	match	plus	4	1	y	0.5773
623.9864	0.0	+	64	verb	phrase	4	11	match	plus	4	1	y	0.5773
624.3865999999999	0.0	+	64	verb	phrase	4	12	match	plus	4	1	y	0.5773
626.3853	0.0	PLUS	64	verb	phrase	4	13	match	plus	4	1	y	0.5773
627.0183999999999	0.0	+	64	verb	phrase	4	14	match	plus	4	1	y	0.5773
626.9626	0.0	[response]	64	verb	phrase	4	15	match	plus	4	1	y	0.5773
628.7843	0.0	+	65	noun	list	2	1	match	moins	4	1	y	0.71811
629.3341	0.2	gcvsk	65	noun	list	2	2	match	moins	4	1	y	0.71811
629.5343	0.0	+	65	noun	list	2	3	match	moins	4	1	y	0.71811
629.9342	0.2	dsv	65	noun	list	2	4	match	moins	4	1	y	0.71811
630.1337	0.0	+	65	noun	list	2	5	match	moins	4	1	y	0.71811
630.5336	0.2	ldk	65	noun	list	2	6	match	moins	4	1	y	0.71811
630.7501	0.0	+	65	noun	list	2	7	match	moins	4	1	y	0.71811
631.1499	0.2	moins	65	noun	list	2	8	match	moins	4	1	y	0.71811
631.3498	0.0	+	65	noun	list	2	9	match	moins	4	1	y	0.71811
631.7496	0.2	grenier	65	noun	list	2	10	match	moins	4	1	y	0.71811
631.9496	0.0	+	65	noun	list	2	11	match	moins	4	1	y	0.71811
632.3661999999999	0.0	+	65	noun	list	2	12	match	moins	4	1	y	0.71811
634.3485	0.0	MOINS	65	noun	list	2	13	match	moins	4	1	y	0.71811
635.1315	0.0	+	65	noun	list	2	14	match	moins	4	1	y	0.71811
635.0666000000001	0.0	[response]	65	noun	list	2	15	match	moins	4	1	y	0.71811
636.7475	0.0	+	66	verb	list	1	1	match	nager	5	1	y	0.39124
637.2972	0.2	fzkwg	66	verb	list	1	2	match	nager	5	1	y	0.39124
637.4970999999999	0.0	+	66	verb	list	1	3	match	nager	5	1	y	0.39124
637.8969999999999	0.2	lnvt	66	verb	list	1	4	match	nager	5	1	y	0.39124
638.0969	0.0	+	66	verb	list	1	5	match	nager	5	1	y	0.39124
638.4967	0.2	vzgp	66	verb	list	1	6	match	nager	5	1	y	0.39124
638.6972999999999	0.0	+	66	verb	list	1	7	match	nager	5	1	y	0.39124
639.0964	0.2	bdkwc	66	verb	list	1	8	match	nager	5	1	y	0.39124
639.2963	0.0	+	66	verb	list	1	9	match	nager	5	1	y	0.39124
639.6962	0.2	nager	66	verb	list	1	10	match	nager	5	1	y	0.39124
639.8960999999999	0.0	+	66	verb	list	1	11	match	nager	5	1	y	0.39124
640.2959	0.0	+	66	verb	list	1	12	match	nager	5	1	y	0.39124
642.295	0.0	NAGER	66	verb	list	1	13	match	nager	5	1	y	0.39124
642.7447999999999	0.0	+	66	verb	list	1	14	match	nager	5	1	y	0.39124
642.6863000000001	0.0	[response]	66	verb	list	1	15	match	nager	5	1	y	0.39124
644.694	0.0	+	67	verb	list	4	1	match	leur	3	1	y	0.45256
645.2437	0.2	jhlpkqt	67	verb	list	4	2	match	leur	3	1	y	0.45256
645.4436	0.0	+	67	verb	list	4	3	match	leur	3	1	y	0.45256
645.8434	0.2	paul	67	verb	list	4	4	match	leur	3	1	y	0.45256
646.0434	0.0	+	67	verb	list	4	5	match	leur	3	1	y	0.45256
646.4431999999999	0.2	leur	67	verb	list	4	6	match	leur	3	1	y	0.45256
646.6431	0.0	+	67	verb	list	4	7	match	leur	3	1	y	0.45256
647.0432	0.2	jongler	67	verb	list	4	8	match	leur	3	1	y	0.45256
647.2428	0.0	+	67	verb	list	4	9	match	leur	3	1	y	0.45256
647.6433	0.2	rouge	67	verb	list	4	10	match	leur	3	1	y	0.45256
647.8426	0.0	+	67	verb	list	4	11	match	leur	3	1	y	0.45256
648.2424	0.0	+	67	verb	list	4	12	match	leur	3	1	y	0.45256
650.2415	0.0	LEUR	67	verb	list	4	13	match	leur	3	1	y	0.45256
650.7579999999999	0.0	+	67	verb	list	4	14	match	leur	3	1	y	0.45256
650.6940999999999	0.0	[response]	67	verb	list	4	15	match	leur	3	1	y	0.45256
652.6405	0.0	+	68	verb	list	1	1	nomatch	beau	-1	1	p	0.9217
653.1902	0.2	gpwr	68	verb	list	1	2	nomatch	beau	-1	1	p	0.9217
653.3901	0.0	+	68	verb	list	1	3	nomatch	beau	-1	1	p	0.9217
653.79	0.2	dtsr	68	verb	list	1	4	nomatch	beau	-1	1	p	0.9217
653.9899	0.0	+	68	verb	list	1	5	nomatch	beau	-1	1	p	0.9217
654.3897	0.2	vzgp	68	verb	list	1	6	nomatch	beau	-1	1	p	0.9217
654.5896	0.0	+	68	verb	list	1	7	nomatch	beau	-1	1	p	0.9217
654.9893999999999	0.2	cfmhptg	68	verb	list	1	8	nomatch	beau	-1	1	p	0.9217
655.1893	0.0	+	68	verb	list	1	9	nomatch	beau	-1	1	p	0.9217
655.5892	0.2	grand	68	verb	list	1	10	nomatch	beau	-1	1	p	0.9217
655.7891	0.0	+	68	verb	list	1	11	nomatch	beau	-1	1	p	0.9217
656.1889	0.0	+	68	verb	list	1	12	nomatch	beau	-1	1	p	0.9217
658.188	0.0	BEAU	68	verb	list	1	13	nomatch	beau	-1	1	p	0.9217
659.2875	0.0	+	68	verb	list	1	14	nomatch	beau	-1	1	p	0.9217
659.1097000000001	0.0	[response]	68	verb	list	1	15	nomatch	beau	-1	1	p	0.9217
660.587	0.0	+	69	verb	list	2	1	match	plonger	5	1	y	0.58756
661.1367	0.2	fprbcn	69	verb	list	2	2	match	plonger	5	1	y	0.58756
661.3366	0.0	+	69	verb	list	2	3	match	plonger	5	1	y	0.58756
661.7365	0.2	lnmr	69	verb	list	2	4	match	plonger	5	1	y	0.58756
661.9363999999999	0.0	+	69	verb	list	2	5	match	plonger	5	1	y	0.58756
662.3362	0.2	jq	69	verb	list	2	6	match	plonger	5	1	y	0.58756
662.5529	0.0	+	69	verb	list	2	7	match	plonger	5	1	y	0.58756
662.936	0.2	petit	69	verb	list	2	8	match	plonger	5	1	y	0.58756
663.1359	0.0	+	69	verb	list	2	9	match	plonger	5	1	y	0.58756
663.5357	0.2	plonger	69	verb	list	2	10	match	plonger	5	1	y	0.58756
663.7356	0.0	+	69	verb	list	2	11	match	plonger	5	1	y	0.58756
664.1354	0.0	+	69	verb	list	2	12	match	plonger	5	1	y	0.58756
666.1345	0.0	PLONGER	69	verb	list	2	13	match	plonger	5	1	y	0.58756
666.8177	0.0	+	69	verb	list	2	14	match	plonger	5	1	y	0.58756
666.7221	0.0	[response]	69	verb	list	2	15	match	plonger	5	1	y	0.58756
668.5500999999999	0.0	+	70	verb	list	3	1	nomatch	jongler	-1	1	p	0.5854900000000001
669.0998999999999	0.2	mxrstl	70	verb	list	3	2	nomatch	jongler	-1	1	p	0.5854900000000001
669.2998	0.0	+	70	verb	list	3	3	nomatch	jongler	-1	1	p	0.5854900000000001
669.6996	0.2	dgpc	70	verb	list	3	4	nomatch	jongler	-1	1	p	0.5854900000000001
669.8995	0.0	+	70	verb	list	3	5	nomatch	jongler	-1	1	p	0.5854900000000001
670.2994	0.2	leur	70	verb	list	3	6	nomatch	jongler	-1	1	p	0.5854900000000001
670.4993	0.0	+	70	verb	list	3	7	nomatch	jongler	-1	1	p	0.5854900000000001
670.8991	0.2	danser	70	verb	list	3	8	nomatch	jongler	-1	1	p	0.5854900000000001
671.0993	0.0	+	70	verb	list	3	9	nomatch	jongler	-1	1	p	0.5854900000000001
671.4994	0.2	blanc	70	verb	list	3	10	nomatch	jongler	-1	1	p	0.5854900000000001
671.7159	0.0	+	70	verb	list	3	11	nomatch	jongler	-1	1	p	0.5854900000000001
672.0993	0.0	+	70	verb	list	3	12	nomatch	jongler	-1	1	p	0.5854900000000001
674.0977	0.0	JONGLER	70	verb	list	3	13	nomatch	jongler	-1	1	p	0.5854900000000001
674.7474	0.0	+	70	verb	list	3	14	nomatch	jongler	-1	1	p	0.5854900000000001
674.6831999999999	0.0	[response]	70	verb	list	3	15	nomatch	jongler	-1	1	p	0.5854900000000001
676.4966	0.0	+	71	verb	phrase	3	1	match	va	3	0	p	0.70316
677.0464	0.2	whbstx	71	verb	phrase	3	2	match	va	3	0	p	0.70316
677.2463	0.0	+	71	verb	phrase	3	3	match	va	3	0	p	0.70316
677.6460999999999	0.2	rtgc	71	verb	phrase	3	4	match	va	3	0	p	0.70316
677.846	0.0	+	71	verb	phrase	3	5	match	va	3	0	p	0.70316
678.2463	0.2	va	71	verb	phrase	3	6	match	va	3	0	p	0.70316
678.4458	0.0	+	71	verb	phrase	3	7	match	va	3	0	p	0.70316
678.8462999999999	0.2	mieux	71	verb	phrase	3	8	match	va	3	0	p	0.70316
679.0455	0.0	+	71	verb	phrase	3	9	match	va	3	0	p	0.70316
679.4453	0.2	plonger	71	verb	phrase	3	10	match	va	3	0	p	0.70316
679.6451999999999	0.0	+	71	verb	phrase	3	11	match	va	3	0	p	0.70316
680.0450999999999	0.0	+	71	verb	phrase	3	12	match	va	3	0	p	0.70316
682.0441999999999	0.0	VA	71	verb	phrase	3	13	match	va	3	0	p	0.70316
682.8104999999999	0.0	+	71	verb	phrase	3	14	match	va	3	0	p	0.70316
682.7474	0.0	[response]	71	verb	phrase	3	15	match	va	3	0	p	0.70316
684.4431	0.0	+	72	verb	list	2	1	nomatch	doit	-1	1	p	0.62042
684.9929	0.2	zbdqf	72	verb	list	2	2	nomatch	doit	-1	1	p	0.62042
685.1928	0.0	+	72	verb	list	2	3	nomatch	doit	-1	1	p	0.62042
685.5926	0.2	ptxf	72	verb	list	2	4	nomatch	doit	-1	1	p	0.62042
685.7926	0.0	+	72	verb	list	2	5	nomatch	doit	-1	1	p	0.62042
686.1924	0.2	vzgp	72	verb	list	2	6	nomatch	doit	-1	1	p	0.62042
686.3923	0.0	+	72	verb	list	2	7	nomatch	doit	-1	1	p	0.62042
686.7921	0.2	vieux	72	verb	list	2	8	nomatch	doit	-1	1	p	0.62042
686.992	0.0	+	72	verb	list	2	9	nomatch	doit	-1	1	p	0.62042
687.3924999999999	0.2	rouler	72	verb	list	2	10	nomatch	doit	-1	1	p	0.62042
687.609	0.0	+	72	verb	list	2	11	nomatch	doit	-1	1	p	0.62042
687.9916	0.0	+	72	verb	list	2	12	nomatch	doit	-1	1	p	0.62042
689.9907	0.0	DOIT	72	verb	list	2	13	nomatch	doit	-1	1	p	0.62042
690.6736999999999	0.0	+	72	verb	list	2	14	nomatch	doit	-1	1	p	0.62042
690.6111	0.0	[response]	72	verb	list	2	15	nomatch	doit	-1	1	p	0.62042
692.3896	0.0	+	73	verb	phrase	4	1	match	vite	5	0	p	0.54621
692.9394	0.2	pwqndz	73	verb	phrase	4	2	match	vite	5	0	p	0.54621
693.1392999999999	0.0	+	73	verb	phrase	4	3	match	vite	5	0	p	0.54621
693.5561	0.2	luc	73	verb	phrase	4	4	match	vite	5	0	p	0.54621
693.7391	0.0	+	73	verb	phrase	4	5	match	vite	5	0	p	0.54621
694.1389	0.2	peut	73	verb	phrase	4	6	match	vite	5	0	p	0.54621
694.3388	0.0	+	73	verb	phrase	4	7	match	vite	5	0	p	0.54621
694.7386	0.2	chasser	73	verb	phrase	4	8	match	vite	5	0	p	0.54621
694.9385	0.0	+	73	verb	phrase	4	9	match	vite	5	0	p	0.54621
695.3383	0.2	vite	73	verb	phrase	4	10	match	vite	5	0	p	0.54621
695.5382999999999	0.0	+	73	verb	phrase	4	11	match	vite	5	0	p	0.54621
695.9381	0.0	+	73	verb	phrase	4	12	match	vite	5	0	p	0.54621
697.9372	0.0	VITE	73	verb	phrase	4	13	match	vite	5	0	p	0.54621
698.537	0.0	+	73	verb	phrase	4	14	match	vite	5	0	p	0.54621
698.4834	0.0	[response]	73	verb	phrase	4	15	match	vite	5	0	p	0.54621
708.366	0.0	+	74	verb	phrase	1	1	match	trop	5	0	p	0.53238
708.8991	0.2	hzckpd	74	verb	phrase	1	2	match	trop	5	0	p	0.53238
709.0989999999999	0.0	+	74	verb	phrase	1	3	match	trop	5	0	p	0.53238
709.4988	0.2	dgpc	74	verb	phrase	1	4	match	trop	5	0	p	0.53238
709.6987	0.0	+	74	verb	phrase	1	5	match	trop	5	0	p	0.53238
710.0985	0.2	glhb	74	verb	phrase	1	6	match	trop	5	0	p	0.53238
710.2984	0.0	+	74	verb	phrase	1	7	match	trop	5	0	p	0.53238
710.6983	0.2	fztsqb	74	verb	phrase	1	8	match	trop	5	0	p	0.53238
710.8982	0.0	+	74	verb	phrase	1	9	match	trop	5	0	p	0.53238
711.298	0.2	trop	74	verb	phrase	1	10	match	trop	5	0	p	0.53238
711.4979	0.0	+	74	verb	phrase	1	11	match	trop	5	0	p	0.53238
711.8977	0.0	+	74	verb	phrase	1	12	match	trop	5	0	p	0.53238
713.8969	0.0	TROP	74	verb	phrase	1	13	match	trop	5	0	p	0.53238
714.5133	0.0	+	74	verb	phrase	1	14	match	trop	5	0	p	0.53238
714.4292	0.0	[response]	74	verb	phrase	1	15	match	trop	5	0	p	0.53238
716.2958	0.0	+	75	verb	list	2	1	match	danser	5	1	y	0.5779700000000001
716.8456	0.2	zfgw	75	verb	list	2	2	match	danser	5	1	y	0.5779700000000001
717.0455	0.0	+	75	verb	list	2	3	match	danser	5	1	y	0.5779700000000001
717.4453	0.2	dtsr	75	verb	list	2	4	match	danser	5	1	y	0.5779700000000001
717.6451999999999	0.0	+	75	verb	list	2	5	match	danser	5	1	y	0.5779700000000001
718.045	0.2	vzgp	75	verb	list	2	6	match	danser	5	1	y	0.5779700000000001
718.2449	0.0	+	75	verb	list	2	7	match	danser	5	1	y	0.5779700000000001
718.6455	0.2	nouveau	75	verb	list	2	8	match	danser	5	1	y	0.5779700000000001
718.8447	0.0	+	75	verb	list	2	9	match	danser	5	1	y	0.5779700000000001
719.2445	0.2	danser	75	verb	list	2	10	match	danser	5	1	y	0.5779700000000001
719.4444	0.0	+	75	verb	list	2	11	match	danser	5	1	y	0.5779700000000001
719.8442	0.0	+	75	verb	list	2	12	match	danser	5	1	y	0.5779700000000001
721.8434	0.0	DANSER	75	verb	list	2	13	match	danser	5	1	y	0.5779700000000001
722.4764	0.0	+	75	verb	list	2	14	match	danser	5	1	y	0.5779700000000001
722.4213	0.0	[response]	75	verb	list	2	15	match	danser	5	1	y	0.5779700000000001
724.2423	0.0	+	76	verb	list	4	1	nomatch	petit	-1	1	p	0.60059
724.7921	0.2	bvkqnlx	76	verb	list	4	2	nomatch	petit	-1	1	p	0.60059
724.992	0.0	+	76	verb	list	4	3	nomatch	petit	-1	1	p	0.60059
725.3918	0.2	dans	76	verb	list	4	4	nomatch	petit	-1	1	p	0.60059
725.5917	0.0	+	76	verb	list	4	5	nomatch	petit	-1	1	p	0.60059
725.9916	0.2	peut	76	verb	list	4	6	nomatch	petit	-1	1	p	0.60059
726.1915	0.0	+	76	verb	list	4	7	nomatch	petit	-1	1	p	0.60059
726.5912999999999	0.2	grand	76	verb	list	4	8	nomatch	petit	-1	1	p	0.60059
726.7914999999999	0.0	+	76	verb	list	4	9	nomatch	petit	-1	1	p	0.60059
727.191	0.2	parader	76	verb	list	4	10	nomatch	petit	-1	1	p	0.60059
727.3909	0.0	+	76	verb	list	4	11	nomatch	petit	-1	1	p	0.60059
727.7907	0.0	+	76	verb	list	4	12	nomatch	petit	-1	1	p	0.60059
729.7902	0.0	PETIT	76	verb	list	4	13	nomatch	petit	-1	1	p	0.60059
730.4901	0.0	+	76	verb	list	4	14	nomatch	petit	-1	1	p	0.60059
730.3908	0.0	[response]	76	verb	list	4	15	nomatch	petit	-1	1	p	0.60059
732.1888	0.0	+	77	verb	list	3	1	nomatch	son	-1	1	p	0.6432600000000002
732.7386	0.2	tgmnbvj	77	verb	list	3	2	nomatch	son	-1	1	p	0.6432600000000002
732.9392	0.0	+	77	verb	list	3	3	nomatch	son	-1	1	p	0.6432600000000002
733.3383	0.2	hgvw	77	verb	list	3	4	nomatch	son	-1	1	p	0.6432600000000002
733.5384	0.0	+	77	verb	list	3	5	nomatch	son	-1	1	p	0.6432600000000002
733.938	0.2	leur	77	verb	list	3	6	nomatch	son	-1	1	p	0.6432600000000002
734.1379	0.0	+	77	verb	list	3	7	nomatch	son	-1	1	p	0.6432600000000002
734.5378	0.2	rouler	77	verb	list	3	8	nomatch	son	-1	1	p	0.6432600000000002
734.7377	0.0	+	77	verb	list	3	9	nomatch	son	-1	1	p	0.6432600000000002
735.1374999999999	0.2	noir	77	verb	list	3	10	nomatch	son	-1	1	p	0.6432600000000002
735.3374	0.0	+	77	verb	list	3	11	nomatch	son	-1	1	p	0.6432600000000002
735.7372	0.0	+	77	verb	list	3	12	nomatch	son	-1	1	p	0.6432600000000002
737.7537	0.0	SON	77	verb	list	3	13	nomatch	son	-1	1	p	0.6432600000000002
738.4526999999999	0.0	+	77	verb	list	3	14	nomatch	son	-1	1	p	0.6432600000000002
738.3969999999999	0.0	[response]	77	verb	list	3	15	nomatch	son	-1	1	p	0.6432600000000002
740.1353	0.0	+	78	verb	list	2	1	match	voyager	4	1	y	0.64573
740.6851	0.2	rzv	78	verb	list	2	2	match	voyager	4	1	y	0.64573
740.885	0.0	+	78	verb	list	2	3	match	voyager	4	1	y	0.64573
741.2848	0.2	rmjd	78	verb	list	2	4	match	voyager	4	1	y	0.64573
741.4847	0.0	+	78	verb	list	2	5	match	voyager	4	1	y	0.64573
741.8845	0.2	hfs	78	verb	list	2	6	match	voyager	4	1	y	0.64573
742.0846	0.0	+	78	verb	list	2	7	match	voyager	4	1	y	0.64573
742.4846	0.2	voyager	78	verb	list	2	8	match	voyager	4	1	y	0.64573
742.6845999999999	0.0	+	78	verb	list	2	9	match	voyager	4	1	y	0.64573
743.0847	0.2	bleu	78	verb	list	2	10	match	voyager	4	1	y	0.64573
743.2846	0.0	+	78	verb	list	2	11	match	voyager	4	1	y	0.64573
743.6838	0.0	+	78	verb	list	2	12	match	voyager	4	1	y	0.64573
745.6995	0.0	VOYAGER	78	verb	list	2	13	match	voyager	4	1	y	0.64573
746.3992	0.0	+	78	verb	list	2	14	match	voyager	4	1	y	0.64573
746.3453000000001	0.0	[response]	78	verb	list	2	15	match	voyager	4	1	y	0.64573
748.0985	0.0	+	79	verb	phrase	3	1	nomatch	grand	-1	1	p	0.59469
748.6482	0.2	dbhw	79	verb	phrase	3	2	nomatch	grand	-1	1	p	0.59469
748.8480999999999	0.0	+	79	verb	phrase	3	3	nomatch	grand	-1	1	p	0.59469
749.2479999999999	0.2	rtgc	79	verb	phrase	3	4	nomatch	grand	-1	1	p	0.59469
749.4479	0.0	+	79	verb	phrase	3	5	nomatch	grand	-1	1	p	0.59469
749.8477	0.2	peut	79	verb	phrase	3	6	nomatch	grand	-1	1	p	0.59469
750.0476	0.0	+	79	verb	phrase	3	7	nomatch	grand	-1	1	p	0.59469
750.4475	0.2	parader	79	verb	phrase	3	8	nomatch	grand	-1	1	p	0.59469
750.6475	0.0	+	79	verb	phrase	3	9	nomatch	grand	-1	1	p	0.59469
751.0472	0.2	tôt	79	verb	phrase	3	10	nomatch	grand	-1	1	p	0.59469
751.2470999999999	0.0	+	79	verb	phrase	3	11	nomatch	grand	-1	1	p	0.59469
751.6469	0.0	+	79	verb	phrase	3	12	nomatch	grand	-1	1	p	0.59469
753.6460999999999	0.0	GRAND	79	verb	phrase	3	13	nomatch	grand	-1	1	p	0.59469
754.3457	0.0	+	79	verb	phrase	3	14	nomatch	grand	-1	1	p	0.59469
754.2407	0.0	[response]	79	verb	phrase	3	15	nomatch	grand	-1	1	p	0.59469
756.045	0.0	+	80	verb	phrase	2	1	nomatch	marc	-1	1	p	0.49026
756.5947	0.2	csm	80	verb	phrase	2	2	nomatch	marc	-1	1	p	0.49026
756.7947	0.0	+	80	verb	phrase	2	3	nomatch	marc	-1	1	p	0.49026
757.1945	0.2	dgpc	80	verb	phrase	2	4	nomatch	marc	-1	1	p	0.49026
757.3944	0.0	+	80	verb	phrase	2	5	nomatch	marc	-1	1	p	0.49026
757.7941999999999	0.2	jq	80	verb	phrase	2	6	nomatch	marc	-1	1	p	0.49026
757.9941	0.0	+	80	verb	phrase	2	7	nomatch	marc	-1	1	p	0.49026
758.3947	0.2	plus	80	verb	phrase	2	8	nomatch	marc	-1	1	p	0.49026
758.6111	0.0	+	80	verb	phrase	2	9	nomatch	marc	-1	1	p	0.49026
758.9937	0.2	nager	80	verb	phrase	2	10	nomatch	marc	-1	1	p	0.49026
759.1936	0.0	+	80	verb	phrase	2	11	nomatch	marc	-1	1	p	0.49026
759.5934	0.0	+	80	verb	phrase	2	12	nomatch	marc	-1	1	p	0.49026
761.5926	0.0	MARC	80	verb	phrase	2	13	nomatch	marc	-1	1	p	0.49026
762.1423	0.0	+	80	verb	phrase	2	14	nomatch	marc	-1	1	p	0.49026
763.9915	0.0	+	80	verb	phrase	2	15	nomatch	marc	-1	1	p	0.49026
765.0417	0.0	+	80	verb	phrase	2	16	nomatch	marc	-1	1	p	0.49026
765.141	0.0	+	80	verb	phrase	2	17	nomatch	marc	-1	1	p	0.49026
766.5237	0.0	+	80	verb	phrase	2	18	nomatch	marc	-1	1	p	0.49026
766.6237	0.0	+	80	verb	phrase	2	19	nomatch	marc	-1	1	p	0.49026
768.0064	0.0	+	80	verb	phrase	2	20	nomatch	marc	-1	1	p	0.49026
768.1064	0.0	+	80	verb	phrase	2	21	nomatch	marc	-1	1	p	0.49026
769.5224	0.0	+	80	verb	phrase	2	22	nomatch	marc	-1	1	p	0.49026
769.6224	0.0	+	80	verb	phrase	2	23	nomatch	marc	-1	1	p	0.49026
771.0217	0.0	+	80	verb	phrase	2	24	nomatch	marc	-1	1	p	0.49026
771.1217	0.0	+	80	verb	phrase	2	25	nomatch	marc	-1	1	p	0.49026
772.5210999999999	0.0	+	80	verb	phrase	2	26	nomatch	marc	-1	1	p	0.49026
772.621	0.0	+	80	verb	phrase	2	27	nomatch	marc	-1	1	p	0.49026
774.0205	0.0	+	80	verb	phrase	2	28	nomatch	marc	-1	1	p	0.49026
774.1204	0.0	+	80	verb	phrase	2	29	nomatch	marc	-1	1	p	0.49026
775.5198	0.0	+	80	verb	phrase	2	30	nomatch	marc	-1	1	p	0.49026
775.6197	0.0	+	80	verb	phrase	2	31	nomatch	marc	-1	1	p	0.49026
777.0191	0.0	+	80	verb	phrase	2	32	nomatch	marc	-1	1	p	0.49026
777.119	0.0	+	80	verb	phrase	2	33	nomatch	marc	-1	1	p	0.49026
778.5183999999999	0.0	+	80	verb	phrase	2	34	nomatch	marc	-1	1	p	0.49026
778.6184	0.0	+	80	verb	phrase	2	35	nomatch	marc	-1	1	p	0.49026
781.8836	0.0	+	80	verb	phrase	2	36	nomatch	marc	-1	1	p	0.49026
762.0828	0.0	[response]	80	verb	phrase	2	37	nomatch	marc	-1	1	p	0.49026
