onset	duration	stim	trial_number	trial_type	trial_structure	trial_length	sequential_position	probe_type	probe	probe_position	response_correct	response_key	response_time
0.06300000000000239	0.0	+	1	verb	phrase	1	1	nomatch	va	-1	1	p	0.61126
0.5461999999999989	0.2	vnqm	1	verb	phrase	1	2	nomatch	va	-1	1	p	0.61126
0.7460999999999984	0.0	+	1	verb	phrase	1	3	nomatch	va	-1	1	p	0.61126
1.1458999999999975	0.2	pfmr	1	verb	phrase	1	4	nomatch	va	-1	1	p	0.61126
1.345799999999997	0.0	+	1	verb	phrase	1	5	nomatch	va	-1	1	p	0.61126
1.745599999999996	0.2	glhb	1	verb	phrase	1	6	nomatch	va	-1	1	p	0.61126
1.9454999999999956	0.0	+	1	verb	phrase	1	7	nomatch	va	-1	1	p	0.61126
2.345399999999998	0.2	lgnmjqd	1	verb	phrase	1	8	nomatch	va	-1	1	p	0.61126
2.5452999999999975	0.0	+	1	verb	phrase	1	9	nomatch	va	-1	1	p	0.61126
2.9450999999999965	0.2	ainsi	1	verb	phrase	1	10	nomatch	va	-1	1	p	0.61126
3.144999999999996	0.0	+	1	verb	phrase	1	11	nomatch	va	-1	1	p	0.61126
3.544799999999995	0.0	+	1	verb	phrase	1	12	nomatch	va	-1	1	p	0.61126
5.543999999999997	0.0	VA	1	verb	phrase	1	13	nomatch	va	-1	1	p	0.61126
6.2102999999999895	0.0	+	1	verb	phrase	1	14	nomatch	va	-1	1	p	0.61126
6.155200000000008	0.0	[response]	1	verb	phrase	1	15	nomatch	va	-1	1	p	0.61126
7.9428999999999945	0.0	+	2	noun	phrase	4	1	match	leur	3	1	y	0.6432000000000001
8.4927	0.2	qlksxjb	2	noun	phrase	4	2	match	leur	3	1	y	0.6432000000000001
8.692599999999999	0.0	+	2	noun	phrase	4	3	match	leur	3	1	y	0.6432000000000001
9.092399999999998	0.2	pour	2	noun	phrase	4	4	match	leur	3	1	y	0.6432000000000001
9.292299999999997	0.0	+	2	noun	phrase	4	5	match	leur	3	1	y	0.6432000000000001
9.6922	0.2	leur	2	noun	phrase	4	6	match	leur	3	1	y	0.6432000000000001
9.8921	0.0	+	2	noun	phrase	4	7	match	leur	3	1	y	0.6432000000000001
10.291899999999998	0.2	beau	2	noun	phrase	4	8	match	leur	3	1	y	0.6432000000000001
10.491799999999998	0.0	+	2	noun	phrase	4	9	match	leur	3	1	y	0.6432000000000001
10.891599999999997	0.2	voilier	2	noun	phrase	4	10	match	leur	3	1	y	0.6432000000000001
11.091499999999996	0.0	+	2	noun	phrase	4	11	match	leur	3	1	y	0.6432000000000001
11.491399999999999	0.0	+	2	noun	phrase	4	12	match	leur	3	1	y	0.6432000000000001
13.490499999999983	0.0	LEUR	2	noun	phrase	4	13	match	leur	3	1	y	0.6432000000000001
14.19019999999999	0.0	+	2	noun	phrase	4	14	match	leur	3	1	y	0.6432000000000001
14.13369999999999	0.0	[response]	2	noun	phrase	4	15	match	leur	3	1	y	0.6432000000000001
15.889400000000009	0.0	+	3	noun	phrase	4	1	match	rocher	4	1	y	0.51693
16.439199999999985	0.2	hfdv	3	noun	phrase	4	2	match	rocher	4	1	y	0.51693
16.639799999999994	0.0	+	3	noun	phrase	4	3	match	rocher	4	1	y	0.51693
17.038899999999998	0.2	sur	3	noun	phrase	4	4	match	rocher	4	1	y	0.51693
17.238799999999983	0.0	+	3	noun	phrase	4	5	match	rocher	4	1	y	0.51693
17.639300000000006	0.2	mon	3	noun	phrase	4	6	match	rocher	4	1	y	0.51693
17.8386	0.0	+	3	noun	phrase	4	7	match	rocher	4	1	y	0.51693
18.2384	0.2	rocher	3	noun	phrase	4	8	match	rocher	4	1	y	0.51693
18.438299999999984	0.0	+	3	noun	phrase	4	9	match	rocher	4	1	y	0.51693
18.838099999999983	0.2	noir	3	noun	phrase	4	10	match	rocher	4	1	y	0.51693
19.037999999999997	0.0	+	3	noun	phrase	4	11	match	rocher	4	1	y	0.51693
19.4379	0.0	+	3	noun	phrase	4	12	match	rocher	4	1	y	0.51693
21.436999999999998	0.0	ROCHER	3	noun	phrase	4	13	match	rocher	4	1	y	0.51693
22.0201	0.0	+	3	noun	phrase	4	14	match	rocher	4	1	y	0.51693
21.95389999999999	0.0	[response]	3	noun	phrase	4	15	match	rocher	4	1	y	0.51693
23.835899999999995	0.0	+	4	noun	list	1	1	nomatch	paul	-1	1	p	0.52301
24.3857	0.2	jxv	4	noun	list	1	2	nomatch	paul	-1	1	p	0.52301
24.585599999999985	0.0	+	4	noun	list	1	3	nomatch	paul	-1	1	p	0.52301
24.985399999999984	0.2	rmjd	4	noun	list	1	4	nomatch	paul	-1	1	p	0.52301
25.185299999999998	0.0	+	4	noun	list	1	5	nomatch	paul	-1	1	p	0.52301
25.585599999999985	0.2	ldk	4	noun	list	1	6	nomatch	paul	-1	1	p	0.52301
25.785099999999986	0.0	+	4	noun	list	1	7	nomatch	paul	-1	1	p	0.52301
26.184899999999985	0.2	jsngrcz	4	noun	list	1	8	nomatch	paul	-1	1	p	0.52301
26.3848	0.0	+	4	noun	list	1	9	nomatch	paul	-1	1	p	0.52301
26.784599999999998	0.2	plus	4	noun	list	1	10	nomatch	paul	-1	1	p	0.52301
26.984499999999983	0.0	+	4	noun	list	1	11	nomatch	paul	-1	1	p	0.52301
27.384399999999985	0.0	+	4	noun	list	1	12	nomatch	paul	-1	1	p	0.52301
29.400099999999995	0.0	PAUL	4	noun	list	1	13	nomatch	paul	-1	1	p	0.52301
29.983199999999997	0.0	+	4	noun	list	1	14	nomatch	paul	-1	1	p	0.52301
29.923199999999994	0.0	[response]	4	noun	list	1	15	nomatch	paul	-1	1	p	0.52301
39.79559999999999	0.0	+	5	noun	list	2	1	nomatch	loin	-1	1	p	0.65747
40.345299999999995	0.2	wpdmt	5	noun	list	2	2	nomatch	loin	-1	1	p	0.65747
40.54529999999998	0.0	+	5	noun	list	2	3	nomatch	loin	-1	1	p	0.65747
40.94509999999998	0.2	lnvt	5	noun	list	2	4	nomatch	loin	-1	1	p	0.65747
41.144999999999996	0.0	+	5	noun	list	2	5	nomatch	loin	-1	1	p	0.65747
41.544799999999995	0.2	jq	5	noun	list	2	6	nomatch	loin	-1	1	p	0.65747
41.74470000000001	0.0	+	5	noun	list	2	7	nomatch	loin	-1	1	p	0.65747
42.14450000000001	0.2	clavier	5	noun	list	2	8	nomatch	loin	-1	1	p	0.65747
42.34439999999999	0.0	+	5	noun	list	2	9	nomatch	loin	-1	1	p	0.65747
42.744299999999996	0.2	tôt	5	noun	list	2	10	nomatch	loin	-1	1	p	0.65747
42.94420000000001	0.0	+	5	noun	list	2	11	nomatch	loin	-1	1	p	0.65747
43.34400000000001	0.0	+	5	noun	list	2	12	nomatch	loin	-1	1	p	0.65747
45.34310000000001	0.0	LOIN	5	noun	list	2	13	nomatch	loin	-1	1	p	0.65747
46.0595	0.0	+	5	noun	list	2	14	nomatch	loin	-1	1	p	0.65747
46.000600000000006	0.0	[response]	5	noun	list	2	15	nomatch	loin	-1	1	p	0.65747
47.74210000000001	0.0	+	6	noun	list	4	1	match	beaucoup	4	1	y	0.64208
48.29180000000001	0.2	gpfvd	6	noun	list	4	2	match	beaucoup	4	1	y	0.64208
48.4918	0.0	+	6	noun	list	4	3	match	beaucoup	4	1	y	0.64208
48.8916	0.2	jade	6	noun	list	4	4	match	beaucoup	4	1	y	0.64208
49.10879999999999	0.0	+	6	noun	list	4	5	match	beaucoup	4	1	y	0.64208
49.49210000000001	0.2	mon	6	noun	list	4	6	match	beaucoup	4	1	y	0.64208
49.691199999999995	0.0	+	6	noun	list	4	7	match	beaucoup	4	1	y	0.64208
50.090999999999994	0.2	beaucoup	6	noun	list	4	8	match	beaucoup	4	1	y	0.64208
50.291399999999996	0.0	+	6	noun	list	4	9	match	beaucoup	4	1	y	0.64208
50.69080000000001	0.2	rocher	6	noun	list	4	10	match	beaucoup	4	1	y	0.64208
50.890699999999995	0.0	+	6	noun	list	4	11	match	beaucoup	4	1	y	0.64208
51.290499999999994	0.0	+	6	noun	list	4	12	match	beaucoup	4	1	y	0.64208
53.28959999999999	0.0	BEAUCOUP	6	noun	list	4	13	match	beaucoup	4	1	y	0.64208
54.02290000000001	0.0	+	6	noun	list	4	14	match	beaucoup	4	1	y	0.64208
53.93169999999999	0.0	[response]	6	noun	list	4	15	match	beaucoup	4	1	y	0.64208
63.71839999999999	0.0	+	7	noun	phrase	1	1	match	rouge	5	1	y	0.51989
64.23530000000001	0.2	rzfmd	7	noun	phrase	1	2	match	rouge	5	1	y	0.51989
64.4347	0.0	+	7	noun	phrase	1	3	match	rouge	5	1	y	0.51989
64.83460000000001	0.2	ptxf	7	noun	phrase	1	4	match	rouge	5	1	y	0.51989
65.0345	0.0	+	7	noun	phrase	1	5	match	rouge	5	1	y	0.51989
65.43489999999998	0.2	ldk	7	noun	phrase	1	6	match	rouge	5	1	y	0.51989
65.6513	0.0	+	7	noun	phrase	1	7	match	rouge	5	1	y	0.51989
66.0508	0.2	jsngrcz	7	noun	phrase	1	8	match	rouge	5	1	y	0.51989
66.23469999999999	0.0	+	7	noun	phrase	1	9	match	rouge	5	1	y	0.51989
66.6338	0.2	rouge	7	noun	phrase	1	10	match	rouge	5	1	y	0.51989
66.83370000000001	0.0	+	7	noun	phrase	1	11	match	rouge	5	1	y	0.51989
67.23360000000001	0.0	+	7	noun	phrase	1	12	match	rouge	5	1	y	0.51989
69.24929999999999	0.0	ROUGE	7	noun	phrase	1	13	match	rouge	5	1	y	0.51989
69.83239999999999	0.0	+	7	noun	phrase	1	14	match	rouge	5	1	y	0.51989
69.7692	0.0	[response]	7	noun	phrase	1	15	match	rouge	5	1	y	0.51989
71.64819999999999	0.0	+	8	noun	list	2	1	match	beaucoup	4	1	y	0.50322
72.198	0.2	knwsv	8	noun	list	2	2	match	beaucoup	4	1	y	0.50322
72.3979	0.0	+	8	noun	list	2	3	match	beaucoup	4	1	y	0.50322
72.7977	0.2	rmjd	8	noun	list	2	4	match	beaucoup	4	1	y	0.50322
72.99819999999998	0.0	+	8	noun	list	2	5	match	beaucoup	4	1	y	0.50322
73.3975	0.2	wvrh	8	noun	list	2	6	match	beaucoup	4	1	y	0.50322
73.59759999999999	0.0	+	8	noun	list	2	7	match	beaucoup	4	1	y	0.50322
73.9978	0.2	beaucoup	8	noun	list	2	8	match	beaucoup	4	1	y	0.50322
74.2143	0.0	+	8	noun	list	2	9	match	beaucoup	4	1	y	0.50322
74.59689999999999	0.2	sablier	8	noun	list	2	10	match	beaucoup	4	1	y	0.50322
74.7968	0.0	+	8	noun	list	2	11	match	beaucoup	4	1	y	0.50322
75.1967	0.0	+	8	noun	list	2	12	match	beaucoup	4	1	y	0.50322
77.1958	0.0	BEAUCOUP	8	noun	list	2	13	match	beaucoup	4	1	y	0.50322
77.76219999999999	0.0	+	8	noun	list	2	14	match	beaucoup	4	1	y	0.50322
77.699	0.0	[response]	8	noun	list	2	15	match	beaucoup	4	1	y	0.50322
79.5947	0.0	+	9	verb	phrase	4	1	nomatch	casier	-1	1	p	0.50824
80.14450000000001	0.2	vchrs	9	verb	phrase	4	2	nomatch	casier	-1	1	p	0.50824
80.3444	0.0	+	9	verb	phrase	4	3	nomatch	casier	-1	1	p	0.50824
80.7446	0.2	luc	9	verb	phrase	4	4	nomatch	casier	-1	1	p	0.50824
80.9441	0.0	+	9	verb	phrase	4	5	nomatch	casier	-1	1	p	0.50824
81.34400000000001	0.2	va	9	verb	phrase	4	6	nomatch	casier	-1	1	p	0.50824
81.5439	0.0	+	9	verb	phrase	4	7	nomatch	casier	-1	1	p	0.50824
81.94369999999999	0.2	nager	9	verb	phrase	4	8	nomatch	casier	-1	1	p	0.50824
82.1436	0.0	+	9	verb	phrase	4	9	nomatch	casier	-1	1	p	0.50824
82.5434	0.2	tôt	9	verb	phrase	4	10	nomatch	casier	-1	1	p	0.50824
82.7437	0.0	+	9	verb	phrase	4	11	nomatch	casier	-1	1	p	0.50824
83.1433	0.0	+	9	verb	phrase	4	12	nomatch	casier	-1	1	p	0.50824
85.14229999999999	0.0	CASIER	9	verb	phrase	4	13	nomatch	casier	-1	1	p	0.50824
85.70870000000001	0.0	+	9	verb	phrase	4	14	nomatch	casier	-1	1	p	0.50824
85.65050000000001	0.0	[response]	9	verb	phrase	4	15	nomatch	casier	-1	1	p	0.50824
87.54119999999999	0.0	+	10	verb	list	1	1	nomatch	bleu	-1	1	p	0.57744
88.091	0.2	fhm	10	verb	list	1	2	nomatch	bleu	-1	1	p	0.57744
88.29090000000001	0.0	+	10	verb	list	1	3	nomatch	bleu	-1	1	p	0.57744
88.6907	0.2	rmjd	10	verb	list	1	4	nomatch	bleu	-1	1	p	0.57744
88.8907	0.0	+	10	verb	list	1	5	nomatch	bleu	-1	1	p	0.57744
89.2905	0.2	ldk	10	verb	list	1	6	nomatch	bleu	-1	1	p	0.57744
89.49040000000001	0.0	+	10	verb	list	1	7	nomatch	bleu	-1	1	p	0.57744
89.89020000000001	0.2	gkbvqhm	10	verb	list	1	8	nomatch	bleu	-1	1	p	0.57744
90.09009999999999	0.0	+	10	verb	list	1	9	nomatch	bleu	-1	1	p	0.57744
90.48989999999999	0.2	noir	10	verb	list	1	10	nomatch	bleu	-1	1	p	0.57744
90.68990000000001	0.0	+	10	verb	list	1	11	nomatch	bleu	-1	1	p	0.57744
91.08970000000001	0.0	+	10	verb	list	1	12	nomatch	bleu	-1	1	p	0.57744
93.0888	0.0	BLEU	10	verb	list	1	13	nomatch	bleu	-1	1	p	0.57744
93.72189999999999	0.0	+	10	verb	list	1	14	nomatch	bleu	-1	1	p	0.57744
93.66619999999999	0.0	[response]	10	verb	list	1	15	nomatch	bleu	-1	1	p	0.57744
95.4877	0.0	+	11	noun	list	3	1	match	sablier	5	1	y	0.76319
96.03750000000001	0.2	nfgdb	11	noun	list	3	2	match	sablier	5	1	y	0.76319
96.2374	0.0	+	11	noun	list	3	3	match	sablier	5	1	y	0.76319
96.63719999999999	0.2	lnpz	11	noun	list	3	4	match	sablier	5	1	y	0.76319
96.85430000000001	0.0	+	11	noun	list	3	5	match	sablier	5	1	y	0.76319
97.2376	0.2	leur	11	noun	list	3	6	match	sablier	5	1	y	0.76319
97.4369	0.0	+	11	noun	list	3	7	match	sablier	5	1	y	0.76319
97.83729999999998	0.2	plus	11	noun	list	3	8	match	sablier	5	1	y	0.76319
98.0366	0.0	+	11	noun	list	3	9	match	sablier	5	1	y	0.76319
98.4364	0.2	sablier	11	noun	list	3	10	match	sablier	5	1	y	0.76319
98.6364	0.0	+	11	noun	list	3	11	match	sablier	5	1	y	0.76319
99.0362	0.0	+	11	noun	list	3	12	match	sablier	5	1	y	0.76319
101.0354	0.0	SABLIER	11	noun	list	3	13	match	sablier	5	1	y	0.76319
101.8516	0.0	+	11	noun	list	3	14	match	sablier	5	1	y	0.76319
101.79860000000001	0.0	[response]	11	noun	list	3	15	match	sablier	5	1	y	0.76319
103.4343	0.0	+	12	noun	list	2	1	match	mieux	4	1	y	0.58853
104.0014	0.2	ntbdv	12	noun	list	2	2	match	mieux	4	1	y	0.58853
104.1845	0.0	+	12	noun	list	2	3	match	mieux	4	1	y	0.58853
104.6007	0.2	rtgc	12	noun	list	2	4	match	mieux	4	1	y	0.58853
104.78419999999998	0.0	+	12	noun	list	2	5	match	mieux	4	1	y	0.58853
105.2001	0.2	ldk	12	noun	list	2	6	match	mieux	4	1	y	0.58853
105.4001	0.0	+	12	noun	list	2	7	match	mieux	4	1	y	0.58853
105.7999	0.2	mieux	12	noun	list	2	8	match	mieux	4	1	y	0.58853
105.99980000000001	0.0	+	12	noun	list	2	9	match	mieux	4	1	y	0.58853
106.3996	0.2	casier	12	noun	list	2	10	match	mieux	4	1	y	0.58853
106.59949999999999	0.0	+	12	noun	list	2	11	match	mieux	4	1	y	0.58853
106.99929999999999	0.0	+	12	noun	list	2	12	match	mieux	4	1	y	0.58853
108.99849999999999	0.0	MIEUX	12	noun	list	2	13	match	mieux	4	1	y	0.58853
109.64819999999999	0.0	+	12	noun	list	2	14	match	mieux	4	1	y	0.58853
109.587	0.0	[response]	12	noun	list	2	15	match	mieux	4	1	y	0.58853
111.39739999999999	0.0	+	13	noun	list	3	1	nomatch	leur	-1	1	p	0.71145
111.9472	0.2	dbjws	13	noun	list	3	2	nomatch	leur	-1	1	p	0.71145
112.14710000000001	0.0	+	13	noun	list	3	3	nomatch	leur	-1	1	p	0.71145
112.54690000000001	0.2	lnpz	13	noun	list	3	4	nomatch	leur	-1	1	p	0.71145
112.7468	0.0	+	13	noun	list	3	5	nomatch	leur	-1	1	p	0.71145
113.16359999999999	0.2	mon	13	noun	list	3	6	nomatch	leur	-1	1	p	0.71145
113.34660000000001	0.0	+	13	noun	list	3	7	nomatch	leur	-1	1	p	0.71145
113.7469	0.2	beaucoup	13	noun	list	3	8	nomatch	leur	-1	1	p	0.71145
113.9463	0.0	+	13	noun	list	3	9	nomatch	leur	-1	1	p	0.71145
114.34609999999999	0.2	voilier	13	noun	list	3	10	nomatch	leur	-1	1	p	0.71145
114.546	0.0	+	13	noun	list	3	11	nomatch	leur	-1	1	p	0.71145
114.94590000000001	0.0	+	13	noun	list	3	12	nomatch	leur	-1	1	p	0.71145
116.94500000000001	0.0	LEUR	13	noun	list	3	13	nomatch	leur	-1	1	p	0.71145
117.71130000000001	0.0	+	13	noun	list	3	14	nomatch	leur	-1	1	p	0.71145
117.6564	0.0	[response]	13	noun	list	3	15	nomatch	leur	-1	1	p	0.71145
119.3439	0.0	+	14	noun	list	1	1	match	tôt	5	1	y	0.58111
119.89370000000001	0.2	jldcn	14	noun	list	1	2	match	tôt	5	1	y	0.58111
120.0936	0.0	+	14	noun	list	1	3	match	tôt	5	1	y	0.58111
120.4934	0.2	kxqr	14	noun	list	1	4	match	tôt	5	1	y	0.58111
120.69330000000001	0.0	+	14	noun	list	1	5	match	tôt	5	1	y	0.58111
121.09320000000001	0.2	jq	14	noun	list	1	6	match	tôt	5	1	y	0.58111
121.2931	0.0	+	14	noun	list	1	7	match	tôt	5	1	y	0.58111
121.6929	0.2	zntspqg	14	noun	list	1	8	match	tôt	5	1	y	0.58111
121.89280000000001	0.0	+	14	noun	list	1	9	match	tôt	5	1	y	0.58111
122.29260000000001	0.2	tôt	14	noun	list	1	10	match	tôt	5	1	y	0.58111
122.49249999999999	0.0	+	14	noun	list	1	11	match	tôt	5	1	y	0.58111
122.8924	0.0	+	14	noun	list	1	12	match	tôt	5	1	y	0.58111
124.8915	0.0	TÔT	14	noun	list	1	13	match	tôt	5	1	y	0.58111
125.57449999999999	0.0	+	14	noun	list	1	14	match	tôt	5	1	y	0.58111
125.47259999999999	0.0	[response]	14	noun	list	1	15	match	tôt	5	1	y	0.58111
135.3202	0.0	+	15	noun	phrase	4	1	match	rocher	5	1	y	0.52239
135.8367	0.2	nql	15	noun	phrase	4	2	match	rocher	5	1	y	0.52239
136.03660000000002	0.0	+	15	noun	phrase	4	3	match	rocher	5	1	y	0.52239
136.4364	0.2	pour	15	noun	phrase	4	4	match	rocher	5	1	y	0.52239
136.6363	0.0	+	15	noun	phrase	4	5	match	rocher	5	1	y	0.52239
137.03609999999998	0.2	leur	15	noun	phrase	4	6	match	rocher	5	1	y	0.52239
137.23610000000002	0.0	+	15	noun	phrase	4	7	match	rocher	5	1	y	0.52239
137.6359	0.2	petit	15	noun	phrase	4	8	match	rocher	5	1	y	0.52239
137.8358	0.0	+	15	noun	phrase	4	9	match	rocher	5	1	y	0.52239
138.23559999999998	0.2	rocher	15	noun	phrase	4	10	match	rocher	5	1	y	0.52239
138.4361	0.0	+	15	noun	phrase	4	11	match	rocher	5	1	y	0.52239
138.8356	0.0	+	15	noun	phrase	4	12	match	rocher	5	1	y	0.52239
140.8345	0.0	ROCHER	15	noun	phrase	4	13	match	rocher	5	1	y	0.52239
141.41750000000002	0.0	+	15	noun	phrase	4	14	match	rocher	5	1	y	0.52239
141.35680000000002	0.0	[response]	15	noun	phrase	4	15	match	rocher	5	1	y	0.52239
143.25010000000003	0.0	+	16	noun	list	2	1	nomatch	beaucoup	-1	1	p	0.5504500000000001
143.7998	0.2	nbgst	16	noun	list	2	2	nomatch	beaucoup	-1	1	p	0.5504500000000001
143.99970000000002	0.0	+	16	noun	list	2	3	nomatch	beaucoup	-1	1	p	0.5504500000000001
144.39960000000002	0.2	ptxf	16	noun	list	2	4	nomatch	beaucoup	-1	1	p	0.5504500000000001
144.59950000000003	0.0	+	16	noun	list	2	5	nomatch	beaucoup	-1	1	p	0.5504500000000001
144.9993	0.2	glhb	16	noun	list	2	6	nomatch	beaucoup	-1	1	p	0.5504500000000001
145.19920000000002	0.0	+	16	noun	list	2	7	nomatch	beaucoup	-1	1	p	0.5504500000000001
145.599	0.2	voilier	16	noun	list	2	8	nomatch	beaucoup	-1	1	p	0.5504500000000001
145.7989	0.0	+	16	noun	list	2	9	nomatch	beaucoup	-1	1	p	0.5504500000000001
146.19940000000003	0.2	tard	16	noun	list	2	10	nomatch	beaucoup	-1	1	p	0.5504500000000001
146.399	0.0	+	16	noun	list	2	11	nomatch	beaucoup	-1	1	p	0.5504500000000001
146.7985	0.0	+	16	noun	list	2	12	nomatch	beaucoup	-1	1	p	0.5504500000000001
148.7976	0.0	BEAUCOUP	16	noun	list	2	13	nomatch	beaucoup	-1	1	p	0.5504500000000001
149.414	0.0	+	16	noun	list	2	14	nomatch	beaucoup	-1	1	p	0.5504500000000001
149.3481	0.0	[response]	16	noun	list	2	15	nomatch	beaucoup	-1	1	p	0.5504500000000001
151.1966	0.0	+	17	noun	phrase	1	1	match	clavier	5	1	y	0.44853
151.74630000000002	0.2	dmctbl	17	noun	phrase	1	2	match	clavier	5	1	y	0.44853
151.9463	0.0	+	17	noun	phrase	1	3	match	clavier	5	1	y	0.44853
152.34610000000004	0.2	lnvt	17	noun	phrase	1	4	match	clavier	5	1	y	0.44853
152.546	0.0	+	17	noun	phrase	1	5	match	clavier	5	1	y	0.44853
152.94580000000002	0.2	ldk	17	noun	phrase	1	6	match	clavier	5	1	y	0.44853
153.14570000000003	0.0	+	17	noun	phrase	1	7	match	clavier	5	1	y	0.44853
153.5455	0.2	nxfmj	17	noun	phrase	1	8	match	clavier	5	1	y	0.44853
153.7459	0.0	+	17	noun	phrase	1	9	match	clavier	5	1	y	0.44853
154.14530000000002	0.2	clavier	17	noun	phrase	1	10	match	clavier	5	1	y	0.44853
154.34570000000002	0.0	+	17	noun	phrase	1	11	match	clavier	5	1	y	0.44853
154.74540000000002	0.0	+	17	noun	phrase	1	12	match	clavier	5	1	y	0.44853
156.7441	0.0	CLAVIER	17	noun	phrase	1	13	match	clavier	5	1	y	0.44853
157.24450000000002	0.0	+	17	noun	phrase	1	14	match	clavier	5	1	y	0.44853
157.1927	0.0	[response]	17	noun	phrase	1	15	match	clavier	5	1	y	0.44853
167.13960000000003	0.0	+	18	verb	list	1	1	match	nouveau	5	1	y	0.4674
167.6893	0.2	dkqxcl	18	verb	list	1	2	match	nouveau	5	1	y	0.4674
167.88920000000002	0.0	+	18	verb	list	1	3	match	nouveau	5	1	y	0.4674
168.28910000000002	0.2	njr	18	verb	list	1	4	match	nouveau	5	1	y	0.4674
168.48900000000003	0.0	+	18	verb	list	1	5	match	nouveau	5	1	y	0.4674
168.8888	0.2	glhb	18	verb	list	1	6	match	nouveau	5	1	y	0.4674
169.08870000000002	0.0	+	18	verb	list	1	7	match	nouveau	5	1	y	0.4674
169.4885	0.2	fztsqb	18	verb	list	1	8	match	nouveau	5	1	y	0.4674
169.6884	0.0	+	18	verb	list	1	9	match	nouveau	5	1	y	0.4674
170.08870000000002	0.2	nouveau	18	verb	list	1	10	match	nouveau	5	1	y	0.4674
170.28840000000002	0.0	+	18	verb	list	1	11	match	nouveau	5	1	y	0.4674
170.688	0.0	+	18	verb	list	1	12	match	nouveau	5	1	y	0.4674
172.6871	0.0	NOUVEAU	18	verb	list	1	13	match	nouveau	5	1	y	0.4674
173.2702	0.0	+	18	verb	list	1	14	match	nouveau	5	1	y	0.4674
173.15449999999998	0.0	[response]	18	verb	list	1	15	match	nouveau	5	1	y	0.4674
175.0861	0.0	+	19	noun	phrase	1	1	nomatch	doit	-1	1	p	0.52213
175.63580000000002	0.2	jkzhb	19	noun	phrase	1	2	nomatch	doit	-1	1	p	0.52213
175.83570000000003	0.0	+	19	noun	phrase	1	3	nomatch	doit	-1	1	p	0.52213
176.23560000000003	0.2	lnmr	19	noun	phrase	1	4	nomatch	doit	-1	1	p	0.52213
176.4355	0.0	+	19	noun	phrase	1	5	nomatch	doit	-1	1	p	0.52213
176.83530000000002	0.2	hfs	19	noun	phrase	1	6	nomatch	doit	-1	1	p	0.52213
177.0353	0.0	+	19	noun	phrase	1	7	nomatch	doit	-1	1	p	0.52213
177.43560000000002	0.2	zntspqg	19	noun	phrase	1	8	nomatch	doit	-1	1	p	0.52213
177.652	0.0	+	19	noun	phrase	1	9	nomatch	doit	-1	1	p	0.52213
178.03540000000004	0.2	vieux	19	noun	phrase	1	10	nomatch	doit	-1	1	p	0.52213
178.25209999999998	0.0	+	19	noun	phrase	1	11	nomatch	doit	-1	1	p	0.52213
178.6345	0.0	+	19	noun	phrase	1	12	nomatch	doit	-1	1	p	0.52213
180.6336	0.0	DOIT	19	noun	phrase	1	13	nomatch	doit	-1	1	p	0.52213
181.2167	0.0	+	19	noun	phrase	1	14	nomatch	doit	-1	1	p	0.52213
181.15570000000002	0.0	[response]	19	noun	phrase	1	15	nomatch	doit	-1	1	p	0.52213
183.04919999999998	0.0	+	20	verb	phrase	4	1	nomatch	sur	-1	1	p	0.53295
183.599	0.2	fvj	20	verb	phrase	4	2	nomatch	sur	-1	1	p	0.53295
183.7989	0.0	+	20	verb	phrase	4	3	nomatch	sur	-1	1	p	0.53295
184.19920000000002	0.2	paul	20	verb	phrase	4	4	nomatch	sur	-1	1	p	0.53295
184.3986	0.0	+	20	verb	phrase	4	5	nomatch	sur	-1	1	p	0.53295
184.7985	0.2	va	20	verb	phrase	4	6	nomatch	sur	-1	1	p	0.53295
184.99900000000002	0.0	+	20	verb	phrase	4	7	nomatch	sur	-1	1	p	0.53295
185.39820000000003	0.2	voyager	20	verb	phrase	4	8	nomatch	sur	-1	1	p	0.53295
185.5981	0.0	+	20	verb	phrase	4	9	nomatch	sur	-1	1	p	0.53295
185.99790000000002	0.2	ainsi	20	verb	phrase	4	10	nomatch	sur	-1	1	p	0.53295
186.1979	0.0	+	20	verb	phrase	4	11	nomatch	sur	-1	1	p	0.53295
186.59770000000003	0.0	+	20	verb	phrase	4	12	nomatch	sur	-1	1	p	0.53295
188.59680000000003	0.0	SUR	20	verb	phrase	4	13	nomatch	sur	-1	1	p	0.53295
189.21359999999999	0.0	+	20	verb	phrase	4	14	nomatch	sur	-1	1	p	0.53295
189.1297	0.0	[response]	20	verb	phrase	4	15	nomatch	sur	-1	1	p	0.53295
206.9887	0.0	+	21	noun	phrase	3	1	nomatch	leur	-1	1	p	0.54307
207.5385	0.2	jqnl	21	noun	phrase	3	2	nomatch	leur	-1	1	p	0.54307
207.7384	0.0	+	21	noun	phrase	3	3	nomatch	leur	-1	1	p	0.54307
208.13819999999998	0.2	njr	21	noun	phrase	3	4	nomatch	leur	-1	1	p	0.54307
208.3381	0.0	+	21	noun	phrase	3	5	nomatch	leur	-1	1	p	0.54307
208.73790000000002	0.2	mon	21	noun	phrase	3	6	nomatch	leur	-1	1	p	0.54307
208.93780000000004	0.0	+	21	noun	phrase	3	7	nomatch	leur	-1	1	p	0.54307
209.33769999999998	0.2	tablier	21	noun	phrase	3	8	nomatch	leur	-1	1	p	0.54307
209.5376	0.0	+	21	noun	phrase	3	9	nomatch	leur	-1	1	p	0.54307
209.93740000000003	0.2	vert	21	noun	phrase	3	10	nomatch	leur	-1	1	p	0.54307
210.1375	0.0	+	21	noun	phrase	3	11	nomatch	leur	-1	1	p	0.54307
210.53750000000002	0.0	+	21	noun	phrase	3	12	nomatch	leur	-1	1	p	0.54307
212.53629999999998	0.0	LEUR	21	noun	phrase	3	13	nomatch	leur	-1	1	p	0.54307
213.13600000000002	0.0	+	21	noun	phrase	3	14	nomatch	leur	-1	1	p	0.54307
213.0793	0.0	[response]	21	noun	phrase	3	15	nomatch	leur	-1	1	p	0.54307
214.9352	0.0	+	22	verb	phrase	1	1	match	nager	5	1	y	0.40625
215.485	0.2	dqj	22	verb	phrase	1	2	match	nager	5	1	y	0.40625
215.68490000000003	0.0	+	22	verb	phrase	1	3	match	nager	5	1	y	0.40625
216.0847	0.2	rmjd	22	verb	phrase	1	4	match	nager	5	1	y	0.40625
216.2846	0.0	+	22	verb	phrase	1	5	match	nager	5	1	y	0.40625
216.6845	0.2	vzgp	22	verb	phrase	1	6	match	nager	5	1	y	0.40625
216.8847	0.0	+	22	verb	phrase	1	7	match	nager	5	1	y	0.40625
217.2842	0.2	qsdb	22	verb	phrase	1	8	match	nager	5	1	y	0.40625
217.4841	0.0	+	22	verb	phrase	1	9	match	nager	5	1	y	0.40625
217.88389999999998	0.2	nager	22	verb	phrase	1	10	match	nager	5	1	y	0.40625
218.0838	0.0	+	22	verb	phrase	1	11	match	nager	5	1	y	0.40625
218.50030000000004	0.0	+	22	verb	phrase	1	12	match	nager	5	1	y	0.40625
220.4998	0.0	NAGER	22	verb	phrase	1	13	match	nager	5	1	y	0.40625
220.96590000000003	0.0	+	22	verb	phrase	1	14	match	nager	5	1	y	0.40625
220.906	0.0	[response]	22	verb	phrase	1	15	match	nager	5	1	y	0.40625
222.89840000000004	0.0	+	23	noun	list	1	1	match	voilier	5	1	y	0.5781
223.4481	0.2	vfrkmgq	23	noun	list	1	2	match	voilier	5	1	y	0.5781
223.64800000000002	0.0	+	23	noun	list	1	3	match	voilier	5	1	y	0.5781
224.0485	0.2	hsnx	23	noun	list	1	4	match	voilier	5	1	y	0.5781
224.24779999999998	0.0	+	23	noun	list	1	5	match	voilier	5	1	y	0.5781
224.6476	0.2	glhb	23	noun	list	1	6	match	voilier	5	1	y	0.5781
224.84750000000003	0.0	+	23	noun	list	1	7	match	voilier	5	1	y	0.5781
225.2477	0.2	svt	23	noun	list	1	8	match	voilier	5	1	y	0.5781
225.44729999999998	0.0	+	23	noun	list	1	9	match	voilier	5	1	y	0.5781
225.8471	0.2	voilier	23	noun	list	1	10	match	voilier	5	1	y	0.5781
226.04700000000003	0.0	+	23	noun	list	1	11	match	voilier	5	1	y	0.5781
226.4468	0.0	+	23	noun	list	1	12	match	voilier	5	1	y	0.5781
228.4459	0.0	VOILIER	23	noun	list	1	13	match	voilier	5	1	y	0.5781
229.0797	0.0	+	23	noun	list	1	14	match	voilier	5	1	y	0.5781
229.024	0.0	[response]	23	noun	list	1	15	match	voilier	5	1	y	0.5781
230.8449	0.0	+	24	noun	phrase	1	1	match	bleu	5	1	y	0.48483
231.39460000000003	0.2	vdznr	24	noun	phrase	1	2	match	bleu	5	1	y	0.48483
231.5946	0.0	+	24	noun	phrase	1	3	match	bleu	5	1	y	0.48483
231.99439999999998	0.2	kxqr	24	noun	phrase	1	4	match	bleu	5	1	y	0.48483
232.1945	0.0	+	24	noun	phrase	1	5	match	bleu	5	1	y	0.48483
232.59480000000002	0.2	hfs	24	noun	phrase	1	6	match	bleu	5	1	y	0.48483
232.81119999999999	0.0	+	24	noun	phrase	1	7	match	bleu	5	1	y	0.48483
233.19389999999999	0.2	mkgprb	24	noun	phrase	1	8	match	bleu	5	1	y	0.48483
233.3938	0.0	+	24	noun	phrase	1	9	match	bleu	5	1	y	0.48483
233.79360000000003	0.2	bleu	24	noun	phrase	1	10	match	bleu	5	1	y	0.48483
233.99349999999998	0.0	+	24	noun	phrase	1	11	match	bleu	5	1	y	0.48483
234.3933	0.0	+	24	noun	phrase	1	12	match	bleu	5	1	y	0.48483
236.39320000000004	0.0	BLEU	24	noun	phrase	1	13	match	bleu	5	1	y	0.48483
236.9422	0.0	+	24	noun	phrase	1	14	match	bleu	5	1	y	0.48483
236.878	0.0	[response]	24	noun	phrase	1	15	match	bleu	5	1	y	0.48483
246.78790000000004	0.0	+	25	noun	list	3	1	match	cendrier	4	1	y	0.494
247.3376	0.2	wmjkgql	25	noun	list	3	2	match	cendrier	4	1	y	0.494
247.53750000000002	0.0	+	25	noun	list	3	3	match	cendrier	4	1	y	0.494
247.93740000000003	0.2	hsnx	25	noun	list	3	4	match	cendrier	4	1	y	0.494
248.13730000000004	0.0	+	25	noun	list	3	5	match	cendrier	4	1	y	0.494
248.5371	0.2	doit	25	noun	list	3	6	match	cendrier	4	1	y	0.494
248.73700000000002	0.0	+	25	noun	list	3	7	match	cendrier	4	1	y	0.494
249.1368	0.2	cendrier	25	noun	list	3	8	match	cendrier	4	1	y	0.494
249.3367	0.0	+	25	noun	list	3	9	match	cendrier	4	1	y	0.494
249.7366	0.2	tard	25	noun	list	3	10	match	cendrier	4	1	y	0.494
249.93650000000002	0.0	+	25	noun	list	3	11	match	cendrier	4	1	y	0.494
250.3533	0.0	+	25	noun	list	3	12	match	cendrier	4	1	y	0.494
252.3354	0.0	CENDRIER	25	noun	list	3	13	match	cendrier	4	1	y	0.494
252.8852	0.0	+	25	noun	list	3	14	match	cendrier	4	1	y	0.494
252.82940000000002	0.0	[response]	25	noun	list	3	15	match	cendrier	4	1	y	0.494
254.7344	0.0	+	26	noun	list	4	1	match	sablier	5	1	y	0.51897
255.28410000000002	0.2	qvm	26	noun	list	4	2	match	sablier	5	1	y	0.51897
255.4841	0.0	+	26	noun	list	4	3	match	sablier	5	1	y	0.51897
255.88440000000003	0.2	paul	26	noun	list	4	4	match	sablier	5	1	y	0.51897
256.0838	0.0	+	26	noun	list	4	5	match	sablier	5	1	y	0.51897
256.4842	0.2	son	26	noun	list	4	6	match	sablier	5	1	y	0.51897
256.6839	0.0	+	26	noun	list	4	7	match	sablier	5	1	y	0.51897
257.1	0.2	moins	26	noun	list	4	8	match	sablier	5	1	y	0.51897
257.29990000000004	0.0	+	26	noun	list	4	9	match	sablier	5	1	y	0.51897
257.6997	0.2	sablier	26	noun	list	4	10	match	sablier	5	1	y	0.51897
257.8997	0.0	+	26	noun	list	4	11	match	sablier	5	1	y	0.51897
258.2995	0.0	+	26	noun	list	4	12	match	sablier	5	1	y	0.51897
260.2986	0.0	SABLIER	26	noun	list	4	13	match	sablier	5	1	y	0.51897
260.93170000000003	0.0	+	26	noun	list	4	14	match	sablier	5	1	y	0.51897
260.8176	0.0	[response]	26	noun	list	4	15	match	sablier	5	1	y	0.51897
262.6975	0.0	+	27	noun	phrase	1	1	nomatch	jade	-1	1	p	0.66397
263.2473	0.2	fdcqjpx	27	noun	phrase	1	2	nomatch	jade	-1	1	p	0.66397
263.4472	0.0	+	27	noun	phrase	1	3	nomatch	jade	-1	1	p	0.66397
263.8471	0.2	lnvt	27	noun	phrase	1	4	nomatch	jade	-1	1	p	0.66397
264.0469	0.0	+	27	noun	phrase	1	5	nomatch	jade	-1	1	p	0.66397
264.4468	0.2	ldk	27	noun	phrase	1	6	nomatch	jade	-1	1	p	0.66397
264.6467	0.0	+	27	noun	phrase	1	7	nomatch	jade	-1	1	p	0.66397
265.0471	0.2	tskwq	27	noun	phrase	1	8	nomatch	jade	-1	1	p	0.66397
265.26370000000003	0.0	+	27	noun	phrase	1	9	nomatch	jade	-1	1	p	0.66397
265.6462	0.2	grenier	27	noun	phrase	1	10	nomatch	jade	-1	1	p	0.66397
265.8462	0.0	+	27	noun	phrase	1	11	nomatch	jade	-1	1	p	0.66397
266.24600000000004	0.0	+	27	noun	phrase	1	12	nomatch	jade	-1	1	p	0.66397
268.24510000000004	0.0	JADE	27	noun	phrase	1	13	nomatch	jade	-1	1	p	0.66397
268.9781	0.0	+	27	noun	phrase	1	14	nomatch	jade	-1	1	p	0.66397
268.9091	0.0	[response]	27	noun	phrase	1	15	nomatch	jade	-1	1	p	0.66397
270.64410000000004	0.0	+	28	noun	list	1	1	nomatch	voilier	-1	1	p	0.50251
271.21070000000003	0.2	pfsjgq	28	noun	list	1	2	nomatch	voilier	-1	1	p	0.50251
271.3937	0.0	+	28	noun	list	1	3	nomatch	voilier	-1	1	p	0.50251
271.7936	0.2	kxqr	28	noun	list	1	4	nomatch	voilier	-1	1	p	0.50251
271.9937	0.0	+	28	noun	list	1	5	nomatch	voilier	-1	1	p	0.50251
272.3933	0.2	glhb	28	noun	list	1	6	nomatch	voilier	-1	1	p	0.50251
272.5932	0.0	+	28	noun	list	1	7	nomatch	voilier	-1	1	p	0.50251
272.9932	0.2	hgzjnw	28	noun	list	1	8	nomatch	voilier	-1	1	p	0.50251
273.1929	0.0	+	28	noun	list	1	9	nomatch	voilier	-1	1	p	0.50251
273.59270000000004	0.2	loin	28	noun	list	1	10	nomatch	voilier	-1	1	p	0.50251
273.7927	0.0	+	28	noun	list	1	11	nomatch	voilier	-1	1	p	0.50251
274.1925	0.0	+	28	noun	list	1	12	nomatch	voilier	-1	1	p	0.50251
276.2084	0.0	VOILIER	28	noun	list	1	13	nomatch	voilier	-1	1	p	0.50251
276.8746	0.0	+	28	noun	list	1	14	nomatch	voilier	-1	1	p	0.50251
276.71090000000004	0.0	[response]	28	noun	list	1	15	nomatch	voilier	-1	1	p	0.50251
278.5906	0.0	+	29	verb	list	2	1	match	nager	4	1	y	0.58331
279.1403	0.2	nbtmjlx	29	verb	list	2	2	match	nager	4	1	y	0.58331
279.34020000000004	0.0	+	29	verb	list	2	3	match	nager	4	1	y	0.58331
279.74	0.2	dgpc	29	verb	list	2	4	match	nager	4	1	y	0.58331
279.94	0.0	+	29	verb	list	2	5	match	nager	4	1	y	0.58331
280.3398	0.2	hfs	29	verb	list	2	6	match	nager	4	1	y	0.58331
280.53970000000004	0.0	+	29	verb	list	2	7	match	nager	4	1	y	0.58331
280.9395	0.2	nager	29	verb	list	2	8	match	nager	4	1	y	0.58331
281.1394	0.0	+	29	verb	list	2	9	match	nager	4	1	y	0.58331
281.5393	0.2	vert	29	verb	list	2	10	match	nager	4	1	y	0.58331
281.7392	0.0	+	29	verb	list	2	11	match	nager	4	1	y	0.58331
282.1562	0.0	+	29	verb	list	2	12	match	nager	4	1	y	0.58331
284.1381	0.0	NAGER	29	verb	list	2	13	match	nager	4	1	y	0.58331
284.7878	0.0	+	29	verb	list	2	14	match	nager	4	1	y	0.58331
284.7214	0.0	[response]	29	verb	list	2	15	match	nager	4	1	y	0.58331
286.5371	0.0	+	30	noun	phrase	3	1	nomatch	sablier	-1	1	p	0.62814
287.0868	0.2	fpjvns	30	noun	phrase	3	2	nomatch	sablier	-1	1	p	0.62814
287.2867	0.0	+	30	noun	phrase	3	3	nomatch	sablier	-1	1	p	0.62814
287.6865	0.2	kxqr	30	noun	phrase	3	4	nomatch	sablier	-1	1	p	0.62814
287.8865	0.0	+	30	noun	phrase	3	5	nomatch	sablier	-1	1	p	0.62814
288.2863	0.2	mon	30	noun	phrase	3	6	nomatch	sablier	-1	1	p	0.62814
288.4862	0.0	+	30	noun	phrase	3	7	nomatch	sablier	-1	1	p	0.62814
288.88640000000004	0.2	petit	30	noun	phrase	3	8	nomatch	sablier	-1	1	p	0.62814
289.08660000000003	0.0	+	30	noun	phrase	3	9	nomatch	sablier	-1	1	p	0.62814
289.4864	0.2	tablier	30	noun	phrase	3	10	nomatch	sablier	-1	1	p	0.62814
289.6857	0.0	+	30	noun	phrase	3	11	nomatch	sablier	-1	1	p	0.62814
290.0855	0.0	+	30	noun	phrase	3	12	nomatch	sablier	-1	1	p	0.62814
292.0846	0.0	SABLIER	30	noun	phrase	3	13	nomatch	sablier	-1	1	p	0.62814
292.851	0.0	+	30	noun	phrase	3	14	nomatch	sablier	-1	1	p	0.62814
292.7128	0.0	[response]	30	noun	phrase	3	15	nomatch	sablier	-1	1	p	0.62814
294.4836	0.0	+	31	noun	list	1	1	nomatch	rocher	-1	1	p	0.70054
295.05	0.2	gzsjn	31	noun	list	1	2	nomatch	rocher	-1	1	p	0.70054
295.2499	0.0	+	31	noun	list	1	3	nomatch	rocher	-1	1	p	0.70054
295.6497	0.2	hgvw	31	noun	list	1	4	nomatch	rocher	-1	1	p	0.70054
295.8496	0.0	+	31	noun	list	1	5	nomatch	rocher	-1	1	p	0.70054
296.24940000000004	0.2	ldk	31	noun	list	1	6	nomatch	rocher	-1	1	p	0.70054
296.4494	0.0	+	31	noun	list	1	7	nomatch	rocher	-1	1	p	0.70054
296.8498	0.2	knshjdqz	31	noun	list	1	8	nomatch	rocher	-1	1	p	0.70054
297.0498	0.0	+	31	noun	list	1	9	nomatch	rocher	-1	1	p	0.70054
297.44890000000004	0.2	trop	31	noun	list	1	10	nomatch	rocher	-1	1	p	0.70054
297.6488	0.0	+	31	noun	list	1	11	nomatch	rocher	-1	1	p	0.70054
298.0487	0.0	+	31	noun	list	1	12	nomatch	rocher	-1	1	p	0.70054
300.0478	0.0	ROCHER	31	noun	list	1	13	nomatch	rocher	-1	1	p	0.70054
300.8141	0.0	+	31	noun	list	1	14	nomatch	rocher	-1	1	p	0.70054
300.74830000000003	0.0	[response]	31	noun	list	1	15	nomatch	rocher	-1	1	p	0.70054
310.4439	0.0	+	32	verb	phrase	1	1	nomatch	sur	-1	1	p	0.9119000000000002
310.993	0.2	cpmhlbz	32	verb	phrase	1	2	nomatch	sur	-1	1	p	0.9119000000000002
311.1929	0.0	+	32	verb	phrase	1	3	nomatch	sur	-1	1	p	0.9119000000000002
311.59270000000004	0.2	lnpz	32	verb	phrase	1	4	nomatch	sur	-1	1	p	0.9119000000000002
311.7926	0.0	+	32	verb	phrase	1	5	nomatch	sur	-1	1	p	0.9119000000000002
312.1924	0.2	glhb	32	verb	phrase	1	6	nomatch	sur	-1	1	p	0.9119000000000002
312.3924	0.0	+	32	verb	phrase	1	7	nomatch	sur	-1	1	p	0.9119000000000002
312.79220000000004	0.2	zxvbjts	32	verb	phrase	1	8	nomatch	sur	-1	1	p	0.9119000000000002
312.9921	0.0	+	32	verb	phrase	1	9	nomatch	sur	-1	1	p	0.9119000000000002
313.3919	0.2	loin	32	verb	phrase	1	10	nomatch	sur	-1	1	p	0.9119000000000002
313.59180000000003	0.0	+	32	verb	phrase	1	11	nomatch	sur	-1	1	p	0.9119000000000002
313.9916	0.0	+	32	verb	phrase	1	12	nomatch	sur	-1	1	p	0.9119000000000002
315.99080000000004	0.0	SUR	32	verb	phrase	1	13	nomatch	sur	-1	1	p	0.9119000000000002
316.9571	0.0	+	32	verb	phrase	1	14	nomatch	sur	-1	1	p	0.9119000000000002
316.90270000000004	0.0	[response]	32	verb	phrase	1	15	nomatch	sur	-1	1	p	0.9119000000000002
318.3897	0.0	+	33	noun	phrase	3	1	nomatch	avec	-1	1	p	0.8697700000000002
318.9395	0.2	rzpck	33	noun	phrase	3	2	nomatch	avec	-1	1	p	0.8697700000000002
319.1394	0.0	+	33	noun	phrase	3	3	nomatch	avec	-1	1	p	0.8697700000000002
319.5392	0.2	lnvt	33	noun	phrase	3	4	nomatch	avec	-1	1	p	0.8697700000000002
319.7391	0.0	+	33	noun	phrase	3	5	nomatch	avec	-1	1	p	0.8697700000000002
320.13890000000004	0.2	mon	33	noun	phrase	3	6	nomatch	avec	-1	1	p	0.8697700000000002
320.3389	0.0	+	33	noun	phrase	3	7	nomatch	avec	-1	1	p	0.8697700000000002
320.7392	0.2	rocher	33	noun	phrase	3	8	nomatch	avec	-1	1	p	0.8697700000000002
320.9392	0.0	+	33	noun	phrase	3	9	nomatch	avec	-1	1	p	0.8697700000000002
321.33840000000004	0.2	blanc	33	noun	phrase	3	10	nomatch	avec	-1	1	p	0.8697700000000002
321.5383	0.0	+	33	noun	phrase	3	11	nomatch	avec	-1	1	p	0.8697700000000002
321.9382	0.0	+	33	noun	phrase	3	12	nomatch	avec	-1	1	p	0.8697700000000002
323.9546	0.0	AVEC	33	noun	phrase	3	13	nomatch	avec	-1	1	p	0.8697700000000002
324.8868	0.0	+	33	noun	phrase	3	14	nomatch	avec	-1	1	p	0.8697700000000002
324.8243	0.0	[response]	33	noun	phrase	3	15	nomatch	avec	-1	1	p	0.8697700000000002
326.3362	0.0	+	34	noun	list	4	1	nomatch	doit	-1	1	p	0.75029
326.886	0.2	kdmlrf	34	noun	list	4	2	nomatch	doit	-1	1	p	0.75029
327.08590000000004	0.0	+	34	noun	list	4	3	nomatch	doit	-1	1	p	0.75029
327.4857	0.2	sous	34	noun	list	4	4	nomatch	doit	-1	1	p	0.75029
327.6856	0.0	+	34	noun	list	4	5	nomatch	doit	-1	1	p	0.75029
328.1024	0.2	va	34	noun	list	4	6	nomatch	doit	-1	1	p	0.75029
328.2856	0.0	+	34	noun	list	4	7	nomatch	doit	-1	1	p	0.75029
328.6855	0.2	cendrier	34	noun	list	4	8	nomatch	doit	-1	1	p	0.75029
328.8854	0.0	+	34	noun	list	4	9	nomatch	doit	-1	1	p	0.75029
329.2849	0.2	tard	34	noun	list	4	10	nomatch	doit	-1	1	p	0.75029
329.4848	0.0	+	34	noun	list	4	11	nomatch	doit	-1	1	p	0.75029
329.8847	0.0	+	34	noun	list	4	12	nomatch	doit	-1	1	p	0.75029
331.8838	0.0	DOIT	34	noun	list	4	13	nomatch	doit	-1	1	p	0.75029
332.7001	0.0	+	34	noun	list	4	14	nomatch	doit	-1	1	p	0.75029
332.6341	0.0	[response]	34	noun	list	4	15	nomatch	doit	-1	1	p	0.75029
334.2994	0.0	+	35	verb	phrase	4	1	nomatch	luc	-1	1	p	0.61522
334.8491	0.2	mcqvl	35	verb	phrase	4	2	nomatch	luc	-1	1	p	0.61522
335.04900000000004	0.0	+	35	verb	phrase	4	3	nomatch	luc	-1	1	p	0.61522
335.44890000000004	0.2	adam	35	verb	phrase	4	4	nomatch	luc	-1	1	p	0.61522
335.6488	0.0	+	35	verb	phrase	4	5	nomatch	luc	-1	1	p	0.61522
336.0486	0.2	peut	35	verb	phrase	4	6	nomatch	luc	-1	1	p	0.61522
336.24850000000004	0.0	+	35	verb	phrase	4	7	nomatch	luc	-1	1	p	0.61522
336.6657	0.2	plonger	35	verb	phrase	4	8	nomatch	luc	-1	1	p	0.61522
336.8483	0.0	+	35	verb	phrase	4	9	nomatch	luc	-1	1	p	0.61522
337.2481	0.2	vite	35	verb	phrase	4	10	nomatch	luc	-1	1	p	0.61522
337.44800000000004	0.0	+	35	verb	phrase	4	11	nomatch	luc	-1	1	p	0.61522
337.84790000000004	0.0	+	35	verb	phrase	4	12	nomatch	luc	-1	1	p	0.61522
339.8469	0.0	LUC	35	verb	phrase	4	13	nomatch	luc	-1	1	p	0.61522
340.5133	0.0	+	35	verb	phrase	4	14	nomatch	luc	-1	1	p	0.61522
340.4621	0.0	[response]	35	verb	phrase	4	15	nomatch	luc	-1	1	p	0.61522
358.2389	0.0	+	36	verb	list	2	1	nomatch	pour	-1	1	p	0.8397600000000001
358.78860000000003	0.2	rlk	36	verb	list	2	2	nomatch	pour	-1	1	p	0.8397600000000001
358.9885	0.0	+	36	verb	list	2	3	nomatch	pour	-1	1	p	0.8397600000000001
359.3883	0.2	lnmr	36	verb	list	2	4	nomatch	pour	-1	1	p	0.8397600000000001
359.5883	0.0	+	36	verb	list	2	5	nomatch	pour	-1	1	p	0.8397600000000001
359.98810000000003	0.2	glhb	36	verb	list	2	6	nomatch	pour	-1	1	p	0.8397600000000001
360.1886	0.0	+	36	verb	list	2	7	nomatch	pour	-1	1	p	0.8397600000000001
360.5878	0.2	nouveau	36	verb	list	2	8	nomatch	pour	-1	1	p	0.8397600000000001
360.78770000000003	0.0	+	36	verb	list	2	9	nomatch	pour	-1	1	p	0.8397600000000001
361.18760000000003	0.2	voyager	36	verb	list	2	10	nomatch	pour	-1	1	p	0.8397600000000001
361.3875	0.0	+	36	verb	list	2	11	nomatch	pour	-1	1	p	0.8397600000000001
361.7873	0.0	+	36	verb	list	2	12	nomatch	pour	-1	1	p	0.8397600000000001
363.7864	0.0	POUR	36	verb	list	2	13	nomatch	pour	-1	1	p	0.8397600000000001
364.68600000000004	0.0	+	36	verb	list	2	14	nomatch	pour	-1	1	p	0.8397600000000001
364.6262	0.0	[response]	36	verb	list	2	15	nomatch	pour	-1	1	p	0.8397600000000001
366.1854	0.0	+	37	noun	list	1	1	nomatch	vers	-1	1	p	0.62453
366.7351	0.2	vkqrbml	37	noun	list	1	2	nomatch	vers	-1	1	p	0.62453
366.9355	0.0	+	37	noun	list	1	3	nomatch	vers	-1	1	p	0.62453
367.3349	0.2	rtgc	37	noun	list	1	4	nomatch	vers	-1	1	p	0.62453
367.5348	0.0	+	37	noun	list	1	5	nomatch	vers	-1	1	p	0.62453
367.9346	0.2	ldk	37	noun	list	1	6	nomatch	vers	-1	1	p	0.62453
368.1345	0.0	+	37	noun	list	1	7	nomatch	vers	-1	1	p	0.62453
368.53430000000003	0.2	rmfzt	37	noun	list	1	8	nomatch	vers	-1	1	p	0.62453
368.7342	0.0	+	37	noun	list	1	9	nomatch	vers	-1	1	p	0.62453
369.1341	0.2	grenier	37	noun	list	1	10	nomatch	vers	-1	1	p	0.62453
369.334	0.0	+	37	noun	list	1	11	nomatch	vers	-1	1	p	0.62453
369.73380000000003	0.0	+	37	noun	list	1	12	nomatch	vers	-1	1	p	0.62453
371.7496	0.0	VERS	37	noun	list	1	13	nomatch	vers	-1	1	p	0.62453
372.4328	0.0	+	37	noun	list	1	14	nomatch	vers	-1	1	p	0.62453
372.37410000000006	0.0	[response]	37	noun	list	1	15	nomatch	vers	-1	1	p	0.62453
382.14500000000004	0.0	+	38	verb	phrase	2	1	nomatch	tard	-1	1	p	0.57359
382.6948	0.2	pwslj	38	verb	phrase	2	2	nomatch	tard	-1	1	p	0.57359
382.8947	0.0	+	38	verb	phrase	2	3	nomatch	tard	-1	1	p	0.57359
383.2949	0.2	lnpz	38	verb	phrase	2	4	nomatch	tard	-1	1	p	0.57359
383.4944	0.0	+	38	verb	phrase	2	5	nomatch	tard	-1	1	p	0.57359
383.89500000000004	0.2	vzgp	38	verb	phrase	2	6	nomatch	tard	-1	1	p	0.57359
384.0947	0.0	+	38	verb	phrase	2	7	nomatch	tard	-1	1	p	0.57359
384.494	0.2	jongler	38	verb	phrase	2	8	nomatch	tard	-1	1	p	0.57359
384.6939	0.0	+	38	verb	phrase	2	9	nomatch	tard	-1	1	p	0.57359
385.0937	0.2	tôt	38	verb	phrase	2	10	nomatch	tard	-1	1	p	0.57359
385.2936	0.0	+	38	verb	phrase	2	11	nomatch	tard	-1	1	p	0.57359
385.6934	0.0	+	38	verb	phrase	2	12	nomatch	tard	-1	1	p	0.57359
387.6926	0.0	TARD	38	verb	phrase	2	13	nomatch	tard	-1	1	p	0.57359
388.3428	0.0	+	38	verb	phrase	2	14	nomatch	tard	-1	1	p	0.57359
388.2662	0.0	[response]	38	verb	phrase	2	15	nomatch	tard	-1	1	p	0.57359
390.0915	0.0	+	39	noun	list	3	1	nomatch	va	-1	1	p	0.59274
390.6413	0.2	mxrpqzb	39	noun	list	3	2	nomatch	va	-1	1	p	0.59274
390.8412	0.0	+	39	noun	list	3	3	nomatch	va	-1	1	p	0.59274
391.241	0.2	dgpc	39	noun	list	3	4	nomatch	va	-1	1	p	0.59274
391.44120000000004	0.0	+	39	noun	list	3	5	nomatch	va	-1	1	p	0.59274
391.85790000000003	0.2	mon	39	noun	list	3	6	nomatch	va	-1	1	p	0.59274
392.0409	0.0	+	39	noun	list	3	7	nomatch	va	-1	1	p	0.59274
392.4405	0.2	mieux	39	noun	list	3	8	nomatch	va	-1	1	p	0.59274
392.6404	0.0	+	39	noun	list	3	9	nomatch	va	-1	1	p	0.59274
393.0402	0.2	rocher	39	noun	list	3	10	nomatch	va	-1	1	p	0.59274
393.2401	0.0	+	39	noun	list	3	11	nomatch	va	-1	1	p	0.59274
393.6399	0.0	+	39	noun	list	3	12	nomatch	va	-1	1	p	0.59274
395.6391	0.0	VA	39	noun	list	3	13	nomatch	va	-1	1	p	0.59274
396.28880000000004	0.0	+	39	noun	list	3	14	nomatch	va	-1	1	p	0.59274
396.2318	0.0	[response]	39	noun	list	3	15	nomatch	va	-1	1	p	0.59274
398.07130000000006	0.0	+	40	noun	phrase	2	1	match	beau	4	0	p	1.0839
398.58799999999997	0.2	pgndm	40	noun	phrase	2	2	match	beau	4	0	p	1.0839
398.78830000000005	0.0	+	40	noun	phrase	2	3	match	beau	4	0	p	1.0839
399.1875	0.2	njr	40	noun	phrase	2	4	match	beau	4	0	p	1.0839
399.38739999999996	0.0	+	40	noun	phrase	2	5	match	beau	4	0	p	1.0839
399.7872	0.2	ldk	40	noun	phrase	2	6	match	beau	4	0	p	1.0839
399.98720000000003	0.0	+	40	noun	phrase	2	7	match	beau	4	0	p	1.0839
400.38700000000006	0.2	beau	40	noun	phrase	2	8	match	beau	4	0	p	1.0839
400.5869	0.0	+	40	noun	phrase	2	9	match	beau	4	0	p	1.0839
400.98670000000004	0.2	grenier	40	noun	phrase	2	10	match	beau	4	0	p	1.0839
401.1866	0.0	+	40	noun	phrase	2	11	match	beau	4	0	p	1.0839
401.5865	0.0	+	40	noun	phrase	2	12	match	beau	4	0	p	1.0839
403.5856	0.0	BEAU	40	noun	phrase	2	13	match	beau	4	0	p	1.0839
404.7351	0.0	+	40	noun	phrase	2	14	match	beau	4	0	p	1.0839
404.6694	0.0	[response]	40	noun	phrase	2	15	match	beau	4	0	p	1.0839
413.9977	0.0	+	41	noun	phrase	2	1	nomatch	leur	-1	1	p	0.9246300000000001
414.54740000000004	0.2	xswqlk	41	noun	phrase	2	2	nomatch	leur	-1	1	p	0.9246300000000001
414.7473	0.0	+	41	noun	phrase	2	3	nomatch	leur	-1	1	p	0.9246300000000001
415.1472	0.2	dtsr	41	noun	phrase	2	4	nomatch	leur	-1	1	p	0.9246300000000001
415.3478	0.0	+	41	noun	phrase	2	5	nomatch	leur	-1	1	p	0.9246300000000001
415.7469	0.2	hfs	41	noun	phrase	2	6	nomatch	leur	-1	1	p	0.9246300000000001
415.94680000000005	0.0	+	41	noun	phrase	2	7	nomatch	leur	-1	1	p	0.9246300000000001
416.34659999999997	0.2	rocher	41	noun	phrase	2	8	nomatch	leur	-1	1	p	0.9246300000000001
416.54650000000004	0.0	+	41	noun	phrase	2	9	nomatch	leur	-1	1	p	0.9246300000000001
416.94640000000004	0.2	vert	41	noun	phrase	2	10	nomatch	leur	-1	1	p	0.9246300000000001
417.1463	0.0	+	41	noun	phrase	2	11	nomatch	leur	-1	1	p	0.9246300000000001
417.5461	0.0	+	41	noun	phrase	2	12	nomatch	leur	-1	1	p	0.9246300000000001
419.5452	0.0	LEUR	41	noun	phrase	2	13	nomatch	leur	-1	1	p	0.9246300000000001
420.5281	0.0	+	41	noun	phrase	2	14	nomatch	leur	-1	1	p	0.9246300000000001
420.46990000000005	0.0	[response]	41	noun	phrase	2	15	nomatch	leur	-1	1	p	0.9246300000000001
421.9442	0.0	+	42	noun	list	4	1	match	mieux	4	1	y	0.71665
422.49390000000005	0.2	bqsm	42	noun	list	4	2	match	mieux	4	1	y	0.71665
422.6938	0.0	+	42	noun	list	4	3	match	mieux	4	1	y	0.71665
423.0937	0.2	yves	42	noun	list	4	4	match	mieux	4	1	y	0.71665
423.29359999999997	0.0	+	42	noun	list	4	5	match	mieux	4	1	y	0.71665
423.6934	0.2	mon	42	noun	list	4	6	match	mieux	4	1	y	0.71665
423.89329999999995	0.0	+	42	noun	list	4	7	match	mieux	4	1	y	0.71665
424.2931	0.2	mieux	42	noun	list	4	8	match	mieux	4	1	y	0.71665
424.49300000000005	0.0	+	42	noun	list	4	9	match	mieux	4	1	y	0.71665
424.89290000000005	0.2	cendrier	42	noun	list	4	10	match	mieux	4	1	y	0.71665
425.0928	0.0	+	42	noun	list	4	11	match	mieux	4	1	y	0.71665
425.49260000000004	0.0	+	42	noun	list	4	12	match	mieux	4	1	y	0.71665
427.49170000000004	0.0	MIEUX	42	noun	list	4	13	match	mieux	4	1	y	0.71665
428.39189999999996	0.0	+	42	noun	list	4	14	match	mieux	4	1	y	0.71665
428.2084	0.0	[response]	42	noun	list	4	15	match	mieux	4	1	y	0.71665
429.89070000000004	0.0	+	43	verb	list	1	1	match	parader	5	1	y	0.43209
430.44039999999995	0.2	rqpwhf	43	verb	list	1	2	match	parader	5	1	y	0.43209
430.6403	0.0	+	43	verb	list	1	3	match	parader	5	1	y	0.43209
431.0404	0.2	rtgc	43	verb	list	1	4	match	parader	5	1	y	0.43209
431.2401	0.0	+	43	verb	list	1	5	match	parader	5	1	y	0.43209
431.6399	0.2	hfs	43	verb	list	1	6	match	parader	5	1	y	0.43209
431.83979999999997	0.0	+	43	verb	list	1	7	match	parader	5	1	y	0.43209
432.2396	0.2	ksbz	43	verb	list	1	8	match	parader	5	1	y	0.43209
432.43960000000004	0.0	+	43	verb	list	1	9	match	parader	5	1	y	0.43209
432.83939999999996	0.2	parader	43	verb	list	1	10	match	parader	5	1	y	0.43209
433.0393	0.0	+	43	verb	list	1	11	match	parader	5	1	y	0.43209
433.43910000000005	0.0	+	43	verb	list	1	12	match	parader	5	1	y	0.43209
435.43820000000005	0.0	PARADER	43	verb	list	1	13	match	parader	5	1	y	0.43209
435.938	0.0	+	43	verb	list	1	14	match	parader	5	1	y	0.43209
435.87030000000004	0.0	[response]	43	verb	list	1	15	match	parader	5	1	y	0.43209
437.8379	0.0	+	44	verb	phrase	3	1	nomatch	va	-1	1	p	0.73274
438.404	0.2	wbhxkt	44	verb	phrase	3	2	nomatch	va	-1	1	p	0.73274
438.587	0.0	+	44	verb	phrase	3	3	nomatch	va	-1	1	p	0.73274
438.98670000000004	0.2	dsv	44	verb	phrase	3	4	nomatch	va	-1	1	p	0.73274
439.1866	0.0	+	44	verb	phrase	3	5	nomatch	va	-1	1	p	0.73274
439.5864	0.2	peut	44	verb	phrase	3	6	nomatch	va	-1	1	p	0.73274
439.7863	0.0	+	44	verb	phrase	3	7	nomatch	va	-1	1	p	0.73274
440.1862	0.2	plus	44	verb	phrase	3	8	nomatch	va	-1	1	p	0.73274
440.38599999999997	0.0	+	44	verb	phrase	3	9	nomatch	va	-1	1	p	0.73274
440.78589999999997	0.2	voyager	44	verb	phrase	3	10	nomatch	va	-1	1	p	0.73274
440.98580000000004	0.0	+	44	verb	phrase	3	11	nomatch	va	-1	1	p	0.73274
441.4026	0.0	+	44	verb	phrase	3	12	nomatch	va	-1	1	p	0.73274
443.38470000000007	0.0	VA	44	verb	phrase	3	13	nomatch	va	-1	1	p	0.73274
444.1844	0.0	+	44	verb	phrase	3	14	nomatch	va	-1	1	p	0.73274
444.11750000000006	0.0	[response]	44	verb	phrase	3	15	nomatch	va	-1	1	p	0.73274
445.78370000000007	0.0	+	45	verb	list	2	1	nomatch	chasser	-1	1	p	0.65954
446.3501	0.2	fgd	45	verb	list	2	2	nomatch	chasser	-1	1	p	0.65954
446.54999999999995	0.0	+	45	verb	list	2	3	nomatch	chasser	-1	1	p	0.65954
446.95029999999997	0.2	pfmr	45	verb	list	2	4	nomatch	chasser	-1	1	p	0.65954
447.15020000000004	0.0	+	45	verb	list	2	5	nomatch	chasser	-1	1	p	0.65954
447.56690000000003	0.2	ldk	45	verb	list	2	6	nomatch	chasser	-1	1	p	0.65954
447.7499	0.0	+	45	verb	list	2	7	nomatch	chasser	-1	1	p	0.65954
448.1494	0.2	plonger	45	verb	list	2	8	nomatch	chasser	-1	1	p	0.65954
448.3492	0.0	+	45	verb	list	2	9	nomatch	chasser	-1	1	p	0.65954
448.749	0.2	blanc	45	verb	list	2	10	nomatch	chasser	-1	1	p	0.65954
448.94899999999996	0.0	+	45	verb	list	2	11	nomatch	chasser	-1	1	p	0.65954
449.3488	0.0	+	45	verb	list	2	12	nomatch	chasser	-1	1	p	0.65954
451.3479	0.0	CHASSER	45	verb	list	2	13	nomatch	chasser	-1	1	p	0.65954
452.1648	0.0	+	45	verb	list	2	14	nomatch	chasser	-1	1	p	0.65954
452.0074000000001	0.0	[response]	45	verb	list	2	15	nomatch	chasser	-1	1	p	0.65954
453.7469	0.0	+	46	verb	list	1	1	match	danser	5	1	y	0.70551
454.2966	0.2	lkzwqj	46	verb	list	1	2	match	danser	5	1	y	0.70551
454.49649999999997	0.0	+	46	verb	list	1	3	match	danser	5	1	y	0.70551
454.8963	0.2	hgvw	46	verb	list	1	4	match	danser	5	1	y	0.70551
455.09630000000004	0.0	+	46	verb	list	1	5	match	danser	5	1	y	0.70551
455.49609999999996	0.2	wvrh	46	verb	list	1	6	match	danser	5	1	y	0.70551
455.696	0.0	+	46	verb	list	1	7	match	danser	5	1	y	0.70551
456.0964	0.2	nxfmj	46	verb	list	1	8	match	danser	5	1	y	0.70551
456.2962	0.0	+	46	verb	list	1	9	match	danser	5	1	y	0.70551
456.7124	0.2	danser	46	verb	list	1	10	match	danser	5	1	y	0.70551
456.8954	0.0	+	46	verb	list	1	11	match	danser	5	1	y	0.70551
457.2954	0.0	+	46	verb	list	1	12	match	danser	5	1	y	0.70551
459.2944	0.0	DANSER	46	verb	list	1	13	match	danser	5	1	y	0.70551
460.0607	0.0	+	46	verb	list	1	14	match	danser	5	1	y	0.70551
459.9999	0.0	[response]	46	verb	list	1	15	match	danser	5	1	y	0.70551
461.6933	0.0	+	47	verb	list	4	1	nomatch	mon	-1	1	p	0.6801800000000001
462.2431	0.2	jhqv	47	verb	list	4	2	nomatch	mon	-1	1	p	0.6801800000000001
462.443	0.0	+	47	verb	list	4	3	nomatch	mon	-1	1	p	0.6801800000000001
462.8428	0.2	sans	47	verb	list	4	4	nomatch	mon	-1	1	p	0.6801800000000001
463.04280000000006	0.0	+	47	verb	list	4	5	nomatch	mon	-1	1	p	0.6801800000000001
463.44259999999997	0.2	peut	47	verb	list	4	6	nomatch	mon	-1	1	p	0.6801800000000001
463.64250000000004	0.0	+	47	verb	list	4	7	nomatch	mon	-1	1	p	0.6801800000000001
464.04290000000003	0.2	petit	47	verb	list	4	8	nomatch	mon	-1	1	p	0.6801800000000001
464.2424	0.0	+	47	verb	list	4	9	nomatch	mon	-1	1	p	0.6801800000000001
464.6423	0.2	rouler	47	verb	list	4	10	nomatch	mon	-1	1	p	0.6801800000000001
464.84270000000004	0.0	+	47	verb	list	4	11	nomatch	mon	-1	1	p	0.6801800000000001
465.2418	0.0	+	47	verb	list	4	12	nomatch	mon	-1	1	p	0.6801800000000001
467.2409	0.0	MON	47	verb	list	4	13	nomatch	mon	-1	1	p	0.6801800000000001
468.0072	0.0	+	47	verb	list	4	14	nomatch	mon	-1	1	p	0.6801800000000001
467.92110000000014	0.0	[response]	47	verb	list	4	15	nomatch	mon	-1	1	p	0.6801800000000001
469.6399	0.0	+	48	noun	phrase	3	1	match	noir	5	1	y	0.62624
470.207	0.2	sxnb	48	noun	phrase	3	2	match	noir	5	1	y	0.62624
470.4067	0.0	+	48	noun	phrase	3	3	match	noir	5	1	y	0.62624
470.78970000000004	0.2	ptxf	48	noun	phrase	3	4	match	noir	5	1	y	0.62624
470.98980000000006	0.0	+	48	noun	phrase	3	5	match	noir	5	1	y	0.62624
471.3895	0.2	leur	48	noun	phrase	3	6	match	noir	5	1	y	0.62624
471.58900000000006	0.0	+	48	noun	phrase	3	7	match	noir	5	1	y	0.62624
471.98879999999997	0.2	voilier	48	noun	phrase	3	8	match	noir	5	1	y	0.62624
472.18870000000004	0.0	+	48	noun	phrase	3	9	match	noir	5	1	y	0.62624
472.58850000000007	0.2	noir	48	noun	phrase	3	10	match	noir	5	1	y	0.62624
472.7885	0.0	+	48	noun	phrase	3	11	match	noir	5	1	y	0.62624
473.1883	0.0	+	48	noun	phrase	3	12	match	noir	5	1	y	0.62624
475.1879	0.0	NOIR	48	noun	phrase	3	13	match	noir	5	1	y	0.62624
476.00440000000003	0.0	+	48	noun	phrase	3	14	match	noir	5	1	y	0.62624
475.81410000000005	0.0	[response]	48	noun	phrase	3	15	match	noir	5	1	y	0.62624
477.5864	0.0	+	49	verb	phrase	4	1	match	marc	2	1	y	0.8290000000000001
478.13610000000006	0.2	dzwqmf	49	verb	phrase	4	2	match	marc	2	1	y	0.8290000000000001
478.336	0.0	+	49	verb	phrase	4	3	match	marc	2	1	y	0.8290000000000001
478.7359	0.2	marc	49	verb	phrase	4	4	match	marc	2	1	y	0.8290000000000001
478.9358	0.0	+	49	verb	phrase	4	5	match	marc	2	1	y	0.8290000000000001
479.3356	0.2	va	49	verb	phrase	4	6	match	marc	2	1	y	0.8290000000000001
479.53549999999996	0.0	+	49	verb	phrase	4	7	match	marc	2	1	y	0.8290000000000001
479.9353	0.2	plus	49	verb	phrase	4	8	match	marc	2	1	y	0.8290000000000001
480.13599999999997	0.0	+	49	verb	phrase	4	9	match	marc	2	1	y	0.8290000000000001
480.5358	0.2	rouler	49	verb	phrase	4	10	match	marc	2	1	y	0.8290000000000001
480.7523	0.0	+	49	verb	phrase	4	11	match	marc	2	1	y	0.8290000000000001
481.135	0.0	+	49	verb	phrase	4	12	match	marc	2	1	y	0.8290000000000001
483.1508	0.0	MARC	49	verb	phrase	4	13	match	marc	2	1	y	0.8290000000000001
484.0335	0.0	+	49	verb	phrase	4	14	match	marc	2	1	y	0.8290000000000001
483.97979999999995	0.0	[response]	49	verb	phrase	4	15	match	marc	2	1	y	0.8290000000000001
485.54949999999997	0.0	+	50	verb	phrase	1	1	nomatch	danser	-1	1	p	1.1161
486.09929999999997	0.2	bszxjdn	50	verb	phrase	1	2	nomatch	danser	-1	1	p	1.1161
486.29920000000004	0.0	+	50	verb	phrase	1	3	nomatch	danser	-1	1	p	1.1161
486.69899999999996	0.2	rmjd	50	verb	phrase	1	4	nomatch	danser	-1	1	p	1.1161
486.8989	0.0	+	50	verb	phrase	1	5	nomatch	danser	-1	1	p	1.1161
487.2994	0.2	jq	50	verb	phrase	1	6	nomatch	danser	-1	1	p	1.1161
487.5158	0.0	+	50	verb	phrase	1	7	nomatch	danser	-1	1	p	1.1161
487.899	0.2	rmfzt	50	verb	phrase	1	8	nomatch	danser	-1	1	p	1.1161
488.1151	0.0	+	50	verb	phrase	1	9	nomatch	danser	-1	1	p	1.1161
488.4982	0.2	nager	50	verb	phrase	1	10	nomatch	danser	-1	1	p	1.1161
488.69809999999995	0.0	+	50	verb	phrase	1	11	nomatch	danser	-1	1	p	1.1161
489.09799999999996	0.0	+	50	verb	phrase	1	12	nomatch	danser	-1	1	p	1.1161
491.09709999999995	0.0	DANSER	50	verb	phrase	1	13	nomatch	danser	-1	1	p	1.1161
492.38059999999996	0.0	+	50	verb	phrase	1	14	nomatch	danser	-1	1	p	1.1161
492.21320000000003	0.0	[response]	50	verb	phrase	1	15	nomatch	danser	-1	1	p	1.1161
493.496	0.0	+	51	verb	list	3	1	nomatch	plonger	-1	1	p	1.0096
494.0458	0.2	bzfmxv	51	verb	list	3	2	nomatch	plonger	-1	1	p	1.0096
494.24570000000006	0.0	+	51	verb	list	3	3	nomatch	plonger	-1	1	p	1.0096
494.64549999999997	0.2	dtsr	51	verb	list	3	4	nomatch	plonger	-1	1	p	1.0096
494.86210000000005	0.0	+	51	verb	list	3	5	nomatch	plonger	-1	1	p	1.0096
495.2455	0.2	doit	51	verb	list	3	6	nomatch	plonger	-1	1	p	1.0096
495.4452	0.0	+	51	verb	list	3	7	nomatch	plonger	-1	1	p	1.0096
495.845	0.2	beau	51	verb	list	3	8	nomatch	plonger	-1	1	p	1.0096
496.0449	0.0	+	51	verb	list	3	9	nomatch	plonger	-1	1	p	1.0096
496.4447	0.2	rouler	51	verb	list	3	10	nomatch	plonger	-1	1	p	1.0096
496.64459999999997	0.0	+	51	verb	list	3	11	nomatch	plonger	-1	1	p	1.0096
497.04449999999997	0.0	+	51	verb	list	3	12	nomatch	plonger	-1	1	p	1.0096
499.04359999999997	0.0	PLONGER	51	verb	list	3	13	nomatch	plonger	-1	1	p	1.0096
500.1101	0.0	+	51	verb	list	3	14	nomatch	plonger	-1	1	p	1.0096
500.05320000000006	0.0	[response]	51	verb	list	3	15	nomatch	plonger	-1	1	p	1.0096
509.43899999999996	0.0	+	52	verb	list	3	1	nomatch	sous	-1	1	p	0.78683
509.98879999999997	0.2	jrqn	52	verb	list	3	2	nomatch	sous	-1	1	p	0.78683
510.18870000000004	0.0	+	52	verb	list	3	3	nomatch	sous	-1	1	p	0.78683
510.60540000000003	0.2	rtgc	52	verb	list	3	4	nomatch	sous	-1	1	p	0.78683
510.789	0.0	+	52	verb	list	3	5	nomatch	sous	-1	1	p	0.78683
511.1888	0.2	mon	52	verb	list	3	6	nomatch	sous	-1	1	p	0.78683
511.3885	0.0	+	52	verb	list	3	7	nomatch	sous	-1	1	p	0.78683
511.788	0.2	nager	52	verb	list	3	8	nomatch	sous	-1	1	p	0.78683
511.98789999999997	0.0	+	52	verb	list	3	9	nomatch	sous	-1	1	p	0.78683
512.3877	0.2	vert	52	verb	list	3	10	nomatch	sous	-1	1	p	0.78683
512.5876000000001	0.0	+	52	verb	list	3	11	nomatch	sous	-1	1	p	0.78683
512.9875	0.0	+	52	verb	list	3	12	nomatch	sous	-1	1	p	0.78683
515.0039	0.0	SOUS	52	verb	list	3	13	nomatch	sous	-1	1	p	0.78683
515.8529	0.0	+	52	verb	list	3	14	nomatch	sous	-1	1	p	0.78683
515.7907	0.0	[response]	52	verb	list	3	15	nomatch	sous	-1	1	p	0.78683
517.3855	0.0	+	53	verb	phrase	3	1	match	parader	5	1	y	0.58944
517.9353	0.2	nlsvdwz	53	verb	phrase	3	2	match	parader	5	1	y	0.58944
518.1352	0.0	+	53	verb	phrase	3	3	match	parader	5	1	y	0.58944
518.535	0.2	lnpz	53	verb	phrase	3	4	match	parader	5	1	y	0.58944
518.7354	0.0	+	53	verb	phrase	3	5	match	parader	5	1	y	0.58944
519.135	0.2	va	53	verb	phrase	3	6	match	parader	5	1	y	0.58944
519.3347	0.0	+	53	verb	phrase	3	7	match	parader	5	1	y	0.58944
519.7345	0.2	trop	53	verb	phrase	3	8	match	parader	5	1	y	0.58944
519.9344	0.0	+	53	verb	phrase	3	9	match	parader	5	1	y	0.58944
520.3342	0.2	parader	53	verb	phrase	3	10	match	parader	5	1	y	0.58944
520.5341	0.0	+	53	verb	phrase	3	11	match	parader	5	1	y	0.58944
520.934	0.0	+	53	verb	phrase	3	12	match	parader	5	1	y	0.58944
522.9501	0.0	PARADER	53	verb	phrase	3	13	match	parader	5	1	y	0.58944
523.6663	0.0	+	53	verb	phrase	3	14	match	parader	5	1	y	0.58944
523.5395	0.0	[response]	53	verb	phrase	3	15	match	parader	5	1	y	0.58944
525.3487	0.0	+	54	noun	phrase	1	1	nomatch	mon	-1	1	p	0.66439
525.8984	0.2	bntfr	54	noun	phrase	1	2	nomatch	mon	-1	1	p	0.66439
526.0984	0.0	+	54	noun	phrase	1	3	nomatch	mon	-1	1	p	0.66439
526.4982	0.2	lnvt	54	noun	phrase	1	4	nomatch	mon	-1	1	p	0.66439
526.6983	0.0	+	54	noun	phrase	1	5	nomatch	mon	-1	1	p	0.66439
527.0979	0.2	hfs	54	noun	phrase	1	6	nomatch	mon	-1	1	p	0.66439
527.2978	0.0	+	54	noun	phrase	1	7	nomatch	mon	-1	1	p	0.66439
527.6977	0.2	hqblxjr	54	noun	phrase	1	8	nomatch	mon	-1	1	p	0.66439
527.8976	0.0	+	54	noun	phrase	1	9	nomatch	mon	-1	1	p	0.66439
528.2974	0.2	casier	54	noun	phrase	1	10	nomatch	mon	-1	1	p	0.66439
528.4973	0.0	+	54	noun	phrase	1	11	nomatch	mon	-1	1	p	0.66439
528.8971	0.0	+	54	noun	phrase	1	12	nomatch	mon	-1	1	p	0.66439
530.8963	0.0	MON	54	noun	phrase	1	13	nomatch	mon	-1	1	p	0.66439
531.6126	0.0	+	54	noun	phrase	1	14	nomatch	mon	-1	1	p	0.66439
531.5606	0.0	[response]	54	noun	phrase	1	15	nomatch	mon	-1	1	p	0.66439
533.2952	0.0	+	55	noun	phrase	1	1	match	petit	5	1	y	0.70622
533.8449	0.2	xvswgzj	55	noun	phrase	1	2	match	petit	5	1	y	0.70622
534.0449	0.0	+	55	noun	phrase	1	3	match	petit	5	1	y	0.70622
534.4447	0.2	kxqr	55	noun	phrase	1	4	match	petit	5	1	y	0.70622
534.6446	0.0	+	55	noun	phrase	1	5	match	petit	5	1	y	0.70622
535.0444	0.2	ldk	55	noun	phrase	1	6	match	petit	5	1	y	0.70622
535.2443000000001	0.0	+	55	noun	phrase	1	7	match	petit	5	1	y	0.70622
535.6448	0.2	jsngrcz	55	noun	phrase	1	8	match	petit	5	1	y	0.70622
535.8446	0.0	+	55	noun	phrase	1	9	match	petit	5	1	y	0.70622
536.2439	0.2	petit	55	noun	phrase	1	10	match	petit	5	1	y	0.70622
536.4438	0.0	+	55	noun	phrase	1	11	match	petit	5	1	y	0.70622
536.8436	0.0	+	55	noun	phrase	1	12	match	petit	5	1	y	0.70622
538.8432	0.0	PETIT	55	noun	phrase	1	13	match	petit	5	1	y	0.70622
539.6091	0.0	+	55	noun	phrase	1	14	match	petit	5	1	y	0.70622
539.5494	0.0	[response]	55	noun	phrase	1	15	match	petit	5	1	y	0.70622
541.2417	0.0	+	56	verb	list	4	1	nomatch	son	-1	1	p	0.63958
541.7915	0.2	zmtwscb	56	verb	list	4	2	nomatch	son	-1	1	p	0.63958
541.9914	0.0	+	56	verb	list	4	3	nomatch	son	-1	1	p	0.63958
542.3912	0.2	avec	56	verb	list	4	4	nomatch	son	-1	1	p	0.63958
542.5917000000001	0.0	+	56	verb	list	4	5	nomatch	son	-1	1	p	0.63958
542.9909	0.2	doit	56	verb	list	4	6	nomatch	son	-1	1	p	0.63958
543.1911	0.0	+	56	verb	list	4	7	nomatch	son	-1	1	p	0.63958
543.5907	0.2	vieux	56	verb	list	4	8	nomatch	son	-1	1	p	0.63958
543.7906	0.0	+	56	verb	list	4	9	nomatch	son	-1	1	p	0.63958
544.1904	0.2	voyager	56	verb	list	4	10	nomatch	son	-1	1	p	0.63958
544.3903	0.0	+	56	verb	list	4	11	nomatch	son	-1	1	p	0.63958
544.7901	0.0	+	56	verb	list	4	12	nomatch	son	-1	1	p	0.63958
546.7893	0.0	SON	56	verb	list	4	13	nomatch	son	-1	1	p	0.63958
547.4889000000001	0.0	+	56	verb	list	4	14	nomatch	son	-1	1	p	0.63958
547.4288	0.0	[response]	56	verb	list	4	15	nomatch	son	-1	1	p	0.63958
549.1882	0.0	+	57	verb	phrase	1	1	nomatch	mon	-1	1	p	0.6188600000000001
549.738	0.2	zbwfs	57	verb	phrase	1	2	nomatch	mon	-1	1	p	0.6188600000000001
549.9379	0.0	+	57	verb	phrase	1	3	nomatch	mon	-1	1	p	0.6188600000000001
550.3377	0.2	lnpz	57	verb	phrase	1	4	nomatch	mon	-1	1	p	0.6188600000000001
550.5376	0.0	+	57	verb	phrase	1	5	nomatch	mon	-1	1	p	0.6188600000000001
550.9374	0.2	vzgp	57	verb	phrase	1	6	nomatch	mon	-1	1	p	0.6188600000000001
551.1377	0.0	+	57	verb	phrase	1	7	nomatch	mon	-1	1	p	0.6188600000000001
551.5377	0.2	svt	57	verb	phrase	1	8	nomatch	mon	-1	1	p	0.6188600000000001
551.7378	0.0	+	57	verb	phrase	1	9	nomatch	mon	-1	1	p	0.6188600000000001
552.1372	0.2	plonger	57	verb	phrase	1	10	nomatch	mon	-1	1	p	0.6188600000000001
552.3369	0.0	+	57	verb	phrase	1	11	nomatch	mon	-1	1	p	0.6188600000000001
552.7366000000001	0.0	+	57	verb	phrase	1	12	nomatch	mon	-1	1	p	0.6188600000000001
554.7358	0.0	MON	57	verb	phrase	1	13	nomatch	mon	-1	1	p	0.6188600000000001
555.4188	0.0	+	57	verb	phrase	1	14	nomatch	mon	-1	1	p	0.6188600000000001
555.3546	0.0	[response]	57	verb	phrase	1	15	nomatch	mon	-1	1	p	0.6188600000000001
557.1347000000001	0.0	+	58	verb	list	2	1	nomatch	vieux	-1	1	p	0.5929
557.6845	0.2	jsc	58	verb	list	2	2	nomatch	vieux	-1	1	p	0.5929
557.8844	0.0	+	58	verb	list	2	3	nomatch	vieux	-1	1	p	0.5929
558.2842	0.2	lnvt	58	verb	list	2	4	nomatch	vieux	-1	1	p	0.5929
558.4841	0.0	+	58	verb	list	2	5	nomatch	vieux	-1	1	p	0.5929
558.8839	0.2	glhb	58	verb	list	2	6	nomatch	vieux	-1	1	p	0.5929
559.0839	0.0	+	58	verb	list	2	7	nomatch	vieux	-1	1	p	0.5929
559.4841	0.2	petit	58	verb	list	2	8	nomatch	vieux	-1	1	p	0.5929
559.7006	0.0	+	58	verb	list	2	9	nomatch	vieux	-1	1	p	0.5929
560.1006	0.2	nager	58	verb	list	2	10	nomatch	vieux	-1	1	p	0.5929
560.3	0.0	+	58	verb	list	2	11	nomatch	vieux	-1	1	p	0.5929
560.7006	0.0	+	58	verb	list	2	12	nomatch	vieux	-1	1	p	0.5929
562.6995000000001	0.0	VIEUX	58	verb	list	2	13	nomatch	vieux	-1	1	p	0.5929
563.4658000000001	0.0	+	58	verb	list	2	14	nomatch	vieux	-1	1	p	0.5929
563.2924	0.0	[response]	58	verb	list	2	15	nomatch	vieux	-1	1	p	0.5929
573.0948	0.0	+	59	noun	phrase	1	1	match	casier	5	1	y	0.52929
573.6441	0.2	vrhxs	59	noun	phrase	1	2	match	casier	5	1	y	0.52929
573.844	0.0	+	59	noun	phrase	1	3	match	casier	5	1	y	0.52929
574.2438	0.2	kxqr	59	noun	phrase	1	4	match	casier	5	1	y	0.52929
574.4438	0.0	+	59	noun	phrase	1	5	match	casier	5	1	y	0.52929
574.8436	0.2	ldk	59	noun	phrase	1	6	match	casier	5	1	y	0.52929
575.0435	0.0	+	59	noun	phrase	1	7	match	casier	5	1	y	0.52929
575.4433	0.2	ljqpv	59	noun	phrase	1	8	match	casier	5	1	y	0.52929
575.6432	0.0	+	59	noun	phrase	1	9	match	casier	5	1	y	0.52929
576.0431	0.2	casier	59	noun	phrase	1	10	match	casier	5	1	y	0.52929
576.243	0.0	+	59	noun	phrase	1	11	match	casier	5	1	y	0.52929
576.6428	0.0	+	59	noun	phrase	1	12	match	casier	5	1	y	0.52929
578.6419	0.0	CASIER	59	noun	phrase	1	13	match	casier	5	1	y	0.52929
579.225	0.0	+	59	noun	phrase	1	14	match	casier	5	1	y	0.52929
579.1712000000001	0.0	[response]	59	noun	phrase	1	15	match	casier	5	1	y	0.52929
581.0409	0.0	+	60	verb	phrase	1	1	match	vite	5	1	y	0.57472
581.5906	0.2	ghcbwq	60	verb	phrase	1	2	match	vite	5	1	y	0.57472
581.7905000000001	0.0	+	60	verb	phrase	1	3	match	vite	5	1	y	0.57472
582.191	0.2	dsv	60	verb	phrase	1	4	match	vite	5	1	y	0.57472
582.391	0.0	+	60	verb	phrase	1	5	match	vite	5	1	y	0.57472
582.8069	0.2	vzgp	60	verb	phrase	1	6	match	vite	5	1	y	0.57472
583.0067	0.0	+	60	verb	phrase	1	7	match	vite	5	1	y	0.57472
583.3898	0.2	fztsqb	60	verb	phrase	1	8	match	vite	5	1	y	0.57472
583.5897	0.0	+	60	verb	phrase	1	9	match	vite	5	1	y	0.57472
583.9896	0.2	vite	60	verb	phrase	1	10	match	vite	5	1	y	0.57472
584.2067	0.0	+	60	verb	phrase	1	11	match	vite	5	1	y	0.57472
584.5899000000001	0.0	+	60	verb	phrase	1	12	match	vite	5	1	y	0.57472
586.5884	0.0	VITE	60	verb	phrase	1	13	match	vite	5	1	y	0.57472
587.2215	0.0	+	60	verb	phrase	1	14	match	vite	5	1	y	0.57472
587.1631	0.0	[response]	60	verb	phrase	1	15	match	vite	5	1	y	0.57472
588.9874	0.0	+	61	verb	list	1	1	nomatch	sans	-1	1	p	0.65752
589.5371	0.2	lqzbrm	61	verb	list	1	2	nomatch	sans	-1	1	p	0.65752
589.737	0.0	+	61	verb	list	1	3	nomatch	sans	-1	1	p	0.65752
590.1369	0.2	dgpc	61	verb	list	1	4	nomatch	sans	-1	1	p	0.65752
590.3368	0.0	+	61	verb	list	1	5	nomatch	sans	-1	1	p	0.65752
590.7366000000001	0.2	ldk	61	verb	list	1	6	nomatch	sans	-1	1	p	0.65752
590.9365	0.0	+	61	verb	list	1	7	nomatch	sans	-1	1	p	0.65752
591.3363	0.2	smlc	61	verb	list	1	8	nomatch	sans	-1	1	p	0.65752
591.5362	0.0	+	61	verb	list	1	9	nomatch	sans	-1	1	p	0.65752
591.9364	0.2	chasser	61	verb	list	1	10	nomatch	sans	-1	1	p	0.65752
592.136	0.0	+	61	verb	list	1	11	nomatch	sans	-1	1	p	0.65752
592.5532000000001	0.0	+	61	verb	list	1	12	nomatch	sans	-1	1	p	0.65752
594.5349	0.0	SANS	61	verb	list	1	13	nomatch	sans	-1	1	p	0.65752
595.2513	0.0	+	61	verb	list	1	14	nomatch	sans	-1	1	p	0.65752
595.1924	0.0	[response]	61	verb	list	1	15	nomatch	sans	-1	1	p	0.65752
596.9339	0.0	+	62	verb	list	1	1	match	rouler	5	1	y	0.69679
597.4838	0.2	jnqkxb	62	verb	list	1	2	match	rouler	5	1	y	0.69679
597.6836	0.0	+	62	verb	list	1	3	match	rouler	5	1	y	0.69679
598.1	0.2	dtsr	62	verb	list	1	4	match	rouler	5	1	y	0.69679
598.3005	0.0	+	62	verb	list	1	5	match	rouler	5	1	y	0.69679
598.7	0.2	glhb	62	verb	list	1	6	match	rouler	5	1	y	0.69679
598.9165	0.0	+	62	verb	list	1	7	match	rouler	5	1	y	0.69679
599.3166	0.2	hqblxjr	62	verb	list	1	8	match	rouler	5	1	y	0.69679
599.4994	0.0	+	62	verb	list	1	9	match	rouler	5	1	y	0.69679
599.8992000000001	0.2	rouler	62	verb	list	1	10	match	rouler	5	1	y	0.69679
600.0991	0.0	+	62	verb	list	1	11	match	rouler	5	1	y	0.69679
600.499	0.0	+	62	verb	list	1	12	match	rouler	5	1	y	0.69679
602.4981	0.0	ROULER	62	verb	list	1	13	match	rouler	5	1	y	0.69679
603.2478	0.0	+	62	verb	list	1	14	match	rouler	5	1	y	0.69679
603.1949000000001	0.0	[response]	62	verb	list	1	15	match	rouler	5	1	y	0.69679
604.897	0.0	+	63	verb	list	4	1	nomatch	blanc	-1	1	p	1.1856
605.4468	0.2	wzc	63	verb	list	4	2	nomatch	blanc	-1	1	p	1.1856
605.6467	0.0	+	63	verb	list	4	3	nomatch	blanc	-1	1	p	1.1856
606.0467	0.2	pour	63	verb	list	4	4	nomatch	blanc	-1	1	p	1.1856
606.2467	0.0	+	63	verb	list	4	5	nomatch	blanc	-1	1	p	1.1856
606.6632	0.2	peut	63	verb	list	4	6	nomatch	blanc	-1	1	p	1.1856
606.8467	0.0	+	63	verb	list	4	7	nomatch	blanc	-1	1	p	1.1856
607.246	0.2	nouveau	63	verb	list	4	8	nomatch	blanc	-1	1	p	1.1856
607.4459	0.0	+	63	verb	list	4	9	nomatch	blanc	-1	1	p	1.1856
607.8457	0.2	danser	63	verb	list	4	10	nomatch	blanc	-1	1	p	1.1856
608.0457	0.0	+	63	verb	list	4	11	nomatch	blanc	-1	1	p	1.1856
608.4455	0.0	+	63	verb	list	4	12	nomatch	blanc	-1	1	p	1.1856
610.4446	0.0	BLANC	63	verb	list	4	13	nomatch	blanc	-1	1	p	1.1856
611.6941	0.0	+	63	verb	list	4	14	nomatch	blanc	-1	1	p	1.1856
611.6303	0.0	[response]	63	verb	list	4	15	nomatch	blanc	-1	1	p	1.1856
612.8435000000001	0.0	+	64	verb	list	1	1	nomatch	plonger	-1	1	p	1.1627
613.3933	0.2	wfjzn	64	verb	list	1	2	nomatch	plonger	-1	1	p	1.1627
613.5932	0.0	+	64	verb	list	1	3	nomatch	plonger	-1	1	p	1.1627
613.993	0.2	ptxf	64	verb	list	1	4	nomatch	plonger	-1	1	p	1.1627
614.1929	0.0	+	64	verb	list	1	5	nomatch	plonger	-1	1	p	1.1627
614.5928	0.2	vzgp	64	verb	list	1	6	nomatch	plonger	-1	1	p	1.1627
614.7927	0.0	+	64	verb	list	1	7	nomatch	plonger	-1	1	p	1.1627
615.1925	0.2	bdkwc	64	verb	list	1	8	nomatch	plonger	-1	1	p	1.1627
615.3924000000001	0.0	+	64	verb	list	1	9	nomatch	plonger	-1	1	p	1.1627
615.7929	0.2	jongler	64	verb	list	1	10	nomatch	plonger	-1	1	p	1.1627
615.9922	0.0	+	64	verb	list	1	11	nomatch	plonger	-1	1	p	1.1627
616.4092	0.0	+	64	verb	list	1	12	nomatch	plonger	-1	1	p	1.1627
618.3911	0.0	PLONGER	64	verb	list	1	13	nomatch	plonger	-1	1	p	1.1627
619.6072	0.0	+	64	verb	list	1	14	nomatch	plonger	-1	1	p	1.1627
619.5538	0.0	[response]	64	verb	list	1	15	nomatch	plonger	-1	1	p	1.1627
620.7901	0.0	+	65	noun	list	1	1	match	casier	5	1	y	0.52234
621.3398	0.2	nzspfx	65	noun	list	1	2	match	casier	5	1	y	0.52234
621.5397	0.0	+	65	noun	list	1	3	match	casier	5	1	y	0.52234
621.9395000000001	0.2	lnvt	65	noun	list	1	4	match	casier	5	1	y	0.52234
622.1394	0.0	+	65	noun	list	1	5	match	casier	5	1	y	0.52234
622.5393	0.2	glhb	65	noun	list	1	6	match	casier	5	1	y	0.52234
622.7392	0.0	+	65	noun	list	1	7	match	casier	5	1	y	0.52234
623.139	0.2	rxbz	65	noun	list	1	8	match	casier	5	1	y	0.52234
623.3389	0.0	+	65	noun	list	1	9	match	casier	5	1	y	0.52234
623.7394	0.2	casier	65	noun	list	1	10	match	casier	5	1	y	0.52234
623.9559	0.0	+	65	noun	list	1	11	match	casier	5	1	y	0.52234
624.3385000000001	0.0	+	65	noun	list	1	12	match	casier	5	1	y	0.52234
626.3379	0.0	CASIER	65	noun	list	1	13	match	casier	5	1	y	0.52234
626.988	0.0	+	65	noun	list	1	14	match	casier	5	1	y	0.52234
626.8602	0.0	[response]	65	noun	list	1	15	match	casier	5	1	y	0.52234
628.7366000000001	0.0	+	66	noun	phrase	2	1	nomatch	vert	-1	1	p	0.56068
629.2863	0.2	zxj	66	noun	phrase	2	2	nomatch	vert	-1	1	p	0.56068
629.4862	0.0	+	66	noun	phrase	2	3	nomatch	vert	-1	1	p	0.56068
629.8862	0.2	kxqr	66	noun	phrase	2	4	nomatch	vert	-1	1	p	0.56068
630.1029	0.0	+	66	noun	phrase	2	5	nomatch	vert	-1	1	p	0.56068
630.4863	0.2	ldk	66	noun	phrase	2	6	nomatch	vert	-1	1	p	0.56068
630.6861	0.0	+	66	noun	phrase	2	7	nomatch	vert	-1	1	p	0.56068
631.0855	0.2	voilier	66	noun	phrase	2	8	nomatch	vert	-1	1	p	0.56068
631.2854	0.0	+	66	noun	phrase	2	9	nomatch	vert	-1	1	p	0.56068
631.6853	0.2	noir	66	noun	phrase	2	10	nomatch	vert	-1	1	p	0.56068
631.8852	0.0	+	66	noun	phrase	2	11	nomatch	vert	-1	1	p	0.56068
632.285	0.0	+	66	noun	phrase	2	12	nomatch	vert	-1	1	p	0.56068
634.3014000000001	0.0	VERT	66	noun	phrase	2	13	nomatch	vert	-1	1	p	0.56068
634.9172	0.0	+	66	noun	phrase	2	14	nomatch	vert	-1	1	p	0.56068
634.8621	0.0	[response]	66	noun	phrase	2	15	nomatch	vert	-1	1	p	0.56068
644.6963000000001	0.0	+	67	noun	list	1	1	match	vite	5	1	y	0.49978000000000006
645.246	0.2	hmbxwpz	67	noun	list	1	2	match	vite	5	1	y	0.49978000000000006
645.4459	0.0	+	67	noun	list	1	3	match	vite	5	1	y	0.49978000000000006
645.8457	0.2	lnvt	67	noun	list	1	4	match	vite	5	1	y	0.49978000000000006
646.0456	0.0	+	67	noun	list	1	5	match	vite	5	1	y	0.49978000000000006
646.4454000000001	0.2	vzgp	67	noun	list	1	6	match	vite	5	1	y	0.49978000000000006
646.6453	0.0	+	67	noun	list	1	7	match	vite	5	1	y	0.49978000000000006
647.0452	0.2	knshjdqz	67	noun	list	1	8	match	vite	5	1	y	0.49978000000000006
647.2451	0.0	+	67	noun	list	1	9	match	vite	5	1	y	0.49978000000000006
647.679	0.2	vite	67	noun	list	1	10	match	vite	5	1	y	0.49978000000000006
647.8454	0.0	+	67	noun	list	1	11	match	vite	5	1	y	0.49978000000000006
648.2446	0.0	+	67	noun	list	1	12	match	vite	5	1	y	0.49978000000000006
650.2444	0.0	VITE	67	noun	list	1	13	match	vite	5	1	y	0.49978000000000006
650.8773	0.0	+	67	noun	list	1	14	match	vite	5	1	y	0.49978000000000006
650.7442	0.0	[response]	67	noun	list	1	15	match	vite	5	1	y	0.49978000000000006
652.6427	0.0	+	68	verb	phrase	1	1	match	beaucoup	5	1	y	0.93265
653.1925	0.2	mtwj	68	verb	phrase	1	2	match	beaucoup	5	1	y	0.93265
653.3924000000001	0.0	+	68	verb	phrase	1	3	match	beaucoup	5	1	y	0.93265
653.7922	0.2	lnpz	68	verb	phrase	1	4	match	beaucoup	5	1	y	0.93265
653.9921	0.0	+	68	verb	phrase	1	5	match	beaucoup	5	1	y	0.93265
654.3919	0.2	glhb	68	verb	phrase	1	6	match	beaucoup	5	1	y	0.93265
654.5918	0.0	+	68	verb	phrase	1	7	match	beaucoup	5	1	y	0.93265
654.9917	0.2	gkbvqhm	68	verb	phrase	1	8	match	beaucoup	5	1	y	0.93265
655.1921	0.0	+	68	verb	phrase	1	9	match	beaucoup	5	1	y	0.93265
655.5919	0.2	beaucoup	68	verb	phrase	1	10	match	beaucoup	5	1	y	0.93265
655.7915	0.0	+	68	verb	phrase	1	11	match	beaucoup	5	1	y	0.93265
656.2084	0.0	+	68	verb	phrase	1	12	match	beaucoup	5	1	y	0.93265
658.1903	0.0	BEAUCOUP	68	verb	phrase	1	13	match	beaucoup	5	1	y	0.93265
659.1898	0.0	+	68	verb	phrase	1	14	match	beaucoup	5	1	y	0.93265
659.1229000000001	0.0	[response]	68	verb	phrase	1	15	match	beaucoup	5	1	y	0.93265
668.5857	0.0	+	69	verb	list	4	1	match	marc	2	1	y	0.66406
669.1354	0.2	lvgkh	69	verb	list	4	2	match	marc	2	1	y	0.66406
669.3354	0.0	+	69	verb	list	4	3	match	marc	2	1	y	0.66406
669.7352	0.2	marc	69	verb	list	4	4	match	marc	2	1	y	0.66406
669.9525	0.0	+	69	verb	list	4	5	match	marc	2	1	y	0.66406
670.3357	0.2	leur	69	verb	list	4	6	match	marc	2	1	y	0.66406
670.5521	0.0	+	69	verb	list	4	7	match	marc	2	1	y	0.66406
670.9349	0.2	plonger	69	verb	list	4	8	match	marc	2	1	y	0.66406
671.1347000000001	0.0	+	69	verb	list	4	9	match	marc	2	1	y	0.66406
671.5344	0.2	vert	69	verb	list	4	10	match	marc	2	1	y	0.66406
671.7343	0.0	+	69	verb	list	4	11	match	marc	2	1	y	0.66406
672.1341	0.0	+	69	verb	list	4	12	match	marc	2	1	y	0.66406
674.1499	0.0	MARC	69	verb	list	4	13	match	marc	2	1	y	0.66406
674.8663	0.0	+	69	verb	list	4	14	match	marc	2	1	y	0.66406
674.814	0.0	[response]	69	verb	list	4	15	match	marc	2	1	y	0.66406
676.5488	0.0	+	70	verb	phrase	2	1	match	vite	5	1	y	0.64192
677.0986	0.2	vdsj	70	verb	phrase	2	2	match	vite	5	1	y	0.64192
677.2985	0.0	+	70	verb	phrase	2	3	match	vite	5	1	y	0.64192
677.7152	0.2	rtgc	70	verb	phrase	2	4	match	vite	5	1	y	0.64192
677.8983000000001	0.0	+	70	verb	phrase	2	5	match	vite	5	1	y	0.64192
678.2981	0.2	jq	70	verb	phrase	2	6	match	vite	5	1	y	0.64192
678.498	0.0	+	70	verb	phrase	2	7	match	vite	5	1	y	0.64192
678.8978	0.2	parader	70	verb	phrase	2	8	match	vite	5	1	y	0.64192
679.0977	0.0	+	70	verb	phrase	2	9	match	vite	5	1	y	0.64192
679.4978	0.2	vite	70	verb	phrase	2	10	match	vite	5	1	y	0.64192
679.6975	0.0	+	70	verb	phrase	2	11	match	vite	5	1	y	0.64192
680.0973	0.0	+	70	verb	phrase	2	12	match	vite	5	1	y	0.64192
682.0964	0.0	VITE	70	verb	phrase	2	13	match	vite	5	1	y	0.64192
682.7961	0.0	+	70	verb	phrase	2	14	match	vite	5	1	y	0.64192
682.7383000000001	0.0	[response]	70	verb	phrase	2	15	match	vite	5	1	y	0.64192
684.4954	0.0	+	71	verb	list	1	1	match	chasser	5	1	y	0.78915
685.0451	0.2	twx	71	verb	list	1	2	match	chasser	5	1	y	0.78915
685.245	0.0	+	71	verb	list	1	3	match	chasser	5	1	y	0.78915
685.6449	0.2	dtsr	71	verb	list	1	4	match	chasser	5	1	y	0.78915
685.8448	0.0	+	71	verb	list	1	5	match	chasser	5	1	y	0.78915
686.2449	0.2	glhb	71	verb	list	1	6	match	chasser	5	1	y	0.78915
686.4452	0.0	+	71	verb	list	1	7	match	chasser	5	1	y	0.78915
686.8615	0.2	lqsg	71	verb	list	1	8	match	chasser	5	1	y	0.78915
687.0445	0.0	+	71	verb	list	1	9	match	chasser	5	1	y	0.78915
687.4441	0.2	chasser	71	verb	list	1	10	match	chasser	5	1	y	0.78915
687.644	0.0	+	71	verb	list	1	11	match	chasser	5	1	y	0.78915
688.0438	0.0	+	71	verb	list	1	12	match	chasser	5	1	y	0.78915
690.0429	0.0	CHASSER	71	verb	list	1	13	match	chasser	5	1	y	0.78915
690.9097	0.0	+	71	verb	list	1	14	match	chasser	5	1	y	0.78915
690.8321	0.0	[response]	71	verb	list	1	15	match	chasser	5	1	y	0.78915
692.4426	0.0	+	72	verb	phrase	3	1	match	mieux	4	1	y	0.48167
692.9916000000001	0.2	wmgpf	72	verb	phrase	3	2	match	mieux	4	1	y	0.48167
693.1915	0.0	+	72	verb	phrase	3	3	match	mieux	4	1	y	0.48167
693.5914	0.2	hgvw	72	verb	phrase	3	4	match	mieux	4	1	y	0.48167
693.7919	0.0	+	72	verb	phrase	3	5	match	mieux	4	1	y	0.48167
694.1917	0.2	peut	72	verb	phrase	3	6	match	mieux	4	1	y	0.48167
694.3916	0.0	+	72	verb	phrase	3	7	match	mieux	4	1	y	0.48167
694.7909	0.2	mieux	72	verb	phrase	3	8	match	mieux	4	1	y	0.48167
694.9915	0.0	+	72	verb	phrase	3	9	match	mieux	4	1	y	0.48167
695.3906000000001	0.2	danser	72	verb	phrase	3	10	match	mieux	4	1	y	0.48167
695.5905	0.0	+	72	verb	phrase	3	11	match	mieux	4	1	y	0.48167
695.9903	0.0	+	72	verb	phrase	3	12	match	mieux	4	1	y	0.48167
697.9901	0.0	MIEUX	72	verb	phrase	3	13	match	mieux	4	1	y	0.48167
698.606	0.0	+	72	verb	phrase	3	14	match	mieux	4	1	y	0.48167
698.4718	0.0	[response]	72	verb	phrase	3	15	match	mieux	4	1	y	0.48167
700.3884	0.0	+	73	verb	list	3	1	match	plonger	4	1	y	0.79604
700.9388	0.2	hqcgvrl	73	verb	list	3	2	match	plonger	4	1	y	0.79604
701.1383	0.0	+	73	verb	list	3	3	match	plonger	4	1	y	0.79604
701.5384	0.2	lnpz	73	verb	list	3	4	match	plonger	4	1	y	0.79604
701.7383	0.0	+	73	verb	list	3	5	match	plonger	4	1	y	0.79604
702.1376	0.2	son	73	verb	list	3	6	match	plonger	4	1	y	0.79604
702.3375	0.0	+	73	verb	list	3	7	match	plonger	4	1	y	0.79604
702.7373	0.2	plonger	73	verb	list	3	8	match	plonger	4	1	y	0.79604
702.9373	0.0	+	73	verb	list	3	9	match	plonger	4	1	y	0.79604
703.3371	0.2	blanc	73	verb	list	3	10	match	plonger	4	1	y	0.79604
703.537	0.0	+	73	verb	list	3	11	match	plonger	4	1	y	0.79604
703.9368000000001	0.0	+	73	verb	list	3	12	match	plonger	4	1	y	0.79604
705.9359000000001	0.0	PLONGER	73	verb	list	3	13	match	plonger	4	1	y	0.79604
706.7856	0.0	+	73	verb	list	3	14	match	plonger	4	1	y	0.79604
706.732	0.0	[response]	73	verb	list	3	15	match	plonger	4	1	y	0.79604
708.3349000000001	0.0	+	74	verb	list	3	1	match	vieux	4	1	y	0.6531
708.8846	0.2	nhmb	74	verb	list	3	2	match	vieux	4	1	y	0.6531
709.0845	0.0	+	74	verb	list	3	3	match	vieux	4	1	y	0.6531
709.4844	0.2	lnmr	74	verb	list	3	4	match	vieux	4	1	y	0.6531
709.6843	0.0	+	74	verb	list	3	5	match	vieux	4	1	y	0.6531
710.0841	0.2	peut	74	verb	list	3	6	match	vieux	4	1	y	0.6531
710.284	0.0	+	74	verb	list	3	7	match	vieux	4	1	y	0.6531
710.684	0.2	vieux	74	verb	list	3	8	match	vieux	4	1	y	0.6531
710.8838000000001	0.0	+	74	verb	list	3	9	match	vieux	4	1	y	0.6531
711.2837000000001	0.2	nager	74	verb	list	3	10	match	vieux	4	1	y	0.6531
711.5005	0.0	+	74	verb	list	3	11	match	vieux	4	1	y	0.6531
711.9	0.0	+	74	verb	list	3	12	match	vieux	4	1	y	0.6531
713.8991	0.0	VIEUX	74	verb	list	3	13	match	vieux	4	1	y	0.6531
714.6154	0.0	+	74	verb	list	3	14	match	vieux	4	1	y	0.6531
714.5522	0.0	[response]	74	verb	list	3	15	match	vieux	4	1	y	0.6531
716.2981	0.0	+	75	noun	phrase	4	1	nomatch	leur	-1	0	TIMEOUT	-1.0
716.8478	0.2	zsxf	75	noun	phrase	4	2	nomatch	leur	-1	0	TIMEOUT	-1.0
717.0477	0.0	+	75	noun	phrase	4	3	nomatch	leur	-1	0	TIMEOUT	-1.0
717.4475	0.2	avec	75	noun	phrase	4	4	nomatch	leur	-1	0	TIMEOUT	-1.0
717.6474000000001	0.0	+	75	noun	phrase	4	5	nomatch	leur	-1	0	TIMEOUT	-1.0
718.0473000000001	0.2	son	75	noun	phrase	4	6	nomatch	leur	-1	0	TIMEOUT	-1.0
718.2472	0.0	+	75	noun	phrase	4	7	nomatch	leur	-1	0	TIMEOUT	-1.0
718.647	0.2	cendrier	75	noun	phrase	4	8	nomatch	leur	-1	0	TIMEOUT	-1.0
718.8469	0.0	+	75	noun	phrase	4	9	nomatch	leur	-1	0	TIMEOUT	-1.0
719.2467	0.2	vert	75	noun	phrase	4	10	nomatch	leur	-1	0	TIMEOUT	-1.0
719.4467	0.0	+	75	noun	phrase	4	11	nomatch	leur	-1	0	TIMEOUT	-1.0
719.8637	0.0	+	75	noun	phrase	4	12	nomatch	leur	-1	0	TIMEOUT	-1.0
721.8456	0.0	LEUR	75	noun	phrase	4	13	nomatch	leur	-1	0	TIMEOUT	-1.0
724.2445	0.0	+	76	verb	phrase	2	1	match	plus	4	1	y	0.6539000000000001
724.8443	0.2	ncskr	76	verb	phrase	2	2	match	plus	4	1	y	0.6539000000000001
725.0442	0.0	+	76	verb	phrase	2	3	match	plus	4	1	y	0.6539000000000001
725.444	0.2	dgpc	76	verb	phrase	2	4	match	plus	4	1	y	0.6539000000000001
725.6439	0.0	+	76	verb	phrase	2	5	match	plus	4	1	y	0.6539000000000001
726.0437000000001	0.2	vzgp	76	verb	phrase	2	6	match	plus	4	1	y	0.6539000000000001
726.2437	0.0	+	76	verb	phrase	2	7	match	plus	4	1	y	0.6539000000000001
726.6435	0.2	plus	76	verb	phrase	2	8	match	plus	4	1	y	0.6539000000000001
726.8434	0.0	+	76	verb	phrase	2	9	match	plus	4	1	y	0.6539000000000001
727.2432	0.2	danser	76	verb	phrase	2	10	match	plus	4	1	y	0.6539000000000001
727.4431	0.0	+	76	verb	phrase	2	11	match	plus	4	1	y	0.6539000000000001
727.8433	0.0	+	76	verb	phrase	2	12	match	plus	4	1	y	0.6539000000000001
729.8421	0.0	PLUS	76	verb	phrase	2	13	match	plus	4	1	y	0.6539000000000001
730.6423	0.0	+	76	verb	phrase	2	14	match	plus	4	1	y	0.6539000000000001
730.496	0.0	[response]	76	verb	phrase	2	15	match	plus	4	1	y	0.6539000000000001
732.241	0.0	+	77	verb	phrase	1	1	match	beaucoup	5	1	y	0.44459
732.7908	0.2	tmkvlx	77	verb	phrase	1	2	match	beaucoup	5	1	y	0.44459
732.9907000000001	0.0	+	77	verb	phrase	1	3	match	beaucoup	5	1	y	0.44459
733.3905	0.2	dsv	77	verb	phrase	1	4	match	beaucoup	5	1	y	0.44459
733.5904	0.0	+	77	verb	phrase	1	5	match	beaucoup	5	1	y	0.44459
734.0076	0.2	glhb	77	verb	phrase	1	6	match	beaucoup	5	1	y	0.44459
734.1907	0.0	+	77	verb	phrase	1	7	match	beaucoup	5	1	y	0.44459
734.5902	0.2	cfmhptg	77	verb	phrase	1	8	match	beaucoup	5	1	y	0.44459
734.7902	0.0	+	77	verb	phrase	1	9	match	beaucoup	5	1	y	0.44459
735.1903	0.2	beaucoup	77	verb	phrase	1	10	match	beaucoup	5	1	y	0.44459
735.3896	0.0	+	77	verb	phrase	1	11	match	beaucoup	5	1	y	0.44459
735.7895	0.0	+	77	verb	phrase	1	12	match	beaucoup	5	1	y	0.44459
737.8053	0.0	BEAUCOUP	77	verb	phrase	1	13	match	beaucoup	5	1	y	0.44459
738.3050000000001	0.0	+	77	verb	phrase	1	14	match	beaucoup	5	1	y	0.44459
738.2499	0.0	[response]	77	verb	phrase	1	15	match	beaucoup	5	1	y	0.44459
740.1879	0.0	+	78	verb	phrase	3	1	match	doit	3	1	y	0.5137
740.7374	0.2	bqpw	78	verb	phrase	3	2	match	doit	3	1	y	0.5137
740.9375	0.0	+	78	verb	phrase	3	3	match	doit	3	1	y	0.5137
741.3371	0.2	dgpc	78	verb	phrase	3	4	match	doit	3	1	y	0.5137
741.5369000000001	0.0	+	78	verb	phrase	3	5	match	doit	3	1	y	0.5137
741.9368000000001	0.2	doit	78	verb	phrase	3	6	match	doit	3	1	y	0.5137
742.1367	0.0	+	78	verb	phrase	3	7	match	doit	3	1	y	0.5137
742.5365	0.2	danser	78	verb	phrase	3	8	match	doit	3	1	y	0.5137
742.7364	0.0	+	78	verb	phrase	3	9	match	doit	3	1	y	0.5137
743.1362	0.2	tard	78	verb	phrase	3	10	match	doit	3	1	y	0.5137
743.3361	0.0	+	78	verb	phrase	3	11	match	doit	3	1	y	0.5137
743.736	0.0	+	78	verb	phrase	3	12	match	doit	3	1	y	0.5137
745.7523	0.0	DOIT	78	verb	phrase	3	13	match	doit	3	1	y	0.5137
746.3853	0.0	+	78	verb	phrase	3	14	match	doit	3	1	y	0.5137
746.266	0.0	[response]	78	verb	phrase	3	15	match	doit	3	1	y	0.5137
748.134	0.0	+	79	noun	phrase	2	1	nomatch	rocher	-1	1	p	0.7544400000000001
748.6838	0.2	blv	79	noun	phrase	2	2	nomatch	rocher	-1	1	p	0.7544400000000001
748.8837	0.0	+	79	noun	phrase	2	3	nomatch	rocher	-1	1	p	0.7544400000000001
749.2836	0.2	lnmr	79	noun	phrase	2	4	nomatch	rocher	-1	1	p	0.7544400000000001
749.5001	0.0	+	79	noun	phrase	2	5	nomatch	rocher	-1	1	p	0.7544400000000001
749.8999	0.2	ldk	79	noun	phrase	2	6	nomatch	rocher	-1	1	p	0.7544400000000001
750.1005	0.0	+	79	noun	phrase	2	7	nomatch	rocher	-1	1	p	0.7544400000000001
750.5	0.2	petit	79	noun	phrase	2	8	nomatch	rocher	-1	1	p	0.7544400000000001
750.7002	0.0	+	79	noun	phrase	2	9	nomatch	rocher	-1	1	p	0.7544400000000001
751.1167	0.2	clavier	79	noun	phrase	2	10	nomatch	rocher	-1	1	p	0.7544400000000001
751.2999	0.0	+	79	noun	phrase	2	11	nomatch	rocher	-1	1	p	0.7544400000000001
751.6991	0.0	+	79	noun	phrase	2	12	nomatch	rocher	-1	1	p	0.7544400000000001
753.6983	0.0	ROCHER	79	noun	phrase	2	13	nomatch	rocher	-1	1	p	0.7544400000000001
754.5146	0.0	+	79	noun	phrase	2	14	nomatch	rocher	-1	1	p	0.7544400000000001
754.4527	0.0	[response]	79	noun	phrase	2	15	nomatch	rocher	-1	1	p	0.7544400000000001
756.0972	0.0	+	80	verb	phrase	2	1	match	chasser	4	1	y	0.67018
756.647	0.2	dqsgkzx	80	verb	phrase	2	2	match	chasser	4	1	y	0.67018
756.8469	0.0	+	80	verb	phrase	2	3	match	chasser	4	1	y	0.67018
757.2467	0.2	dsv	80	verb	phrase	2	4	match	chasser	4	1	y	0.67018
757.4466	0.0	+	80	verb	phrase	2	5	match	chasser	4	1	y	0.67018
757.8464	0.2	jq	80	verb	phrase	2	6	match	chasser	4	1	y	0.67018
758.0463	0.0	+	80	verb	phrase	2	7	match	chasser	4	1	y	0.67018
758.4468	0.2	chasser	80	verb	phrase	2	8	match	chasser	4	1	y	0.67018
758.6467	0.0	+	80	verb	phrase	2	9	match	chasser	4	1	y	0.67018
759.0629	0.2	loin	80	verb	phrase	2	10	match	chasser	4	1	y	0.67018
759.2458	0.0	+	80	verb	phrase	2	11	match	chasser	4	1	y	0.67018
759.6456000000001	0.0	+	80	verb	phrase	2	12	match	chasser	4	1	y	0.67018
761.6455	0.0	CHASSER	80	verb	phrase	2	13	match	chasser	4	1	y	0.67018
762.4284	0.0	+	80	verb	phrase	2	14	match	chasser	4	1	y	0.67018
764.0437000000001	0.0	+	80	verb	phrase	2	15	match	chasser	4	1	y	0.67018
765.1103	0.0	+	80	verb	phrase	2	16	match	chasser	4	1	y	0.67018
765.2265	0.0	+	80	verb	phrase	2	17	match	chasser	4	1	y	0.67018
766.5093	0.0	+	80	verb	phrase	2	18	match	chasser	4	1	y	0.67018
766.6092	0.0	+	80	verb	phrase	2	19	match	chasser	4	1	y	0.67018
768.0253	0.0	+	80	verb	phrase	2	20	match	chasser	4	1	y	0.67018
768.1252000000001	0.0	+	80	verb	phrase	2	21	match	chasser	4	1	y	0.67018
769.5246	0.0	+	80	verb	phrase	2	22	match	chasser	4	1	y	0.67018
769.6246	0.0	+	80	verb	phrase	2	23	match	chasser	4	1	y	0.67018
771.0073	0.0	+	80	verb	phrase	2	24	match	chasser	4	1	y	0.67018
771.1073	0.0	+	80	verb	phrase	2	25	match	chasser	4	1	y	0.67018
772.5233000000001	0.0	+	80	verb	phrase	2	26	match	chasser	4	1	y	0.67018
772.6233	0.0	+	80	verb	phrase	2	27	match	chasser	4	1	y	0.67018
774.0226	0.0	+	80	verb	phrase	2	28	match	chasser	4	1	y	0.67018
774.1226	0.0	+	80	verb	phrase	2	29	match	chasser	4	1	y	0.67018
775.522	0.0	+	80	verb	phrase	2	30	match	chasser	4	1	y	0.67018
775.6219	0.0	+	80	verb	phrase	2	31	match	chasser	4	1	y	0.67018
777.0213	0.0	+	80	verb	phrase	2	32	match	chasser	4	1	y	0.67018
777.1213	0.0	+	80	verb	phrase	2	33	match	chasser	4	1	y	0.67018
778.5207	0.0	+	80	verb	phrase	2	34	match	chasser	4	1	y	0.67018
778.6206	0.0	+	80	verb	phrase	2	35	match	chasser	4	1	y	0.67018
781.1695	0.0	+	80	verb	phrase	2	36	match	chasser	4	1	y	0.67018
762.3157	0.0	[response]	80	verb	phrase	2	37	match	chasser	4	1	y	0.67018
