onset	duration	stim	trial_number	trial_type	trial_structure	trial_length	sequential_position	probe_type	probe	probe_position	response_correct	response_key	response_time
0.06080000000000041	0.0	+	1	noun	list	4	1	match	grenier	4	1	y	0.90342
0.5439000000000007	0.2	vgw	1	noun	list	4	2	match	grenier	4	1	y	0.90342
0.7438000000000002	0.0	+	1	noun	list	4	3	match	grenier	4	1	y	0.90342
1.1435999999999993	0.2	sans	1	noun	list	4	4	match	grenier	4	1	y	0.90342
1.3434999999999988	0.0	+	1	noun	list	4	5	match	grenier	4	1	y	0.90342
1.743300000000005	0.2	va	1	noun	list	4	6	match	grenier	4	1	y	0.90342
1.9433000000000007	0.0	+	1	noun	list	4	7	match	grenier	4	1	y	0.90342
2.3430999999999997	0.2	grenier	1	noun	list	4	8	match	grenier	4	1	y	0.90342
2.5429999999999993	0.0	+	1	noun	list	4	9	match	grenier	4	1	y	0.90342
2.9428000000000054	0.2	tôt	1	noun	list	4	10	match	grenier	4	1	y	0.90342
3.142700000000005	0.0	+	1	noun	list	4	11	match	grenier	4	1	y	0.90342
3.5426	0.0	+	1	noun	list	4	12	match	grenier	4	1	y	0.90342
5.541699999999999	0.0	GRENIER	1	noun	list	4	13	match	grenier	4	1	y	0.90342
6.507899999999999	0.0	+	1	noun	list	4	14	match	grenier	4	1	y	0.90342
6.445100000000004	0.0	[response]	1	noun	list	4	15	match	grenier	4	1	y	0.90342
7.940600000000003	0.0	+	2	noun	list	4	1	match	adam	2	1	y	0.57924
8.490400000000001	0.2	nrxzmft	2	noun	list	4	2	match	adam	2	1	y	0.57924
8.6903	0.0	+	2	noun	list	4	3	match	adam	2	1	y	0.57924
9.0901	0.2	adam	2	noun	list	4	4	match	adam	2	1	y	0.57924
9.29	0.0	+	2	noun	list	4	5	match	adam	2	1	y	0.57924
9.689800000000005	0.2	son	2	noun	list	4	6	match	adam	2	1	y	0.57924
9.889800000000001	0.0	+	2	noun	list	4	7	match	adam	2	1	y	0.57924
10.2896	0.2	trop	2	noun	list	4	8	match	adam	2	1	y	0.57924
10.4895	0.0	+	2	noun	list	4	9	match	adam	2	1	y	0.57924
10.889299999999999	0.2	panier	2	noun	list	4	10	match	adam	2	1	y	0.57924
11.089200000000005	0.0	+	2	noun	list	4	11	match	adam	2	1	y	0.57924
11.4891	0.0	+	2	noun	list	4	12	match	adam	2	1	y	0.57924
13.488199999999999	0.0	ADAM	2	noun	list	4	13	match	adam	2	1	y	0.57924
14.121200000000002	0.0	+	2	noun	list	4	14	match	adam	2	1	y	0.57924
14.0674	0.0	[response]	2	noun	list	4	15	match	adam	2	1	y	0.57924
15.887100000000004	0.0	+	3	noun	list	3	1	match	tôt	5	1	y	1.067
16.4369	0.2	rsld	3	noun	list	3	2	match	tôt	5	1	y	1.067
16.6368	0.0	+	3	noun	list	3	3	match	tôt	5	1	y	1.067
17.036600000000007	0.2	pcms	3	noun	list	3	4	match	tôt	5	1	y	1.067
17.236500000000007	0.0	+	3	noun	list	3	5	match	tôt	5	1	y	1.067
17.63640000000001	0.2	doit	3	noun	list	3	6	match	tôt	5	1	y	1.067
17.83630000000001	0.0	+	3	noun	list	3	7	match	tôt	5	1	y	1.067
18.236100000000008	0.2	cendrier	3	noun	list	3	8	match	tôt	5	1	y	1.067
18.436000000000007	0.0	+	3	noun	list	3	9	match	tôt	5	1	y	1.067
18.835800000000006	0.2	tôt	3	noun	list	3	10	match	tôt	5	1	y	1.067
19.035700000000006	0.0	+	3	noun	list	3	11	match	tôt	5	1	y	1.067
19.435600000000008	0.0	+	3	noun	list	3	12	match	tôt	5	1	y	1.067
21.434700000000007	0.0	TÔT	3	noun	list	3	13	match	tôt	5	1	y	1.067
22.567499999999995	0.0	+	3	noun	list	3	14	match	tôt	5	1	y	1.067
22.50160000000001	0.0	[response]	3	noun	list	3	15	match	tôt	5	1	y	1.067
23.850300000000004	0.0	+	4	verb	phrase	1	1	match	trop	5	1	y	0.67311
24.400000000000006	0.2	sknql	4	verb	phrase	1	2	match	trop	5	1	y	0.67311
24.60000000000001	0.0	+	4	verb	phrase	1	3	match	trop	5	1	y	0.67311
24.999800000000008	0.2	xmfn	4	verb	phrase	1	4	match	trop	5	1	y	0.67311
25.199700000000007	0.0	+	4	verb	phrase	1	5	match	trop	5	1	y	0.67311
25.599500000000006	0.2	xlrj	4	verb	phrase	1	6	match	trop	5	1	y	0.67311
25.799400000000006	0.0	+	4	verb	phrase	1	7	match	trop	5	1	y	0.67311
26.199300000000008	0.2	plhrfsn	4	verb	phrase	1	8	match	trop	5	1	y	0.67311
26.399200000000008	0.0	+	4	verb	phrase	1	9	match	trop	5	1	y	0.67311
26.799000000000007	0.2	trop	4	verb	phrase	1	10	match	trop	5	1	y	0.67311
26.998900000000006	0.0	+	4	verb	phrase	1	11	match	trop	5	1	y	0.67311
27.398700000000005	0.0	+	4	verb	phrase	1	12	match	trop	5	1	y	0.67311
29.397900000000007	0.0	TROP	4	verb	phrase	1	13	match	trop	5	1	y	0.67311
30.130899999999997	0.0	+	4	verb	phrase	1	14	match	trop	5	1	y	0.67311
30.070999999999998	0.0	[response]	4	verb	phrase	1	15	match	trop	5	1	y	0.67311
31.796800000000005	0.0	+	5	noun	list	1	1	match	plus	5	1	y	0.61411
32.346500000000006	0.2	stfk	5	noun	list	1	2	match	plus	5	1	y	0.61411
32.54650000000001	0.0	+	5	noun	list	1	3	match	plus	5	1	y	0.61411
32.94630000000001	0.2	bml	5	noun	list	1	4	match	plus	5	1	y	0.61411
33.14620000000001	0.0	+	5	noun	list	1	5	match	plus	5	1	y	0.61411
33.54600000000001	0.2	gzps	5	noun	list	1	6	match	plus	5	1	y	0.61411
33.745900000000006	0.0	+	5	noun	list	1	7	match	plus	5	1	y	0.61411
34.14580000000001	0.2	rtkdmh	5	noun	list	1	8	match	plus	5	1	y	0.61411
34.34570000000001	0.0	+	5	noun	list	1	9	match	plus	5	1	y	0.61411
34.74550000000001	0.2	plus	5	noun	list	1	10	match	plus	5	1	y	0.61411
34.94540000000001	0.0	+	5	noun	list	1	11	match	plus	5	1	y	0.61411
35.345200000000006	0.0	+	5	noun	list	1	12	match	plus	5	1	y	0.61411
37.344300000000004	0.0	PLUS	5	noun	list	1	13	match	plus	5	1	y	0.61411
38.0107	0.0	+	5	noun	list	1	14	match	plus	5	1	y	0.61411
37.9584	0.0	[response]	5	noun	list	1	15	match	plus	5	1	y	0.61411
39.743300000000005	0.0	+	6	noun	list	1	1	match	voilier	5	1	y	0.68804
40.293099999999995	0.2	xzvmd	6	noun	list	1	2	match	voilier	5	1	y	0.68804
40.492999999999995	0.0	+	6	noun	list	1	3	match	voilier	5	1	y	0.68804
40.89280000000001	0.2	fqnb	6	noun	list	1	4	match	voilier	5	1	y	0.68804
41.09270000000001	0.0	+	6	noun	list	1	5	match	voilier	5	1	y	0.68804
41.49250000000001	0.2	px	6	noun	list	1	6	match	voilier	5	1	y	0.68804
41.692400000000006	0.0	+	6	noun	list	1	7	match	voilier	5	1	y	0.68804
42.09230000000001	0.2	dmkf	6	noun	list	1	8	match	voilier	5	1	y	0.68804
42.29220000000001	0.0	+	6	noun	list	1	9	match	voilier	5	1	y	0.68804
42.69200000000001	0.2	voilier	6	noun	list	1	10	match	voilier	5	1	y	0.68804
42.89190000000001	0.0	+	6	noun	list	1	11	match	voilier	5	1	y	0.68804
43.291700000000006	0.0	+	6	noun	list	1	12	match	voilier	5	1	y	0.68804
45.29090000000001	0.0	VOILIER	6	noun	list	1	13	match	voilier	5	1	y	0.68804
46.04050000000001	0.0	+	6	noun	list	1	14	match	voilier	5	1	y	0.68804
45.978899999999996	0.0	[response]	6	noun	list	1	15	match	voilier	5	1	y	0.68804
47.689800000000005	0.0	+	7	verb	phrase	3	1	nomatch	vieux	-1	1	p	0.98881
48.239599999999996	0.2	fjhbnlx	7	verb	phrase	3	2	nomatch	vieux	-1	1	p	0.98881
48.439499999999995	0.0	+	7	verb	phrase	3	3	nomatch	vieux	-1	1	p	0.98881
48.83930000000001	0.2	dzlw	7	verb	phrase	3	4	nomatch	vieux	-1	1	p	0.98881
49.03920000000001	0.0	+	7	verb	phrase	3	5	nomatch	vieux	-1	1	p	0.98881
49.43900000000001	0.2	doit	7	verb	phrase	3	6	nomatch	vieux	-1	1	p	0.98881
49.63890000000001	0.0	+	7	verb	phrase	3	7	nomatch	vieux	-1	1	p	0.98881
50.03880000000001	0.2	beaucoup	7	verb	phrase	3	8	nomatch	vieux	-1	1	p	0.98881
50.23870000000001	0.0	+	7	verb	phrase	3	9	nomatch	vieux	-1	1	p	0.98881
50.63850000000001	0.2	jongler	7	verb	phrase	3	10	nomatch	vieux	-1	1	p	0.98881
50.83840000000001	0.0	+	7	verb	phrase	3	11	nomatch	vieux	-1	1	p	0.98881
51.238200000000006	0.0	+	7	verb	phrase	3	12	nomatch	vieux	-1	1	p	0.98881
53.23740000000001	0.0	VIEUX	7	verb	phrase	3	13	nomatch	vieux	-1	1	p	0.98881
54.2869	0.0	+	7	verb	phrase	3	14	nomatch	vieux	-1	1	p	0.98881
54.226200000000006	0.0	[response]	7	verb	phrase	3	15	nomatch	vieux	-1	1	p	0.98881
55.636300000000006	0.0	+	8	verb	list	1	1	nomatch	petit	-1	1	p	0.62366
56.18600000000001	0.2	zpbwj	8	verb	list	1	2	nomatch	petit	-1	1	p	0.62366
56.385999999999996	0.0	+	8	verb	list	1	3	nomatch	petit	-1	1	p	0.62366
56.78580000000001	0.2	wksm	8	verb	list	1	4	nomatch	petit	-1	1	p	0.62366
56.98570000000001	0.0	+	8	verb	list	1	5	nomatch	petit	-1	1	p	0.62366
57.38550000000001	0.2	px	8	verb	list	1	6	nomatch	petit	-1	1	p	0.62366
57.58540000000001	0.0	+	8	verb	list	1	7	nomatch	petit	-1	1	p	0.62366
57.985299999999995	0.2	pvhblsk	8	verb	list	1	8	nomatch	petit	-1	1	p	0.62366
58.18520000000001	0.0	+	8	verb	list	1	9	nomatch	petit	-1	1	p	0.62366
58.58500000000001	0.2	nouveau	8	verb	list	1	10	nomatch	petit	-1	1	p	0.62366
58.78490000000001	0.0	+	8	verb	list	1	11	nomatch	petit	-1	1	p	0.62366
59.18470000000001	0.0	+	8	verb	list	1	12	nomatch	petit	-1	1	p	0.62366
61.18390000000001	0.0	PETIT	8	verb	list	1	13	nomatch	petit	-1	1	p	0.62366
61.8669	0.0	+	8	verb	list	1	14	nomatch	petit	-1	1	p	0.62366
61.80750000000002	0.0	[response]	8	verb	list	1	15	nomatch	petit	-1	1	p	0.62366
63.599500000000006	0.0	+	9	noun	list	4	1	nomatch	doit	-1	1	p	0.78091
64.14920000000001	0.2	rwq	9	noun	list	4	2	nomatch	doit	-1	1	p	0.78091
64.3491	0.0	+	9	noun	list	4	3	nomatch	doit	-1	1	p	0.78091
64.7489	0.2	sous	9	noun	list	4	4	nomatch	doit	-1	1	p	0.78091
64.94890000000001	0.0	+	9	noun	list	4	5	nomatch	doit	-1	1	p	0.78091
65.34870000000001	0.2	peut	9	noun	list	4	6	nomatch	doit	-1	1	p	0.78091
65.54860000000001	0.0	+	9	noun	list	4	7	nomatch	doit	-1	1	p	0.78091
65.9484	0.2	voilier	9	noun	list	4	8	nomatch	doit	-1	1	p	0.78091
66.1483	0.0	+	9	noun	list	4	9	nomatch	doit	-1	1	p	0.78091
66.54820000000001	0.2	tôt	9	noun	list	4	10	nomatch	doit	-1	1	p	0.78091
66.74810000000001	0.0	+	9	noun	list	4	11	nomatch	doit	-1	1	p	0.78091
67.1479	0.0	+	9	noun	list	4	12	nomatch	doit	-1	1	p	0.78091
69.147	0.0	DOIT	9	noun	list	4	13	nomatch	doit	-1	1	p	0.78091
69.98	0.0	+	9	noun	list	4	14	nomatch	doit	-1	1	p	0.78091
69.92790000000001	0.0	[response]	9	noun	list	4	15	nomatch	doit	-1	1	p	0.78091
71.546	0.0	+	10	noun	list	1	1	nomatch	loin	-1	1	p	0.50441
72.09570000000001	0.2	dskncgj	10	noun	list	1	2	nomatch	loin	-1	1	p	0.50441
72.29560000000001	0.0	+	10	noun	list	1	3	nomatch	loin	-1	1	p	0.50441
72.6954	0.2	wksm	10	noun	list	1	4	nomatch	loin	-1	1	p	0.50441
72.8954	0.0	+	10	noun	list	1	5	nomatch	loin	-1	1	p	0.50441
73.29520000000001	0.2	drzp	10	noun	list	1	6	nomatch	loin	-1	1	p	0.50441
73.49510000000001	0.0	+	10	noun	list	1	7	nomatch	loin	-1	1	p	0.50441
73.8949	0.2	rpgzlc	10	noun	list	1	8	nomatch	loin	-1	1	p	0.50441
74.0948	0.0	+	10	noun	list	1	9	nomatch	loin	-1	1	p	0.50441
74.49470000000001	0.2	tard	10	noun	list	1	10	nomatch	loin	-1	1	p	0.50441
74.69460000000001	0.0	+	10	noun	list	1	11	nomatch	loin	-1	1	p	0.50441
75.09440000000001	0.0	+	10	noun	list	1	12	nomatch	loin	-1	1	p	0.50441
77.0935	0.0	LOIN	10	noun	list	1	13	nomatch	loin	-1	1	p	0.50441
77.65990000000001	0.0	+	10	noun	list	1	14	nomatch	loin	-1	1	p	0.50441
77.5979	0.0	[response]	10	noun	list	1	15	nomatch	loin	-1	1	p	0.50441
79.4925	0.0	+	11	noun	list	3	1	match	mon	3	1	y	1.0641000000000003
80.04220000000001	0.2	nrt	11	noun	list	3	2	match	mon	3	1	y	1.0641000000000003
80.24210000000001	0.0	+	11	noun	list	3	3	match	mon	3	1	y	1.0641000000000003
80.6419	0.2	qxvn	11	noun	list	3	4	match	mon	3	1	y	1.0641000000000003
80.8419	0.0	+	11	noun	list	3	5	match	mon	3	1	y	1.0641000000000003
81.2417	0.2	mon	11	noun	list	3	6	match	mon	3	1	y	1.0641000000000003
81.44160000000001	0.0	+	11	noun	list	3	7	match	mon	3	1	y	1.0641000000000003
81.84140000000001	0.2	trop	11	noun	list	3	8	match	mon	3	1	y	1.0641000000000003
82.04129999999999	0.0	+	11	noun	list	3	9	match	mon	3	1	y	1.0641000000000003
82.4412	0.2	rocher	11	noun	list	3	10	match	mon	3	1	y	1.0641000000000003
82.64110000000001	0.0	+	11	noun	list	3	11	match	mon	3	1	y	1.0641000000000003
83.04090000000001	0.0	+	11	noun	list	3	12	match	mon	3	1	y	1.0641000000000003
85.04	0.0	MON	11	noun	list	3	13	match	mon	3	1	y	1.0641000000000003
86.1564	0.0	+	11	noun	list	3	14	match	mon	3	1	y	1.0641000000000003
86.1041	0.0	[response]	11	noun	list	3	15	match	mon	3	1	y	1.0641000000000003
87.43900000000001	0.0	+	12	noun	phrase	2	1	nomatch	cendrier	-1	1	p	0.82762
87.98870000000001	0.2	wqrctlz	12	noun	phrase	2	2	nomatch	cendrier	-1	1	p	0.82762
88.1886	0.0	+	12	noun	phrase	2	3	nomatch	cendrier	-1	1	p	0.82762
88.5885	0.2	mkg	12	noun	phrase	2	4	nomatch	cendrier	-1	1	p	0.82762
88.78840000000001	0.0	+	12	noun	phrase	2	5	nomatch	cendrier	-1	1	p	0.82762
89.18820000000001	0.2	dmf	12	noun	phrase	2	6	nomatch	cendrier	-1	1	p	0.82762
89.3881	0.0	+	12	noun	phrase	2	7	nomatch	cendrier	-1	1	p	0.82762
89.7879	0.2	sablier	12	noun	phrase	2	8	nomatch	cendrier	-1	1	p	0.82762
89.98780000000001	0.0	+	12	noun	phrase	2	9	nomatch	cendrier	-1	1	p	0.82762
90.38770000000001	0.2	vert	12	noun	phrase	2	10	nomatch	cendrier	-1	1	p	0.82762
90.5876	0.0	+	12	noun	phrase	2	11	nomatch	cendrier	-1	1	p	0.82762
90.9874	0.0	+	12	noun	phrase	2	12	nomatch	cendrier	-1	1	p	0.82762
92.98649999999999	0.0	CENDRIER	12	noun	phrase	2	13	nomatch	cendrier	-1	1	p	0.82762
93.8695	0.0	+	12	noun	phrase	2	14	nomatch	cendrier	-1	1	p	0.82762
93.81410000000001	0.0	[response]	12	noun	phrase	2	15	nomatch	cendrier	-1	1	p	0.82762
95.3855	0.0	+	13	noun	list	1	1	nomatch	voilier	-1	1	p	0.76014
95.9352	0.2	zcjgld	13	noun	list	1	2	nomatch	voilier	-1	1	p	0.76014
96.13510000000001	0.0	+	13	noun	list	1	3	nomatch	voilier	-1	1	p	0.76014
96.53500000000001	0.2	dzlw	13	noun	list	1	4	nomatch	voilier	-1	1	p	0.76014
96.7349	0.0	+	13	noun	list	1	5	nomatch	voilier	-1	1	p	0.76014
97.1347	0.2	hls	13	noun	list	1	6	nomatch	voilier	-1	1	p	0.76014
97.33460000000001	0.0	+	13	noun	list	1	7	nomatch	voilier	-1	1	p	0.76014
97.73440000000001	0.2	pznhq	13	noun	list	1	8	nomatch	voilier	-1	1	p	0.76014
97.9343	0.0	+	13	noun	list	1	9	nomatch	voilier	-1	1	p	0.76014
98.3342	0.2	panier	13	noun	list	1	10	nomatch	voilier	-1	1	p	0.76014
98.53410000000001	0.0	+	13	noun	list	1	11	nomatch	voilier	-1	1	p	0.76014
98.93390000000001	0.0	+	13	noun	list	1	12	nomatch	voilier	-1	1	p	0.76014
100.94969999999999	0.0	VOILIER	13	noun	list	1	13	nomatch	voilier	-1	1	p	0.76014
101.766	0.0	+	13	noun	list	1	14	nomatch	voilier	-1	1	p	0.76014
101.70980000000002	0.0	[response]	13	noun	list	1	15	nomatch	voilier	-1	1	p	0.76014
103.34859999999999	0.0	+	14	verb	phrase	1	1	nomatch	jean	-1	1	p	0.7389800000000001
103.8984	0.2	drlksj	14	verb	phrase	1	2	nomatch	jean	-1	1	p	0.7389800000000001
104.09830000000001	0.0	+	14	verb	phrase	1	3	nomatch	jean	-1	1	p	0.7389800000000001
104.49810000000001	0.2	bml	14	verb	phrase	1	4	nomatch	jean	-1	1	p	0.7389800000000001
104.698	0.0	+	14	verb	phrase	1	5	nomatch	jean	-1	1	p	0.7389800000000001
105.0979	0.2	drzp	14	verb	phrase	1	6	nomatch	jean	-1	1	p	0.7389800000000001
105.29780000000001	0.0	+	14	verb	phrase	1	7	nomatch	jean	-1	1	p	0.7389800000000001
105.69760000000001	0.2	zrblps	14	verb	phrase	1	8	nomatch	jean	-1	1	p	0.7389800000000001
105.8975	0.0	+	14	verb	phrase	1	9	nomatch	jean	-1	1	p	0.7389800000000001
106.29729999999999	0.2	tôt	14	verb	phrase	1	10	nomatch	jean	-1	1	p	0.7389800000000001
106.4972	0.0	+	14	verb	phrase	1	11	nomatch	jean	-1	1	p	0.7389800000000001
106.89710000000001	0.0	+	14	verb	phrase	1	12	nomatch	jean	-1	1	p	0.7389800000000001
108.89620000000001	0.0	JEAN	14	verb	phrase	1	13	nomatch	jean	-1	1	p	0.7389800000000001
109.6958	0.0	+	14	verb	phrase	1	14	nomatch	jean	-1	1	p	0.7389800000000001
109.63520000000001	0.0	[response]	14	verb	phrase	1	15	nomatch	jean	-1	1	p	0.7389800000000001
111.2951	0.0	+	15	noun	phrase	1	1	nomatch	voilier	-1	1	p	0.66688
111.84490000000001	0.2	pqzrw	15	noun	phrase	1	2	nomatch	voilier	-1	1	p	0.66688
112.0448	0.0	+	15	noun	phrase	1	3	nomatch	voilier	-1	1	p	0.66688
112.4446	0.2	gbph	15	noun	phrase	1	4	nomatch	voilier	-1	1	p	0.66688
112.64450000000001	0.0	+	15	noun	phrase	1	5	nomatch	voilier	-1	1	p	0.66688
113.04440000000001	0.2	gzps	15	noun	phrase	1	6	nomatch	voilier	-1	1	p	0.66688
113.2443	0.0	+	15	noun	phrase	1	7	nomatch	voilier	-1	1	p	0.66688
113.6441	0.2	rpgzlc	15	noun	phrase	1	8	nomatch	voilier	-1	1	p	0.66688
113.84400000000001	0.0	+	15	noun	phrase	1	9	nomatch	voilier	-1	1	p	0.66688
114.24380000000001	0.2	rouge	15	noun	phrase	1	10	nomatch	voilier	-1	1	p	0.66688
114.44369999999999	0.0	+	15	noun	phrase	1	11	nomatch	voilier	-1	1	p	0.66688
114.8436	0.0	+	15	noun	phrase	1	12	nomatch	voilier	-1	1	p	0.66688
116.8427	0.0	VOILIER	15	noun	phrase	1	13	nomatch	voilier	-1	1	p	0.66688
117.5757	0.0	+	15	noun	phrase	1	14	nomatch	voilier	-1	1	p	0.66688
117.50959999999999	0.0	[response]	15	noun	phrase	1	15	nomatch	voilier	-1	1	p	0.66688
119.24159999999999	0.0	+	16	verb	phrase	2	1	nomatch	grand	-1	1	p	0.56467
119.7914	0.2	xgjt	16	verb	phrase	2	2	nomatch	grand	-1	1	p	0.56467
119.99130000000001	0.0	+	16	verb	phrase	2	3	nomatch	grand	-1	1	p	0.56467
120.39110000000001	0.2	xmfn	16	verb	phrase	2	4	nomatch	grand	-1	1	p	0.56467
120.591	0.0	+	16	verb	phrase	2	5	nomatch	grand	-1	1	p	0.56467
120.9909	0.2	xlrj	16	verb	phrase	2	6	nomatch	grand	-1	1	p	0.56467
121.19080000000001	0.0	+	16	verb	phrase	2	7	nomatch	grand	-1	1	p	0.56467
121.59060000000001	0.2	galoper	16	verb	phrase	2	8	nomatch	grand	-1	1	p	0.56467
121.7905	0.0	+	16	verb	phrase	2	9	nomatch	grand	-1	1	p	0.56467
122.1903	0.2	loin	16	verb	phrase	2	10	nomatch	grand	-1	1	p	0.56467
122.39020000000001	0.0	+	16	verb	phrase	2	11	nomatch	grand	-1	1	p	0.56467
122.79010000000001	0.0	+	16	verb	phrase	2	12	nomatch	grand	-1	1	p	0.56467
124.78920000000001	0.0	GRAND	16	verb	phrase	2	13	nomatch	grand	-1	1	p	0.56467
125.4056	0.0	+	16	verb	phrase	2	14	nomatch	grand	-1	1	p	0.56467
125.35379999999999	0.0	[response]	16	verb	phrase	2	15	nomatch	grand	-1	1	p	0.56467
127.1881	0.0	+	17	noun	list	2	1	nomatch	sablier	-1	1	p	0.62402
127.73790000000001	0.2	pbdrgs	17	noun	list	2	2	nomatch	sablier	-1	1	p	0.62402
127.9378	0.0	+	17	noun	list	2	3	nomatch	sablier	-1	1	p	0.62402
128.3376	0.2	qxrj	17	noun	list	2	4	nomatch	sablier	-1	1	p	0.62402
128.53750000000002	0.0	+	17	noun	list	2	5	nomatch	sablier	-1	1	p	0.62402
128.9373	0.2	hls	17	noun	list	2	6	nomatch	sablier	-1	1	p	0.62402
129.13729999999998	0.0	+	17	noun	list	2	7	nomatch	sablier	-1	1	p	0.62402
129.5371	0.2	trop	17	noun	list	2	8	nomatch	sablier	-1	1	p	0.62402
129.73700000000002	0.0	+	17	noun	list	2	9	nomatch	sablier	-1	1	p	0.62402
130.1368	0.2	grenier	17	noun	list	2	10	nomatch	sablier	-1	1	p	0.62402
130.33679999999998	0.0	+	17	noun	list	2	11	nomatch	sablier	-1	1	p	0.62402
130.7366	0.0	+	17	noun	list	2	12	nomatch	sablier	-1	1	p	0.62402
132.7357	0.0	SABLIER	17	noun	list	2	13	nomatch	sablier	-1	1	p	0.62402
133.4187	0.0	+	17	noun	list	2	14	nomatch	sablier	-1	1	p	0.62402
133.35969999999998	0.0	[response]	17	noun	list	2	15	nomatch	sablier	-1	1	p	0.62402
135.13459999999998	0.0	+	18	noun	phrase	2	1	nomatch	danser	-1	1	p	0.77865
135.68439999999998	0.2	dklxf	18	noun	phrase	2	2	nomatch	danser	-1	1	p	0.77865
135.8843	0.0	+	18	noun	phrase	2	3	nomatch	danser	-1	1	p	0.77865
136.28410000000002	0.2	wksm	18	noun	phrase	2	4	nomatch	danser	-1	1	p	0.77865
136.48399999999998	0.0	+	18	noun	phrase	2	5	nomatch	danser	-1	1	p	0.77865
136.88389999999998	0.2	gzps	18	noun	phrase	2	6	nomatch	danser	-1	1	p	0.77865
137.0838	0.0	+	18	noun	phrase	2	7	nomatch	danser	-1	1	p	0.77865
137.48360000000002	0.2	casier	18	noun	phrase	2	8	nomatch	danser	-1	1	p	0.77865
137.6836	0.0	+	18	noun	phrase	2	9	nomatch	danser	-1	1	p	0.77865
138.10000000000002	0.2	rouge	18	noun	phrase	2	10	nomatch	danser	-1	1	p	0.77865
138.29989999999998	0.0	+	18	noun	phrase	2	11	nomatch	danser	-1	1	p	0.77865
138.6997	0.0	+	18	noun	phrase	2	12	nomatch	danser	-1	1	p	0.77865
140.69889999999998	0.0	DANSER	18	noun	phrase	2	13	nomatch	danser	-1	1	p	0.77865
141.53179999999998	0.0	+	18	noun	phrase	2	14	nomatch	danser	-1	1	p	0.77865
141.47750000000002	0.0	[response]	18	noun	phrase	2	15	nomatch	danser	-1	1	p	0.77865
143.0978	0.0	+	19	noun	phrase	1	1	match	vert	5	1	y	0.51308
143.6476	0.2	mrtqf	19	noun	phrase	1	2	match	vert	5	1	y	0.51308
143.84750000000003	0.0	+	19	noun	phrase	1	3	match	vert	5	1	y	0.51308
144.2473	0.2	prkz	19	noun	phrase	1	4	match	vert	5	1	y	0.51308
144.4472	0.0	+	19	noun	phrase	1	5	match	vert	5	1	y	0.51308
144.84699999999998	0.2	hls	19	noun	phrase	1	6	match	vert	5	1	y	0.51308
145.0469	0.0	+	19	noun	phrase	1	7	match	vert	5	1	y	0.51308
145.4468	0.2	rtkdmh	19	noun	phrase	1	8	match	vert	5	1	y	0.51308
145.6467	0.0	+	19	noun	phrase	1	9	match	vert	5	1	y	0.51308
146.04649999999998	0.2	vert	19	noun	phrase	1	10	match	vert	5	1	y	0.51308
146.2464	0.0	+	19	noun	phrase	1	11	match	vert	5	1	y	0.51308
146.64620000000002	0.0	+	19	noun	phrase	1	12	match	vert	5	1	y	0.51308
148.64530000000002	0.0	VERT	19	noun	phrase	1	13	match	vert	5	1	y	0.51308
149.21179999999998	0.0	+	19	noun	phrase	1	14	match	vert	5	1	y	0.51308
149.15840000000003	0.0	[response]	19	noun	phrase	1	15	match	vert	5	1	y	0.51308
159.0408	0.0	+	20	noun	phrase	2	1	match	voilier	4	1	y	0.65554
159.59050000000002	0.2	xpdv	20	noun	phrase	2	2	match	voilier	4	1	y	0.65554
159.79039999999998	0.0	+	20	noun	phrase	2	3	match	voilier	4	1	y	0.65554
160.19029999999998	0.2	fqnb	20	noun	phrase	2	4	match	voilier	4	1	y	0.65554
160.3902	0.0	+	20	noun	phrase	2	5	match	voilier	4	1	y	0.65554
160.79000000000002	0.2	dmf	20	noun	phrase	2	6	match	voilier	4	1	y	0.65554
160.98989999999998	0.0	+	20	noun	phrase	2	7	match	voilier	4	1	y	0.65554
161.3897	0.2	voilier	20	noun	phrase	2	8	match	voilier	4	1	y	0.65554
161.5897	0.0	+	20	noun	phrase	2	9	match	voilier	4	1	y	0.65554
161.98950000000002	0.2	rouge	20	noun	phrase	2	10	match	voilier	4	1	y	0.65554
162.18939999999998	0.0	+	20	noun	phrase	2	11	match	voilier	4	1	y	0.65554
162.5892	0.0	+	20	noun	phrase	2	12	match	voilier	4	1	y	0.65554
164.5883	0.0	VOILIER	20	noun	phrase	2	13	match	voilier	4	1	y	0.65554
165.30470000000003	0.0	+	20	noun	phrase	2	14	match	voilier	4	1	y	0.65554
165.2439	0.0	[response]	20	noun	phrase	2	15	match	voilier	4	1	y	0.65554
166.9873	0.0	+	21	noun	phrase	4	1	match	mon	3	1	y	1.0893
167.53699999999998	0.2	hkrxw	21	noun	phrase	4	2	match	mon	3	1	y	1.0893
167.73700000000002	0.0	+	21	noun	phrase	4	3	match	mon	3	1	y	1.0893
168.1368	0.2	avec	21	noun	phrase	4	4	match	mon	3	1	y	1.0893
168.3367	0.0	+	21	noun	phrase	4	5	match	mon	3	1	y	1.0893
168.73649999999998	0.2	mon	21	noun	phrase	4	6	match	mon	3	1	y	1.0893
168.9364	0.0	+	21	noun	phrase	4	7	match	mon	3	1	y	1.0893
169.33620000000002	0.2	casier	21	noun	phrase	4	8	match	mon	3	1	y	1.0893
169.5362	0.0	+	21	noun	phrase	4	9	match	mon	3	1	y	1.0893
169.93599999999998	0.2	noir	21	noun	phrase	4	10	match	mon	3	1	y	1.0893
170.1359	0.0	+	21	noun	phrase	4	11	match	mon	3	1	y	1.0893
170.53570000000002	0.0	+	21	noun	phrase	4	12	match	mon	3	1	y	1.0893
172.53480000000002	0.0	MON	21	noun	phrase	4	13	match	mon	3	1	y	1.0893
173.6843	0.0	+	21	noun	phrase	4	14	match	mon	3	1	y	1.0893
173.6241	0.0	[response]	21	noun	phrase	4	15	match	mon	3	1	y	1.0893
174.93380000000002	0.0	+	22	noun	phrase	1	1	nomatch	panier	-1	1	p	0.70549
175.4837	0.2	wlv	22	noun	phrase	1	2	nomatch	panier	-1	1	p	0.70549
175.70010000000002	0.0	+	22	noun	phrase	1	3	nomatch	panier	-1	1	p	0.70549
176.0999	0.2	gbph	22	noun	phrase	1	4	nomatch	panier	-1	1	p	0.70549
176.29989999999998	0.0	+	22	noun	phrase	1	5	nomatch	panier	-1	1	p	0.70549
176.6997	0.2	gzps	22	noun	phrase	1	6	nomatch	panier	-1	1	p	0.70549
176.89960000000002	0.0	+	22	noun	phrase	1	7	nomatch	panier	-1	1	p	0.70549
177.2994	0.2	ljnpt	22	noun	phrase	1	8	nomatch	panier	-1	1	p	0.70549
177.4993	0.0	+	22	noun	phrase	1	9	nomatch	panier	-1	1	p	0.70549
177.89909999999998	0.2	sablier	22	noun	phrase	1	10	nomatch	panier	-1	1	p	0.70549
178.099	0.0	+	22	noun	phrase	1	11	nomatch	panier	-1	1	p	0.70549
178.4989	0.0	+	22	noun	phrase	1	12	nomatch	panier	-1	1	p	0.70549
180.498	0.0	PANIER	22	noun	phrase	1	13	nomatch	panier	-1	1	p	0.70549
181.2643	0.0	+	22	noun	phrase	1	14	nomatch	panier	-1	1	p	0.70549
181.20350000000002	0.0	[response]	22	noun	phrase	1	15	nomatch	panier	-1	1	p	0.70549
182.89690000000002	0.0	+	23	noun	list	1	1	nomatch	jean	-1	1	p	0.70635
183.44670000000002	0.2	zpbjcqw	23	noun	list	1	2	nomatch	jean	-1	1	p	0.70635
183.64659999999998	0.0	+	23	noun	list	1	3	nomatch	jean	-1	1	p	0.70635
184.0464	0.2	bml	23	noun	list	1	4	nomatch	jean	-1	1	p	0.70635
184.24630000000002	0.0	+	23	noun	list	1	5	nomatch	jean	-1	1	p	0.70635
184.64620000000002	0.2	dmf	23	noun	list	1	6	nomatch	jean	-1	1	p	0.70635
184.84609999999998	0.0	+	23	noun	list	1	7	nomatch	jean	-1	1	p	0.70635
185.2459	0.2	bpqhz	23	noun	list	1	8	nomatch	jean	-1	1	p	0.70635
185.44580000000002	0.0	+	23	noun	list	1	9	nomatch	jean	-1	1	p	0.70635
185.8456	0.2	cendrier	23	noun	list	1	10	nomatch	jean	-1	1	p	0.70635
186.04559999999998	0.0	+	23	noun	list	1	11	nomatch	jean	-1	1	p	0.70635
186.4454	0.0	+	23	noun	list	1	12	nomatch	jean	-1	1	p	0.70635
188.4445	0.0	JEAN	23	noun	list	1	13	nomatch	jean	-1	1	p	0.70635
189.2108	0.0	+	23	noun	list	1	14	nomatch	jean	-1	1	p	0.70635
189.1508	0.0	[response]	23	noun	list	1	15	nomatch	jean	-1	1	p	0.70635
190.84339999999997	0.0	+	24	noun	list	1	1	nomatch	tard	-1	1	p	1.2141
191.39319999999998	0.2	xjkftm	24	noun	list	1	2	nomatch	tard	-1	1	p	1.2141
191.5931	0.0	+	24	noun	list	1	3	nomatch	tard	-1	1	p	1.2141
191.99290000000002	0.2	gbph	24	noun	list	1	4	nomatch	tard	-1	1	p	1.2141
192.19279999999998	0.0	+	24	noun	list	1	5	nomatch	tard	-1	1	p	1.2141
192.59269999999998	0.2	xlrj	24	noun	list	1	6	nomatch	tard	-1	1	p	1.2141
192.7926	0.0	+	24	noun	list	1	7	nomatch	tard	-1	1	p	1.2141
193.19240000000002	0.2	xmhfwv	24	noun	list	1	8	nomatch	tard	-1	1	p	1.2141
193.39229999999998	0.0	+	24	noun	list	1	9	nomatch	tard	-1	1	p	1.2141
193.7921	0.2	loin	24	noun	list	1	10	nomatch	tard	-1	1	p	1.2141
193.99200000000002	0.0	+	24	noun	list	1	11	nomatch	tard	-1	1	p	1.2141
194.39190000000002	0.0	+	24	noun	list	1	12	nomatch	tard	-1	1	p	1.2141
196.39100000000002	0.0	TARD	24	noun	list	1	13	nomatch	tard	-1	1	p	1.2141
197.6571	0.0	+	24	noun	list	1	14	nomatch	tard	-1	1	p	1.2141
197.6051	0.0	[response]	24	noun	list	1	15	nomatch	tard	-1	1	p	1.2141
206.78640000000001	0.0	+	25	noun	phrase	4	1	nomatch	moins	-1	1	p	0.67403
207.33620000000002	0.2	jkm	25	noun	phrase	4	2	nomatch	moins	-1	1	p	0.67403
207.53609999999998	0.0	+	25	noun	phrase	4	3	nomatch	moins	-1	1	p	0.67403
207.9359	0.2	avec	25	noun	phrase	4	4	nomatch	moins	-1	1	p	0.67403
208.13580000000002	0.0	+	25	noun	phrase	4	5	nomatch	moins	-1	1	p	0.67403
208.5356	0.2	leur	25	noun	phrase	4	6	nomatch	moins	-1	1	p	0.67403
208.73560000000003	0.0	+	25	noun	phrase	4	7	nomatch	moins	-1	1	p	0.67403
209.1354	0.2	nouveau	25	noun	phrase	4	8	nomatch	moins	-1	1	p	0.67403
209.33530000000002	0.0	+	25	noun	phrase	4	9	nomatch	moins	-1	1	p	0.67403
209.7351	0.2	tablier	25	noun	phrase	4	10	nomatch	moins	-1	1	p	0.67403
209.935	0.0	+	25	noun	phrase	4	11	nomatch	moins	-1	1	p	0.67403
210.33480000000003	0.0	+	25	noun	phrase	4	12	nomatch	moins	-1	1	p	0.67403
212.334	0.0	MOINS	25	noun	phrase	4	13	nomatch	moins	-1	1	p	0.67403
213.067	0.0	+	25	noun	phrase	4	14	nomatch	moins	-1	1	p	0.67403
213.00800000000004	0.0	[response]	25	noun	phrase	4	15	nomatch	moins	-1	1	p	0.67403
214.74960000000004	0.0	+	26	noun	list	4	1	match	rocher	4	1	y	0.9263600000000001
215.29930000000002	0.2	gkcnp	26	noun	list	4	2	match	rocher	4	1	y	0.9263600000000001
215.4993	0.0	+	26	noun	list	4	3	match	rocher	4	1	y	0.9263600000000001
215.89910000000003	0.2	vers	26	noun	list	4	4	match	rocher	4	1	y	0.9263600000000001
216.099	0.0	+	26	noun	list	4	5	match	rocher	4	1	y	0.9263600000000001
216.49880000000002	0.2	doit	26	noun	list	4	6	match	rocher	4	1	y	0.9263600000000001
216.69870000000003	0.0	+	26	noun	list	4	7	match	rocher	4	1	y	0.9263600000000001
217.0985	0.2	rocher	26	noun	list	4	8	match	rocher	4	1	y	0.9263600000000001
217.2985	0.0	+	26	noun	list	4	9	match	rocher	4	1	y	0.9263600000000001
217.69830000000002	0.2	loin	26	noun	list	4	10	match	rocher	4	1	y	0.9263600000000001
217.89820000000003	0.0	+	26	noun	list	4	11	match	rocher	4	1	y	0.9263600000000001
218.298	0.0	+	26	noun	list	4	12	match	rocher	4	1	y	0.9263600000000001
220.29720000000003	0.0	ROCHER	26	noun	list	4	13	match	rocher	4	1	y	0.9263600000000001
221.28000000000003	0.0	+	26	noun	list	4	14	match	rocher	4	1	y	0.9263600000000001
221.2235	0.0	[response]	26	noun	list	4	15	match	rocher	4	1	y	0.9263600000000001
222.6961	0.0	+	27	noun	phrase	4	1	match	sablier	4	1	y	0.83414
223.24580000000003	0.2	hqp	27	noun	phrase	4	2	match	sablier	4	1	y	0.83414
223.44580000000002	0.0	+	27	noun	phrase	4	3	match	sablier	4	1	y	0.83414
223.8456	0.2	sans	27	noun	phrase	4	4	match	sablier	4	1	y	0.83414
224.0455	0.0	+	27	noun	phrase	4	5	match	sablier	4	1	y	0.83414
224.44530000000003	0.2	mon	27	noun	phrase	4	6	match	sablier	4	1	y	0.83414
224.6452	0.0	+	27	noun	phrase	4	7	match	sablier	4	1	y	0.83414
225.04500000000002	0.2	sablier	27	noun	phrase	4	8	match	sablier	4	1	y	0.83414
225.245	0.0	+	27	noun	phrase	4	9	match	sablier	4	1	y	0.83414
225.64480000000003	0.2	rouge	27	noun	phrase	4	10	match	sablier	4	1	y	0.83414
225.8447	0.0	+	27	noun	phrase	4	11	match	sablier	4	1	y	0.83414
226.24450000000002	0.0	+	27	noun	phrase	4	12	match	sablier	4	1	y	0.83414
228.24360000000001	0.0	SABLIER	27	noun	phrase	4	13	match	sablier	4	1	y	0.83414
229.14320000000004	0.0	+	27	noun	phrase	4	14	match	sablier	4	1	y	0.83414
229.07780000000002	0.0	[response]	27	noun	phrase	4	15	match	sablier	4	1	y	0.83414
230.64260000000002	0.0	+	28	verb	phrase	3	1	nomatch	danser	-1	1	p	0.7605600000000001
231.1923	0.2	ghq	28	verb	phrase	3	2	nomatch	danser	-1	1	p	0.7605600000000001
231.3922	0.0	+	28	verb	phrase	3	3	nomatch	danser	-1	1	p	0.7605600000000001
231.7921	0.2	sbgt	28	verb	phrase	3	4	nomatch	danser	-1	1	p	0.7605600000000001
231.99200000000002	0.0	+	28	verb	phrase	3	5	nomatch	danser	-1	1	p	0.7605600000000001
232.3918	0.2	va	28	verb	phrase	3	6	nomatch	danser	-1	1	p	0.7605600000000001
232.5917	0.0	+	28	verb	phrase	3	7	nomatch	danser	-1	1	p	0.7605600000000001
232.99150000000003	0.2	plonger	28	verb	phrase	3	8	nomatch	danser	-1	1	p	0.7605600000000001
233.19150000000002	0.0	+	28	verb	phrase	3	9	nomatch	danser	-1	1	p	0.7605600000000001
233.5913	0.2	tôt	28	verb	phrase	3	10	nomatch	danser	-1	1	p	0.7605600000000001
233.7912	0.0	+	28	verb	phrase	3	11	nomatch	danser	-1	1	p	0.7605600000000001
234.19100000000003	0.0	+	28	verb	phrase	3	12	nomatch	danser	-1	1	p	0.7605600000000001
236.19010000000003	0.0	DANSER	28	verb	phrase	3	13	nomatch	danser	-1	1	p	0.7605600000000001
237.00640000000004	0.0	+	28	verb	phrase	3	14	nomatch	danser	-1	1	p	0.7605600000000001
236.95070000000004	0.0	[response]	28	verb	phrase	3	15	nomatch	danser	-1	1	p	0.7605600000000001
238.58910000000003	0.0	+	29	verb	phrase	1	1	nomatch	beaucoup	-1	1	p	0.89393
239.1388	0.2	cpq	29	verb	phrase	1	2	nomatch	beaucoup	-1	1	p	0.89393
239.3388	0.0	+	29	verb	phrase	1	3	nomatch	beaucoup	-1	1	p	0.89393
239.73860000000002	0.2	qxvn	29	verb	phrase	1	4	nomatch	beaucoup	-1	1	p	0.89393
239.93850000000003	0.0	+	29	verb	phrase	1	5	nomatch	beaucoup	-1	1	p	0.89393
240.3383	0.2	xlrj	29	verb	phrase	1	6	nomatch	beaucoup	-1	1	p	0.89393
240.53820000000002	0.0	+	29	verb	phrase	1	7	nomatch	beaucoup	-1	1	p	0.89393
240.93810000000002	0.2	cpsqfjd	29	verb	phrase	1	8	nomatch	beaucoup	-1	1	p	0.89393
241.13800000000003	0.0	+	29	verb	phrase	1	9	nomatch	beaucoup	-1	1	p	0.89393
241.5378	0.2	trop	29	verb	phrase	1	10	nomatch	beaucoup	-1	1	p	0.89393
241.73770000000002	0.0	+	29	verb	phrase	1	11	nomatch	beaucoup	-1	1	p	0.89393
242.1375	0.0	+	29	verb	phrase	1	12	nomatch	beaucoup	-1	1	p	0.89393
244.13660000000004	0.0	BEAUCOUP	29	verb	phrase	1	13	nomatch	beaucoup	-1	1	p	0.89393
245.08620000000002	0.0	+	29	verb	phrase	1	14	nomatch	beaucoup	-1	1	p	0.89393
245.03060000000005	0.0	[response]	29	verb	phrase	1	15	nomatch	beaucoup	-1	1	p	0.89393
246.5356	0.0	+	30	noun	phrase	3	1	match	noir	5	1	y	0.73359
247.08530000000002	0.2	zwknd	30	noun	phrase	3	2	match	noir	5	1	y	0.73359
247.28520000000003	0.0	+	30	noun	phrase	3	3	match	noir	5	1	y	0.73359
247.68510000000003	0.2	prkz	30	noun	phrase	3	4	match	noir	5	1	y	0.73359
247.885	0.0	+	30	noun	phrase	3	5	match	noir	5	1	y	0.73359
248.28480000000002	0.2	leur	30	noun	phrase	3	6	match	noir	5	1	y	0.73359
248.48470000000003	0.0	+	30	noun	phrase	3	7	match	noir	5	1	y	0.73359
248.8845	0.2	tablier	30	noun	phrase	3	8	match	noir	5	1	y	0.73359
249.0845	0.0	+	30	noun	phrase	3	9	match	noir	5	1	y	0.73359
249.48430000000002	0.2	noir	30	noun	phrase	3	10	match	noir	5	1	y	0.73359
249.68420000000003	0.0	+	30	noun	phrase	3	11	match	noir	5	1	y	0.73359
250.084	0.0	+	30	noun	phrase	3	12	match	noir	5	1	y	0.73359
252.09980000000002	0.0	NOIR	30	noun	phrase	3	13	match	noir	5	1	y	0.73359
252.8995	0.0	+	30	noun	phrase	3	14	match	noir	5	1	y	0.73359
252.8334000000001	0.0	[response]	30	noun	phrase	3	15	match	noir	5	1	y	0.73359
254.49870000000004	0.0	+	31	verb	list	4	1	match	chasser	4	1	y	1.3769
255.0485	0.2	kjh	31	verb	list	4	2	match	chasser	4	1	y	1.3769
255.2484	0.0	+	31	verb	list	4	3	match	chasser	4	1	y	1.3769
255.64820000000003	0.2	jean	31	verb	list	4	4	match	chasser	4	1	y	1.3769
255.84820000000002	0.0	+	31	verb	list	4	5	match	chasser	4	1	y	1.3769
256.248	0.2	son	31	verb	list	4	6	match	chasser	4	1	y	1.3769
256.4479	0.0	+	31	verb	list	4	7	match	chasser	4	1	y	1.3769
256.84770000000003	0.2	chasser	31	verb	list	4	8	match	chasser	4	1	y	1.3769
257.0476	0.0	+	31	verb	list	4	9	match	chasser	4	1	y	1.3769
257.4474	0.2	rouge	31	verb	list	4	10	match	chasser	4	1	y	1.3769
257.6474	0.0	+	31	verb	list	4	11	match	chasser	4	1	y	1.3769
258.04720000000003	0.0	+	31	verb	list	4	12	match	chasser	4	1	y	1.3769
260.04630000000003	0.0	CHASSER	31	verb	list	4	13	match	chasser	4	1	y	1.3769
261.47900000000004	0.0	+	31	verb	list	4	14	match	chasser	4	1	y	1.3769
261.4232	0.0	[response]	31	verb	list	4	15	match	chasser	4	1	y	1.3769
262.4452	0.0	+	32	noun	phrase	3	1	nomatch	ainsi	-1	1	p	0.91692
262.995	0.2	sdcnzwk	32	noun	phrase	3	2	nomatch	ainsi	-1	1	p	0.91692
263.1949	0.0	+	32	noun	phrase	3	3	nomatch	ainsi	-1	1	p	0.91692
263.5947	0.2	pcms	32	noun	phrase	3	4	nomatch	ainsi	-1	1	p	0.91692
263.79470000000003	0.0	+	32	noun	phrase	3	5	nomatch	ainsi	-1	1	p	0.91692
264.1945	0.2	mon	32	noun	phrase	3	6	nomatch	ainsi	-1	1	p	0.91692
264.3944	0.0	+	32	noun	phrase	3	7	nomatch	ainsi	-1	1	p	0.91692
264.7942	0.2	beau	32	noun	phrase	3	8	nomatch	ainsi	-1	1	p	0.91692
264.9941	0.0	+	32	noun	phrase	3	9	nomatch	ainsi	-1	1	p	0.91692
265.39390000000003	0.2	voilier	32	noun	phrase	3	10	nomatch	ainsi	-1	1	p	0.91692
265.5939	0.0	+	32	noun	phrase	3	11	nomatch	ainsi	-1	1	p	0.91692
265.9937	0.0	+	32	noun	phrase	3	12	nomatch	ainsi	-1	1	p	0.91692
267.9928	0.0	AINSI	32	noun	phrase	3	13	nomatch	ainsi	-1	1	p	0.91692
268.9757	0.0	+	32	noun	phrase	3	14	nomatch	ainsi	-1	1	p	0.91692
268.90970000000004	0.0	[response]	32	noun	phrase	3	15	nomatch	ainsi	-1	1	p	0.91692
270.3917	0.0	+	33	noun	list	3	1	match	beaucoup	4	1	y	0.84585
270.9415	0.2	fcvg	33	noun	list	3	2	match	beaucoup	4	1	y	0.84585
271.14140000000003	0.0	+	33	noun	list	3	3	match	beaucoup	4	1	y	0.84585
271.5412	0.2	qxrj	33	noun	list	3	4	match	beaucoup	4	1	y	0.84585
271.7412	0.0	+	33	noun	list	3	5	match	beaucoup	4	1	y	0.84585
272.141	0.2	son	33	noun	list	3	6	match	beaucoup	4	1	y	0.84585
272.34090000000003	0.0	+	33	noun	list	3	7	match	beaucoup	4	1	y	0.84585
272.7407	0.2	beaucoup	33	noun	list	3	8	match	beaucoup	4	1	y	0.84585
272.9406	0.0	+	33	noun	list	3	9	match	beaucoup	4	1	y	0.84585
273.3404	0.2	cendrier	33	noun	list	3	10	match	beaucoup	4	1	y	0.84585
273.54040000000003	0.0	+	33	noun	list	3	11	match	beaucoup	4	1	y	0.84585
273.9402	0.0	+	33	noun	list	3	12	match	beaucoup	4	1	y	0.84585
275.9393	0.0	BEAUCOUP	33	noun	list	3	13	match	beaucoup	4	1	y	0.84585
276.8389	0.0	+	33	noun	list	3	14	match	beaucoup	4	1	y	0.84585
276.78520000000003	0.0	[response]	33	noun	list	3	15	match	beaucoup	4	1	y	0.84585
278.33820000000003	0.0	+	34	verb	list	1	1	nomatch	yves	-1	1	p	0.7027000000000001
278.88800000000003	0.2	qknvfz	34	verb	list	1	2	nomatch	yves	-1	1	p	0.7027000000000001
279.0879	0.0	+	34	verb	list	1	3	nomatch	yves	-1	1	p	0.7027000000000001
279.4877	0.2	nrlk	34	verb	list	1	4	nomatch	yves	-1	1	p	0.7027000000000001
279.68760000000003	0.0	+	34	verb	list	1	5	nomatch	yves	-1	1	p	0.7027000000000001
280.08750000000003	0.2	drzp	34	verb	list	1	6	nomatch	yves	-1	1	p	0.7027000000000001
280.2874	0.0	+	34	verb	list	1	7	nomatch	yves	-1	1	p	0.7027000000000001
280.6872	0.2	ljnpt	34	verb	list	1	8	nomatch	yves	-1	1	p	0.7027000000000001
280.88710000000003	0.0	+	34	verb	list	1	9	nomatch	yves	-1	1	p	0.7027000000000001
281.28700000000003	0.2	plonger	34	verb	list	1	10	nomatch	yves	-1	1	p	0.7027000000000001
281.4869	0.0	+	34	verb	list	1	11	nomatch	yves	-1	1	p	0.7027000000000001
281.8867	0.0	+	34	verb	list	1	12	nomatch	yves	-1	1	p	0.7027000000000001
283.8858	0.0	YVES	34	verb	list	1	13	nomatch	yves	-1	1	p	0.7027000000000001
284.6521	0.0	+	34	verb	list	1	14	nomatch	yves	-1	1	p	0.7027000000000001
284.58850000000007	0.0	[response]	34	verb	list	1	15	nomatch	yves	-1	1	p	0.7027000000000001
286.2848	0.0	+	35	noun	phrase	3	1	nomatch	petit	-1	1	p	0.54932
286.8345	0.2	zhwsqkb	35	noun	phrase	3	2	nomatch	petit	-1	1	p	0.54932
287.0344	0.0	+	35	noun	phrase	3	3	nomatch	petit	-1	1	p	0.54932
287.43420000000003	0.2	fqnb	35	noun	phrase	3	4	nomatch	petit	-1	1	p	0.54932
287.6342	0.0	+	35	noun	phrase	3	5	nomatch	petit	-1	1	p	0.54932
288.034	0.2	mon	35	noun	phrase	3	6	nomatch	petit	-1	1	p	0.54932
288.2339	0.0	+	35	noun	phrase	3	7	nomatch	petit	-1	1	p	0.54932
288.63370000000003	0.2	nouveau	35	noun	phrase	3	8	nomatch	petit	-1	1	p	0.54932
288.8336	0.0	+	35	noun	phrase	3	9	nomatch	petit	-1	1	p	0.54932
289.25010000000003	0.2	sablier	35	noun	phrase	3	10	nomatch	petit	-1	1	p	0.54932
289.45	0.0	+	35	noun	phrase	3	11	nomatch	petit	-1	1	p	0.54932
289.8498	0.0	+	35	noun	phrase	3	12	nomatch	petit	-1	1	p	0.54932
291.849	0.0	PETIT	35	noun	phrase	3	13	nomatch	petit	-1	1	p	0.54932
292.4654	0.0	+	35	noun	phrase	3	14	nomatch	petit	-1	1	p	0.54932
292.39830000000006	0.0	[response]	35	noun	phrase	3	15	nomatch	petit	-1	1	p	0.54932
294.2479	0.0	+	36	noun	phrase	1	1	nomatch	cendrier	-1	1	p	0.7866900000000001
294.7977	0.2	mbvgtq	36	noun	phrase	1	2	nomatch	cendrier	-1	1	p	0.7866900000000001
294.99760000000003	0.0	+	36	noun	phrase	1	3	nomatch	cendrier	-1	1	p	0.7866900000000001
295.3974	0.2	nrlk	36	noun	phrase	1	4	nomatch	cendrier	-1	1	p	0.7866900000000001
295.5973	0.0	+	36	noun	phrase	1	5	nomatch	cendrier	-1	1	p	0.7866900000000001
295.9971	0.2	gzps	36	noun	phrase	1	6	nomatch	cendrier	-1	1	p	0.7866900000000001
296.197	0.0	+	36	noun	phrase	1	7	nomatch	cendrier	-1	1	p	0.7866900000000001
296.5969	0.2	gbqjtnl	36	noun	phrase	1	8	nomatch	cendrier	-1	1	p	0.7866900000000001
296.7968	0.0	+	36	noun	phrase	1	9	nomatch	cendrier	-1	1	p	0.7866900000000001
297.1966	0.2	panier	36	noun	phrase	1	10	nomatch	cendrier	-1	1	p	0.7866900000000001
297.3965	0.0	+	36	noun	phrase	1	11	nomatch	cendrier	-1	1	p	0.7866900000000001
297.79630000000003	0.0	+	36	noun	phrase	1	12	nomatch	cendrier	-1	1	p	0.7866900000000001
299.7955	0.0	CENDRIER	36	noun	phrase	1	13	nomatch	cendrier	-1	1	p	0.7866900000000001
300.6451	0.0	+	36	noun	phrase	1	14	nomatch	cendrier	-1	1	p	0.7866900000000001
300.5822	0.0	[response]	36	noun	phrase	1	15	nomatch	cendrier	-1	1	p	0.7866900000000001
318.1874	0.0	+	37	verb	list	4	1	match	mon	3	1	y	0.64956
318.7371	0.2	gflpcz	37	verb	list	4	2	match	mon	3	1	y	0.64956
318.937	0.0	+	37	verb	list	4	3	match	mon	3	1	y	0.64956
319.3369	0.2	yves	37	verb	list	4	4	match	mon	3	1	y	0.64956
319.5368	0.0	+	37	verb	list	4	5	match	mon	3	1	y	0.64956
319.9366	0.2	mon	37	verb	list	4	6	match	mon	3	1	y	0.64956
320.1365	0.0	+	37	verb	list	4	7	match	mon	3	1	y	0.64956
320.53630000000004	0.2	galoper	37	verb	list	4	8	match	mon	3	1	y	0.64956
320.7362	0.0	+	37	verb	list	4	9	match	mon	3	1	y	0.64956
321.1361	0.2	blanc	37	verb	list	4	10	match	mon	3	1	y	0.64956
321.336	0.0	+	37	verb	list	4	11	match	mon	3	1	y	0.64956
321.73580000000004	0.0	+	37	verb	list	4	12	match	mon	3	1	y	0.64956
323.73490000000004	0.0	MON	37	verb	list	4	13	match	mon	3	1	y	0.64956
324.4513	0.0	+	37	verb	list	4	14	match	mon	3	1	y	0.64956
324.3845	0.0	[response]	37	verb	list	4	15	match	mon	3	1	y	0.64956
334.147	0.0	+	38	verb	phrase	3	1	match	voyager	5	1	y	0.76016
334.6968	0.2	cbtqwmn	38	verb	phrase	3	2	match	voyager	5	1	y	0.76016
334.8967	0.0	+	38	verb	phrase	3	3	match	voyager	5	1	y	0.76016
335.29650000000004	0.2	qxrj	38	verb	phrase	3	4	match	voyager	5	1	y	0.76016
335.4964	0.0	+	38	verb	phrase	3	5	match	voyager	5	1	y	0.76016
335.8962	0.2	doit	38	verb	phrase	3	6	match	voyager	5	1	y	0.76016
336.0962	0.0	+	38	verb	phrase	3	7	match	voyager	5	1	y	0.76016
336.49600000000004	0.2	mieux	38	verb	phrase	3	8	match	voyager	5	1	y	0.76016
336.6959	0.0	+	38	verb	phrase	3	9	match	voyager	5	1	y	0.76016
337.0957	0.2	voyager	38	verb	phrase	3	10	match	voyager	5	1	y	0.76016
337.29560000000004	0.0	+	38	verb	phrase	3	11	match	voyager	5	1	y	0.76016
337.69550000000004	0.0	+	38	verb	phrase	3	12	match	voyager	5	1	y	0.76016
339.69460000000004	0.0	VOYAGER	38	verb	phrase	3	13	match	voyager	5	1	y	0.76016
340.5109	0.0	+	38	verb	phrase	3	14	match	voyager	5	1	y	0.76016
340.4547	0.0	[response]	38	verb	phrase	3	15	match	voyager	5	1	y	0.76016
342.0935	0.0	+	39	noun	list	2	1	nomatch	vite	-1	1	p	0.87855
342.6433	0.2	klct	39	noun	list	2	2	nomatch	vite	-1	1	p	0.87855
342.8432	0.0	+	39	noun	list	2	3	nomatch	vite	-1	1	p	0.87855
343.243	0.2	qnpz	39	noun	list	2	4	nomatch	vite	-1	1	p	0.87855
343.4429	0.0	+	39	noun	list	2	5	nomatch	vite	-1	1	p	0.87855
343.84270000000004	0.2	hls	39	noun	list	2	6	nomatch	vite	-1	1	p	0.87855
344.0426	0.0	+	39	noun	list	2	7	nomatch	vite	-1	1	p	0.87855
344.4425	0.2	beaucoup	39	noun	list	2	8	nomatch	vite	-1	1	p	0.87855
344.6424	0.0	+	39	noun	list	2	9	nomatch	vite	-1	1	p	0.87855
345.04220000000004	0.2	sablier	39	noun	list	2	10	nomatch	vite	-1	1	p	0.87855
345.2421	0.0	+	39	noun	list	2	11	nomatch	vite	-1	1	p	0.87855
345.642	0.0	+	39	noun	list	2	12	nomatch	vite	-1	1	p	0.87855
347.6411	0.0	VITE	39	noun	list	2	13	nomatch	vite	-1	1	p	0.87855
348.574	0.0	+	39	noun	list	2	14	nomatch	vite	-1	1	p	0.87855
348.5196	0.0	[response]	39	noun	list	2	15	nomatch	vite	-1	1	p	0.87855
350.04	0.0	+	40	verb	phrase	3	1	match	tôt	5	1	y	0.60096
350.5898	0.2	jsw	40	verb	phrase	3	2	match	tôt	5	1	y	0.60096
350.78970000000004	0.0	+	40	verb	phrase	3	3	match	tôt	5	1	y	0.60096
351.1895	0.2	dzlw	40	verb	phrase	3	4	match	tôt	5	1	y	0.60096
351.3894	0.0	+	40	verb	phrase	3	5	match	tôt	5	1	y	0.60096
351.7892	0.2	va	40	verb	phrase	3	6	match	tôt	5	1	y	0.60096
351.98920000000004	0.0	+	40	verb	phrase	3	7	match	tôt	5	1	y	0.60096
352.389	0.2	jongler	40	verb	phrase	3	8	match	tôt	5	1	y	0.60096
352.5889	0.0	+	40	verb	phrase	3	9	match	tôt	5	1	y	0.60096
352.9887	0.2	tôt	40	verb	phrase	3	10	match	tôt	5	1	y	0.60096
353.1886	0.0	+	40	verb	phrase	3	11	match	tôt	5	1	y	0.60096
353.58840000000004	0.0	+	40	verb	phrase	3	12	match	tôt	5	1	y	0.60096
355.5876	0.0	TÔT	40	verb	phrase	3	13	match	tôt	5	1	y	0.60096
356.25390000000004	0.0	+	40	verb	phrase	3	14	match	tôt	5	1	y	0.60096
356.18850000000003	0.0	[response]	40	verb	phrase	3	15	match	tôt	5	1	y	0.60096
357.98650000000004	0.0	+	41	verb	list	1	1	match	patiner	5	1	y	0.76859
358.53630000000004	0.2	tsndpqh	41	verb	list	1	2	match	patiner	5	1	y	0.76859
358.7362	0.0	+	41	verb	list	1	3	match	patiner	5	1	y	0.76859
359.136	0.2	pcms	41	verb	list	1	4	match	patiner	5	1	y	0.76859
359.33590000000004	0.0	+	41	verb	list	1	5	match	patiner	5	1	y	0.76859
359.7357	0.2	px	41	verb	list	1	6	match	patiner	5	1	y	0.76859
359.9356	0.0	+	41	verb	list	1	7	match	patiner	5	1	y	0.76859
360.3355	0.2	dhnx	41	verb	list	1	8	match	patiner	5	1	y	0.76859
360.53540000000004	0.0	+	41	verb	list	1	9	match	patiner	5	1	y	0.76859
360.9352	0.2	patiner	41	verb	list	1	10	match	patiner	5	1	y	0.76859
361.1351	0.0	+	41	verb	list	1	11	match	patiner	5	1	y	0.76859
361.535	0.0	+	41	verb	list	1	12	match	patiner	5	1	y	0.76859
363.5341	0.0	PATINER	41	verb	list	1	13	match	patiner	5	1	y	0.76859
364.367	0.0	+	41	verb	list	1	14	match	patiner	5	1	y	0.76859
364.3027	0.0	[response]	41	verb	list	1	15	match	patiner	5	1	y	0.76859
365.9497	0.0	+	42	verb	list	4	1	nomatch	mon	-1	1	p	0.92221
366.49940000000004	0.2	lnfdhbp	42	verb	list	4	2	nomatch	mon	-1	1	p	0.92221
366.6993	0.0	+	42	verb	list	4	3	nomatch	mon	-1	1	p	0.92221
367.0992	0.2	sans	42	verb	list	4	4	nomatch	mon	-1	1	p	0.92221
367.2991	0.0	+	42	verb	list	4	5	nomatch	mon	-1	1	p	0.92221
367.69890000000004	0.2	va	42	verb	list	4	6	nomatch	mon	-1	1	p	0.92221
367.8988	0.0	+	42	verb	list	4	7	nomatch	mon	-1	1	p	0.92221
368.2986	0.2	nouveau	42	verb	list	4	8	nomatch	mon	-1	1	p	0.92221
368.49850000000004	0.0	+	42	verb	list	4	9	nomatch	mon	-1	1	p	0.92221
368.89840000000004	0.2	danser	42	verb	list	4	10	nomatch	mon	-1	1	p	0.92221
369.0983	0.0	+	42	verb	list	4	11	nomatch	mon	-1	1	p	0.92221
369.4981	0.0	+	42	verb	list	4	12	nomatch	mon	-1	1	p	0.92221
371.4972	0.0	MON	42	verb	list	4	13	nomatch	mon	-1	1	p	0.92221
372.4801	0.0	+	42	verb	list	4	14	nomatch	mon	-1	1	p	0.92221
372.4194	0.0	[response]	42	verb	list	4	15	nomatch	mon	-1	1	p	0.92221
373.8962	0.0	+	43	verb	phrase	1	1	nomatch	avec	-1	1	p	0.73756
374.4459	0.2	szrfhn	43	verb	phrase	1	2	nomatch	avec	-1	1	p	0.73756
374.6458	0.0	+	43	verb	phrase	1	3	nomatch	avec	-1	1	p	0.73756
375.0457	0.2	xmfn	43	verb	phrase	1	4	nomatch	avec	-1	1	p	0.73756
375.2456	0.0	+	43	verb	phrase	1	5	nomatch	avec	-1	1	p	0.73756
375.6454	0.2	drzp	43	verb	phrase	1	6	nomatch	avec	-1	1	p	0.73756
375.8453	0.0	+	43	verb	phrase	1	7	nomatch	avec	-1	1	p	0.73756
376.24510000000004	0.2	bpqhz	43	verb	phrase	1	8	nomatch	avec	-1	1	p	0.73756
376.445	0.0	+	43	verb	phrase	1	9	nomatch	avec	-1	1	p	0.73756
376.8449	0.2	parader	43	verb	phrase	1	10	nomatch	avec	-1	1	p	0.73756
377.0448	0.0	+	43	verb	phrase	1	11	nomatch	avec	-1	1	p	0.73756
377.44460000000004	0.0	+	43	verb	phrase	1	12	nomatch	avec	-1	1	p	0.73756
379.44370000000004	0.0	AVEC	43	verb	phrase	1	13	nomatch	avec	-1	1	p	0.73756
380.2434	0.0	+	43	verb	phrase	1	14	nomatch	avec	-1	1	p	0.73756
380.1813	0.0	[response]	43	verb	phrase	1	15	nomatch	avec	-1	1	p	0.73756
381.84270000000004	0.0	+	44	noun	phrase	1	1	nomatch	voilier	-1	1	p	0.62713
382.3924	0.2	zqsh	44	noun	phrase	1	2	nomatch	voilier	-1	1	p	0.62713
382.5924	0.0	+	44	noun	phrase	1	3	nomatch	voilier	-1	1	p	0.62713
382.9922	0.2	pcms	44	noun	phrase	1	4	nomatch	voilier	-1	1	p	0.62713
383.19210000000004	0.0	+	44	noun	phrase	1	5	nomatch	voilier	-1	1	p	0.62713
383.5919	0.2	dmf	44	noun	phrase	1	6	nomatch	voilier	-1	1	p	0.62713
383.7918	0.0	+	44	noun	phrase	1	7	nomatch	voilier	-1	1	p	0.62713
384.1916	0.2	mwfqg	44	noun	phrase	1	8	nomatch	voilier	-1	1	p	0.62713
384.3915	0.0	+	44	noun	phrase	1	9	nomatch	voilier	-1	1	p	0.62713
384.7914	0.2	grenier	44	noun	phrase	1	10	nomatch	voilier	-1	1	p	0.62713
384.9913	0.0	+	44	noun	phrase	1	11	nomatch	voilier	-1	1	p	0.62713
385.3911	0.0	+	44	noun	phrase	1	12	nomatch	voilier	-1	1	p	0.62713
387.3902	0.0	VOILIER	44	noun	phrase	1	13	nomatch	voilier	-1	1	p	0.62713
388.0733	0.0	+	44	noun	phrase	1	14	nomatch	voilier	-1	1	p	0.62713
388.0174	0.0	[response]	44	noun	phrase	1	15	nomatch	voilier	-1	1	p	0.62713
389.7892	0.0	+	45	verb	phrase	1	1	nomatch	tard	-1	1	p	0.66785
390.3389	0.2	lwc	45	verb	phrase	1	2	nomatch	tard	-1	1	p	0.66785
390.53880000000004	0.0	+	45	verb	phrase	1	3	nomatch	tard	-1	1	p	0.66785
390.93870000000004	0.2	qxrj	45	verb	phrase	1	4	nomatch	tard	-1	1	p	0.66785
391.1386	0.0	+	45	verb	phrase	1	5	nomatch	tard	-1	1	p	0.66785
391.5384	0.2	px	45	verb	phrase	1	6	nomatch	tard	-1	1	p	0.66785
391.73830000000004	0.0	+	45	verb	phrase	1	7	nomatch	tard	-1	1	p	0.66785
392.1381	0.2	khjtzlp	45	verb	phrase	1	8	nomatch	tard	-1	1	p	0.66785
392.338	0.0	+	45	verb	phrase	1	9	nomatch	tard	-1	1	p	0.66785
392.7379	0.2	tôt	45	verb	phrase	1	10	nomatch	tard	-1	1	p	0.66785
392.93780000000004	0.0	+	45	verb	phrase	1	11	nomatch	tard	-1	1	p	0.66785
393.3376	0.0	+	45	verb	phrase	1	12	nomatch	tard	-1	1	p	0.66785
395.3367	0.0	TARD	45	verb	phrase	1	13	nomatch	tard	-1	1	p	0.66785
396.0697	0.0	+	45	verb	phrase	1	14	nomatch	tard	-1	1	p	0.66785
396.00460000000004	0.0	[response]	45	verb	phrase	1	15	nomatch	tard	-1	1	p	0.66785
397.7357	0.0	+	46	verb	list	4	1	match	doit	3	1	y	0.80599
398.28540000000004	0.2	hlw	46	verb	list	4	2	match	doit	3	1	y	0.80599
398.4853	0.0	+	46	verb	list	4	3	match	doit	3	1	y	0.80599
398.8852	0.2	pour	46	verb	list	4	4	match	doit	3	1	y	0.80599
399.0851	0.0	+	46	verb	list	4	5	match	doit	3	1	y	0.80599
399.48490000000004	0.2	doit	46	verb	list	4	6	match	doit	3	1	y	0.80599
399.6848	0.0	+	46	verb	list	4	7	match	doit	3	1	y	0.80599
400.0846	0.2	petit	46	verb	list	4	8	match	doit	3	1	y	0.80599
400.28450000000004	0.0	+	46	verb	list	4	9	match	doit	3	1	y	0.80599
400.68440000000004	0.2	patiner	46	verb	list	4	10	match	doit	3	1	y	0.80599
400.8843	0.0	+	46	verb	list	4	11	match	doit	3	1	y	0.80599
401.2841	0.0	+	46	verb	list	4	12	match	doit	3	1	y	0.80599
403.29990000000004	0.0	DOIT	46	verb	list	4	13	match	doit	3	1	y	0.80599
404.1662	0.0	+	46	verb	list	4	14	match	doit	3	1	y	0.80599
404.1059	0.0	[response]	46	verb	list	4	15	match	doit	3	1	y	0.80599
405.6988	0.0	+	47	noun	phrase	2	1	nomatch	trop	-1	1	p	0.51467
406.2486	0.2	xrvj	47	noun	phrase	2	2	nomatch	trop	-1	1	p	0.51467
406.4485	0.0	+	47	noun	phrase	2	3	nomatch	trop	-1	1	p	0.51467
406.8483	0.2	prkz	47	noun	phrase	2	4	nomatch	trop	-1	1	p	0.51467
407.0482	0.0	+	47	noun	phrase	2	5	nomatch	trop	-1	1	p	0.51467
407.4481	0.2	hls	47	noun	phrase	2	6	nomatch	trop	-1	1	p	0.51467
407.648	0.0	+	47	noun	phrase	2	7	nomatch	trop	-1	1	p	0.51467
408.0478	0.2	tablier	47	noun	phrase	2	8	nomatch	trop	-1	1	p	0.51467
408.2477	0.0	+	47	noun	phrase	2	9	nomatch	trop	-1	1	p	0.51467
408.64750000000004	0.2	bleu	47	noun	phrase	2	10	nomatch	trop	-1	1	p	0.51467
408.8475	0.0	+	47	noun	phrase	2	11	nomatch	trop	-1	1	p	0.51467
409.2473	0.0	+	47	noun	phrase	2	12	nomatch	trop	-1	1	p	0.51467
411.2464	0.0	TROP	47	noun	phrase	2	13	nomatch	trop	-1	1	p	0.51467
411.81280000000004	0.0	+	47	noun	phrase	2	14	nomatch	trop	-1	1	p	0.51467
411.7611	0.0	[response]	47	noun	phrase	2	15	nomatch	trop	-1	1	p	0.51467
413.6453	0.0	+	48	noun	list	3	1	nomatch	paul	-1	1	p	0.66426
414.1951	0.2	mqz	48	noun	list	3	2	nomatch	paul	-1	1	p	0.66426
414.39500000000004	0.0	+	48	noun	list	3	3	nomatch	paul	-1	1	p	0.66426
414.7948	0.2	qxvn	48	noun	list	3	4	nomatch	paul	-1	1	p	0.66426
414.9947	0.0	+	48	noun	list	3	5	nomatch	paul	-1	1	p	0.66426
415.3946	0.2	mon	48	noun	list	3	6	nomatch	paul	-1	1	p	0.66426
415.59450000000004	0.0	+	48	noun	list	3	7	nomatch	paul	-1	1	p	0.66426
415.9943	0.2	plus	48	noun	list	3	8	nomatch	paul	-1	1	p	0.66426
416.1942	0.0	+	48	noun	list	3	9	nomatch	paul	-1	1	p	0.66426
416.594	0.2	grenier	48	noun	list	3	10	nomatch	paul	-1	1	p	0.66426
416.79400000000004	0.0	+	48	noun	list	3	11	nomatch	paul	-1	1	p	0.66426
417.1938	0.0	+	48	noun	list	3	12	nomatch	paul	-1	1	p	0.66426
419.1929	0.0	PAUL	48	noun	list	3	13	nomatch	paul	-1	1	p	0.66426
419.9092	0.0	+	48	noun	list	3	14	nomatch	paul	-1	1	p	0.66426
419.85720000000003	0.0	[response]	48	noun	list	3	15	nomatch	paul	-1	1	p	0.66426
421.59180000000003	0.0	+	49	noun	phrase	4	1	nomatch	tard	-1	1	p	0.67911
422.14160000000004	0.2	mkrs	49	noun	phrase	4	2	nomatch	tard	-1	1	p	0.67911
422.3415	0.0	+	49	noun	phrase	4	3	nomatch	tard	-1	1	p	0.67911
422.7413	0.2	dans	49	noun	phrase	4	4	nomatch	tard	-1	1	p	0.67911
422.94120000000004	0.0	+	49	noun	phrase	4	5	nomatch	tard	-1	1	p	0.67911
423.34110000000004	0.2	son	49	noun	phrase	4	6	nomatch	tard	-1	1	p	0.67911
423.541	0.0	+	49	noun	phrase	4	7	nomatch	tard	-1	1	p	0.67911
423.9408	0.2	grand	49	noun	phrase	4	8	nomatch	tard	-1	1	p	0.67911
424.14070000000004	0.0	+	49	noun	phrase	4	9	nomatch	tard	-1	1	p	0.67911
424.5405	0.2	voilier	49	noun	phrase	4	10	nomatch	tard	-1	1	p	0.67911
424.7404	0.0	+	49	noun	phrase	4	11	nomatch	tard	-1	1	p	0.67911
425.1403	0.0	+	49	noun	phrase	4	12	nomatch	tard	-1	1	p	0.67911
427.1394	0.0	TARD	49	noun	phrase	4	13	nomatch	tard	-1	1	p	0.67911
427.8724	0.0	+	49	noun	phrase	4	14	nomatch	tard	-1	1	p	0.67911
427.81850000000003	0.0	[response]	49	noun	phrase	4	15	nomatch	tard	-1	1	p	0.67911
437.5348	0.0	+	50	noun	list	2	1	nomatch	panier	-1	1	p	0.64781
438.0846	0.2	wmv	50	noun	list	2	2	nomatch	panier	-1	1	p	0.64781
438.28450000000004	0.0	+	50	noun	list	2	3	nomatch	panier	-1	1	p	0.64781
438.6843	0.2	xmfn	50	noun	list	2	4	nomatch	panier	-1	1	p	0.64781
438.8842	0.0	+	50	noun	list	2	5	nomatch	panier	-1	1	p	0.64781
439.2841	0.2	gzps	50	noun	list	2	6	nomatch	panier	-1	1	p	0.64781
439.48400000000004	0.0	+	50	noun	list	2	7	nomatch	panier	-1	1	p	0.64781
439.8838	0.2	trop	50	noun	list	2	8	nomatch	panier	-1	1	p	0.64781
440.0837	0.0	+	50	noun	list	2	9	nomatch	panier	-1	1	p	0.64781
440.4836	0.2	tablier	50	noun	list	2	10	nomatch	panier	-1	1	p	0.64781
440.7001	0.0	+	50	noun	list	2	11	nomatch	panier	-1	1	p	0.64781
441.0999	0.0	+	50	noun	list	2	12	nomatch	panier	-1	1	p	0.64781
443.099	0.0	PANIER	50	noun	list	2	13	nomatch	panier	-1	1	p	0.64781
443.7987	0.0	+	50	noun	list	2	14	nomatch	panier	-1	1	p	0.64781
443.74680000000006	0.0	[response]	50	noun	list	2	15	nomatch	panier	-1	1	p	0.64781
445.498	0.0	+	51	verb	list	3	1	nomatch	grand	-1	1	p	0.6686600000000001
446.0477	0.2	kfdth	51	verb	list	3	2	nomatch	grand	-1	1	p	0.6686600000000001
446.24760000000003	0.0	+	51	verb	list	3	3	nomatch	grand	-1	1	p	0.6686600000000001
446.64750000000004	0.2	mkg	51	verb	list	3	4	nomatch	grand	-1	1	p	0.6686600000000001
446.8474	0.0	+	51	verb	list	3	5	nomatch	grand	-1	1	p	0.6686600000000001
447.2472	0.2	va	51	verb	list	3	6	nomatch	grand	-1	1	p	0.6686600000000001
447.44710000000003	0.0	+	51	verb	list	3	7	nomatch	grand	-1	1	p	0.6686600000000001
447.8469	0.2	beau	51	verb	list	3	8	nomatch	grand	-1	1	p	0.6686600000000001
448.0469	0.0	+	51	verb	list	3	9	nomatch	grand	-1	1	p	0.6686600000000001
448.4467	0.2	jongler	51	verb	list	3	10	nomatch	grand	-1	1	p	0.6686600000000001
448.64660000000003	0.0	+	51	verb	list	3	11	nomatch	grand	-1	1	p	0.6686600000000001
449.0464	0.0	+	51	verb	list	3	12	nomatch	grand	-1	1	p	0.6686600000000001
451.0455	0.0	GRAND	51	verb	list	3	13	nomatch	grand	-1	1	p	0.6686600000000001
451.77860000000004	0.0	+	51	verb	list	3	14	nomatch	grand	-1	1	p	0.6686600000000001
451.7142	0.0	[response]	51	verb	list	3	15	nomatch	grand	-1	1	p	0.6686600000000001
461.44100000000003	0.0	+	52	noun	phrase	3	1	nomatch	mieux	-1	1	p	0.9303600000000001
461.9907	0.2	ztpkhd	52	noun	phrase	3	2	nomatch	mieux	-1	1	p	0.9303600000000001
462.1906	0.0	+	52	noun	phrase	3	3	nomatch	mieux	-1	1	p	0.9303600000000001
462.5905	0.2	gbph	52	noun	phrase	3	4	nomatch	mieux	-1	1	p	0.9303600000000001
462.79040000000003	0.0	+	52	noun	phrase	3	5	nomatch	mieux	-1	1	p	0.9303600000000001
463.1902	0.2	leur	52	noun	phrase	3	6	nomatch	mieux	-1	1	p	0.9303600000000001
463.3901	0.0	+	52	noun	phrase	3	7	nomatch	mieux	-1	1	p	0.9303600000000001
463.7899	0.2	petit	52	noun	phrase	3	8	nomatch	mieux	-1	1	p	0.9303600000000001
463.9898	0.0	+	52	noun	phrase	3	9	nomatch	mieux	-1	1	p	0.9303600000000001
464.3897	0.2	tablier	52	noun	phrase	3	10	nomatch	mieux	-1	1	p	0.9303600000000001
464.5896	0.0	+	52	noun	phrase	3	11	nomatch	mieux	-1	1	p	0.9303600000000001
464.9894	0.0	+	52	noun	phrase	3	12	nomatch	mieux	-1	1	p	0.9303600000000001
466.9885	0.0	MIEUX	52	noun	phrase	3	13	nomatch	mieux	-1	1	p	0.9303600000000001
467.97139999999996	0.0	+	52	noun	phrase	3	14	nomatch	mieux	-1	1	p	0.9303600000000001
467.91890000000006	0.0	[response]	52	noun	phrase	3	15	nomatch	mieux	-1	1	p	0.9303600000000001
469.3875	0.0	+	53	verb	phrase	4	1	nomatch	luc	-1	1	p	0.50999
469.9372	0.2	zqswrp	53	verb	phrase	4	2	nomatch	luc	-1	1	p	0.50999
470.1371	0.0	+	53	verb	phrase	4	3	nomatch	luc	-1	1	p	0.50999
470.537	0.2	yves	53	verb	phrase	4	4	nomatch	luc	-1	1	p	0.50999
470.73690000000005	0.0	+	53	verb	phrase	4	5	nomatch	luc	-1	1	p	0.50999
471.13669999999996	0.2	peut	53	verb	phrase	4	6	nomatch	luc	-1	1	p	0.50999
471.33660000000003	0.0	+	53	verb	phrase	4	7	nomatch	luc	-1	1	p	0.50999
471.73640000000006	0.2	trop	53	verb	phrase	4	8	nomatch	luc	-1	1	p	0.50999
471.9363	0.0	+	53	verb	phrase	4	9	nomatch	luc	-1	1	p	0.50999
472.3362	0.2	parader	53	verb	phrase	4	10	nomatch	luc	-1	1	p	0.50999
472.5361	0.0	+	53	verb	phrase	4	11	nomatch	luc	-1	1	p	0.50999
472.9359	0.0	+	53	verb	phrase	4	12	nomatch	luc	-1	1	p	0.50999
474.935	0.0	LUC	53	verb	phrase	4	13	nomatch	luc	-1	1	p	0.50999
475.50140000000005	0.0	+	53	verb	phrase	4	14	nomatch	luc	-1	1	p	0.50999
475.445	0.0	[response]	53	verb	phrase	4	15	nomatch	luc	-1	1	p	0.50999
477.334	0.0	+	54	noun	list	2	1	match	plus	4	1	y	0.72116
477.88370000000003	0.2	zlpb	54	noun	list	2	2	match	plus	4	1	y	0.72116
478.0836	0.0	+	54	noun	list	2	3	match	plus	4	1	y	0.72116
478.50010000000003	0.2	qxvn	54	noun	list	2	4	match	plus	4	1	y	0.72116
478.7	0.0	+	54	noun	list	2	5	match	plus	4	1	y	0.72116
479.0998	0.2	gzps	54	noun	list	2	6	match	plus	4	1	y	0.72116
479.29980000000006	0.0	+	54	noun	list	2	7	match	plus	4	1	y	0.72116
479.6996	0.2	plus	54	noun	list	2	8	match	plus	4	1	y	0.72116
479.89950000000005	0.0	+	54	noun	list	2	9	match	plus	4	1	y	0.72116
480.29929999999996	0.2	voilier	54	noun	list	2	10	match	plus	4	1	y	0.72116
480.49920000000003	0.0	+	54	noun	list	2	11	match	plus	4	1	y	0.72116
480.89910000000003	0.0	+	54	noun	list	2	12	match	plus	4	1	y	0.72116
482.89820000000003	0.0	PLUS	54	noun	list	2	13	match	plus	4	1	y	0.72116
483.68120000000005	0.0	+	54	noun	list	2	14	match	plus	4	1	y	0.72116
483.6193	0.0	[response]	54	noun	list	2	15	match	plus	4	1	y	0.72116
485.29710000000006	0.0	+	55	verb	list	2	1	nomatch	tablier	-1	1	p	0.5621200000000001
485.84690000000006	0.2	flcdpn	55	verb	list	2	2	nomatch	tablier	-1	1	p	0.5621200000000001
486.0468	0.0	+	55	verb	list	2	3	nomatch	tablier	-1	1	p	0.5621200000000001
486.44660000000005	0.2	wksm	55	verb	list	2	4	nomatch	tablier	-1	1	p	0.5621200000000001
486.6465	0.0	+	55	verb	list	2	5	nomatch	tablier	-1	1	p	0.5621200000000001
487.0464	0.2	drzp	55	verb	list	2	6	nomatch	tablier	-1	1	p	0.5621200000000001
487.24629999999996	0.0	+	55	verb	list	2	7	nomatch	tablier	-1	1	p	0.5621200000000001
487.6461	0.2	beau	55	verb	list	2	8	nomatch	tablier	-1	1	p	0.5621200000000001
487.84600000000006	0.0	+	55	verb	list	2	9	nomatch	tablier	-1	1	p	0.5621200000000001
488.2458	0.2	voyager	55	verb	list	2	10	nomatch	tablier	-1	1	p	0.5621200000000001
488.44570000000004	0.0	+	55	verb	list	2	11	nomatch	tablier	-1	1	p	0.5621200000000001
488.84560000000005	0.0	+	55	verb	list	2	12	nomatch	tablier	-1	1	p	0.5621200000000001
490.84470000000005	0.0	TABLIER	55	verb	list	2	13	nomatch	tablier	-1	1	p	0.5621200000000001
491.46110000000004	0.0	+	55	verb	list	2	14	nomatch	tablier	-1	1	p	0.5621200000000001
491.40680000000015	0.0	[response]	55	verb	list	2	15	nomatch	tablier	-1	1	p	0.5621200000000001
493.2436000000001	0.0	+	56	verb	list	1	1	match	rouge	5	1	y	0.56821
493.79339999999996	0.2	hnlfc	56	verb	list	1	2	match	rouge	5	1	y	0.56821
493.99330000000003	0.0	+	56	verb	list	1	3	match	rouge	5	1	y	0.56821
494.39310000000006	0.2	qxvn	56	verb	list	1	4	match	rouge	5	1	y	0.56821
494.593	0.0	+	56	verb	list	1	5	match	rouge	5	1	y	0.56821
494.99280000000005	0.2	dmf	56	verb	list	1	6	match	rouge	5	1	y	0.56821
495.1928	0.0	+	56	verb	list	1	7	match	rouge	5	1	y	0.56821
495.5926	0.2	pvhblsk	56	verb	list	1	8	match	rouge	5	1	y	0.56821
495.7932	0.0	+	56	verb	list	1	9	match	rouge	5	1	y	0.56821
496.1923	0.2	rouge	56	verb	list	1	10	match	rouge	5	1	y	0.56821
496.39220000000006	0.0	+	56	verb	list	1	11	match	rouge	5	1	y	0.56821
496.79210000000006	0.0	+	56	verb	list	1	12	match	rouge	5	1	y	0.56821
498.79120000000006	0.0	ROUGE	56	verb	list	1	13	match	rouge	5	1	y	0.56821
499.4242	0.0	+	56	verb	list	1	14	match	rouge	5	1	y	0.56821
499.3594	0.0	[response]	56	verb	list	1	15	match	rouge	5	1	y	0.56821
501.1901	0.0	+	57	noun	phrase	1	1	match	sablier	5	1	y	1.3213
501.7399	0.2	qsvf	57	noun	phrase	1	2	match	sablier	5	1	y	1.3213
501.93980000000005	0.0	+	57	noun	phrase	1	3	match	sablier	5	1	y	1.3213
502.33959999999996	0.2	fqnb	57	noun	phrase	1	4	match	sablier	5	1	y	1.3213
502.53950000000003	0.0	+	57	noun	phrase	1	5	match	sablier	5	1	y	1.3213
502.93940000000003	0.2	gzps	57	noun	phrase	1	6	match	sablier	5	1	y	1.3213
503.1393	0.0	+	57	noun	phrase	1	7	match	sablier	5	1	y	1.3213
503.5391	0.2	jpqb	57	noun	phrase	1	8	match	sablier	5	1	y	1.3213
503.739	0.0	+	57	noun	phrase	1	9	match	sablier	5	1	y	1.3213
504.1388	0.2	sablier	57	noun	phrase	1	10	match	sablier	5	1	y	1.3213
504.33869999999996	0.0	+	57	noun	phrase	1	11	match	sablier	5	1	y	1.3213
504.73859999999996	0.0	+	57	noun	phrase	1	12	match	sablier	5	1	y	1.3213
506.73769999999996	0.0	SABLIER	57	noun	phrase	1	13	match	sablier	5	1	y	1.3213
508.12039999999996	0.0	+	57	noun	phrase	1	14	match	sablier	5	1	y	1.3213
508.059	0.0	[response]	57	noun	phrase	1	15	match	sablier	5	1	y	1.3213
525.1461999999999	0.0	+	58	verb	phrase	1	1	match	vite	5	1	y	0.4191
525.6959999999999	0.2	kqv	58	verb	phrase	1	2	match	vite	5	1	y	0.4191
525.8959	0.0	+	58	verb	phrase	1	3	match	vite	5	1	y	0.4191
526.2957	0.2	qxvn	58	verb	phrase	1	4	match	vite	5	1	y	0.4191
526.4956999999999	0.0	+	58	verb	phrase	1	5	match	vite	5	1	y	0.4191
526.8955	0.2	px	58	verb	phrase	1	6	match	vite	5	1	y	0.4191
527.0953999999999	0.0	+	58	verb	phrase	1	7	match	vite	5	1	y	0.4191
527.4952	0.2	plhrfsn	58	verb	phrase	1	8	match	vite	5	1	y	0.4191
527.6950999999999	0.0	+	58	verb	phrase	1	9	match	vite	5	1	y	0.4191
528.0949999999999	0.2	vite	58	verb	phrase	1	10	match	vite	5	1	y	0.4191
528.2949	0.0	+	58	verb	phrase	1	11	match	vite	5	1	y	0.4191
528.6947	0.0	+	58	verb	phrase	1	12	match	vite	5	1	y	0.4191
530.6938	0.0	VITE	58	verb	phrase	1	13	match	vite	5	1	y	0.4191
531.1768999999999	0.0	+	58	verb	phrase	1	14	match	vite	5	1	y	0.4191
531.1129	0.0	[response]	58	verb	phrase	1	15	match	vite	5	1	y	0.4191
533.0926999999999	0.0	+	59	verb	list	3	1	match	voyager	5	1	y	0.63884
533.6424999999999	0.2	rqvfp	59	verb	list	3	2	match	voyager	5	1	y	0.63884
533.8424	0.0	+	59	verb	list	3	3	match	voyager	5	1	y	0.63884
534.2421999999999	0.2	prkz	59	verb	list	3	4	match	voyager	5	1	y	0.63884
534.4422	0.0	+	59	verb	list	3	5	match	voyager	5	1	y	0.63884
534.842	0.2	doit	59	verb	list	3	6	match	voyager	5	1	y	0.63884
535.0418999999999	0.0	+	59	verb	list	3	7	match	voyager	5	1	y	0.63884
535.4417	0.2	grand	59	verb	list	3	8	match	voyager	5	1	y	0.63884
535.6415999999999	0.0	+	59	verb	list	3	9	match	voyager	5	1	y	0.63884
536.0414	0.2	voyager	59	verb	list	3	10	match	voyager	5	1	y	0.63884
536.2414	0.0	+	59	verb	list	3	11	match	voyager	5	1	y	0.63884
536.6411999999999	0.0	+	59	verb	list	3	12	match	voyager	5	1	y	0.63884
538.6402999999999	0.0	VOYAGER	59	verb	list	3	13	match	voyager	5	1	y	0.63884
539.3399999999999	0.0	+	59	verb	list	3	14	match	voyager	5	1	y	0.63884
539.2791	0.0	[response]	59	verb	list	3	15	match	voyager	5	1	y	0.63884
541.0392999999999	0.0	+	60	noun	list	1	1	nomatch	beaucoup	-1	1	p	0.7976300000000001
541.5889999999999	0.2	vrxkmgw	60	noun	list	1	2	nomatch	beaucoup	-1	1	p	0.7976300000000001
541.7889	0.0	+	60	noun	list	1	3	nomatch	beaucoup	-1	1	p	0.7976300000000001
542.1886999999999	0.2	qxvn	60	noun	list	1	4	nomatch	beaucoup	-1	1	p	0.7976300000000001
542.3886	0.0	+	60	noun	list	1	5	nomatch	beaucoup	-1	1	p	0.7976300000000001
542.7885	0.2	hls	60	noun	list	1	6	nomatch	beaucoup	-1	1	p	0.7976300000000001
542.9884	0.0	+	60	noun	list	1	7	nomatch	beaucoup	-1	1	p	0.7976300000000001
543.3882	0.2	jdfbnzg	60	noun	list	1	8	nomatch	beaucoup	-1	1	p	0.7976300000000001
543.5880999999999	0.0	+	60	noun	list	1	9	nomatch	beaucoup	-1	1	p	0.7976300000000001
543.9879999999999	0.2	trop	60	noun	list	1	10	nomatch	beaucoup	-1	1	p	0.7976300000000001
544.1877999999999	0.0	+	60	noun	list	1	11	nomatch	beaucoup	-1	1	p	0.7976300000000001
544.5876999999999	0.0	+	60	noun	list	1	12	nomatch	beaucoup	-1	1	p	0.7976300000000001
546.5867999999999	0.0	BEAUCOUP	60	noun	list	1	13	nomatch	beaucoup	-1	1	p	0.7976300000000001
547.4363999999999	0.0	+	60	noun	list	1	14	nomatch	beaucoup	-1	1	p	0.7976300000000001
547.3843999999999	0.0	[response]	60	noun	list	1	15	nomatch	beaucoup	-1	1	p	0.7976300000000001
548.9857	0.0	+	61	verb	list	1	1	match	galoper	5	1	y	0.69905
549.5355	0.2	nfvg	61	verb	list	1	2	match	galoper	5	1	y	0.69905
549.7353999999999	0.0	+	61	verb	list	1	3	match	galoper	5	1	y	0.69905
550.1351999999999	0.2	wksm	61	verb	list	1	4	match	galoper	5	1	y	0.69905
550.3351	0.0	+	61	verb	list	1	5	match	galoper	5	1	y	0.69905
550.735	0.2	xlrj	61	verb	list	1	6	match	galoper	5	1	y	0.69905
550.9349	0.0	+	61	verb	list	1	7	match	galoper	5	1	y	0.69905
551.3347	0.2	dhnx	61	verb	list	1	8	match	galoper	5	1	y	0.69905
551.5346	0.0	+	61	verb	list	1	9	match	galoper	5	1	y	0.69905
551.9345	0.2	galoper	61	verb	list	1	10	match	galoper	5	1	y	0.69905
552.1343999999999	0.0	+	61	verb	list	1	11	match	galoper	5	1	y	0.69905
552.5341999999999	0.0	+	61	verb	list	1	12	match	galoper	5	1	y	0.69905
554.55	0.0	GALOPER	61	verb	list	1	13	match	galoper	5	1	y	0.69905
555.3163	0.0	+	61	verb	list	1	14	match	galoper	5	1	y	0.69905
555.2489999999999	0.0	[response]	61	verb	list	1	15	match	galoper	5	1	y	0.69905
556.9489	0.0	+	62	verb	phrase	4	1	nomatch	grenier	-1	1	p	0.66965
557.4987	0.2	cqpksbh	62	verb	phrase	4	2	nomatch	grenier	-1	1	p	0.66965
557.6985999999999	0.0	+	62	verb	phrase	4	3	nomatch	grenier	-1	1	p	0.66965
558.0984	0.2	adam	62	verb	phrase	4	4	nomatch	grenier	-1	1	p	0.66965
558.2982999999999	0.0	+	62	verb	phrase	4	5	nomatch	grenier	-1	1	p	0.66965
558.6981	0.2	peut	62	verb	phrase	4	6	nomatch	grenier	-1	1	p	0.66965
558.8979999999999	0.0	+	62	verb	phrase	4	7	nomatch	grenier	-1	1	p	0.66965
559.2978999999999	0.2	danser	62	verb	phrase	4	8	nomatch	grenier	-1	1	p	0.66965
559.4978	0.0	+	62	verb	phrase	4	9	nomatch	grenier	-1	1	p	0.66965
559.8976	0.2	tard	62	verb	phrase	4	10	nomatch	grenier	-1	1	p	0.66965
560.0975	0.0	+	62	verb	phrase	4	11	nomatch	grenier	-1	1	p	0.66965
560.4974	0.0	+	62	verb	phrase	4	12	nomatch	grenier	-1	1	p	0.66965
562.4965	0.0	GRENIER	62	verb	phrase	4	13	nomatch	grenier	-1	1	p	0.66965
563.2294999999999	0.0	+	62	verb	phrase	4	14	nomatch	grenier	-1	1	p	0.66965
563.1661	0.0	[response]	62	verb	phrase	4	15	nomatch	grenier	-1	1	p	0.66965
572.8919	0.0	+	63	verb	list	3	1	match	parader	4	1	y	0.54102
573.4416	0.2	zgj	63	verb	list	3	2	match	parader	4	1	y	0.54102
573.6415999999999	0.0	+	63	verb	list	3	3	match	parader	4	1	y	0.54102
574.0414	0.2	sbgt	63	verb	list	3	4	match	parader	4	1	y	0.54102
574.2412999999999	0.0	+	63	verb	list	3	5	match	parader	4	1	y	0.54102
574.6410999999999	0.2	mon	63	verb	list	3	6	match	parader	4	1	y	0.54102
574.841	0.0	+	63	verb	list	3	7	match	parader	4	1	y	0.54102
575.2409	0.2	parader	63	verb	list	3	8	match	parader	4	1	y	0.54102
575.4408	0.0	+	63	verb	list	3	9	match	parader	4	1	y	0.54102
575.8406	0.2	bleu	63	verb	list	3	10	match	parader	4	1	y	0.54102
576.0405	0.0	+	63	verb	list	3	11	match	parader	4	1	y	0.54102
576.4403	0.0	+	63	verb	list	3	12	match	parader	4	1	y	0.54102
578.4394	0.0	PARADER	63	verb	list	3	13	match	parader	4	1	y	0.54102
579.0391999999999	0.0	+	63	verb	list	3	14	match	parader	4	1	y	0.54102
578.9805	0.0	[response]	63	verb	list	3	15	match	parader	4	1	y	0.54102
588.8349	0.0	+	64	verb	list	3	1	match	va	3	1	y	0.50932
589.3846	0.2	fhr	64	verb	list	3	2	match	va	3	1	y	0.50932
589.5844999999999	0.0	+	64	verb	list	3	3	match	va	3	1	y	0.50932
589.9843999999999	0.2	wksm	64	verb	list	3	4	match	va	3	1	y	0.50932
590.1843	0.0	+	64	verb	list	3	5	match	va	3	1	y	0.50932
590.5840999999999	0.2	va	64	verb	list	3	6	match	va	3	1	y	0.50932
590.784	0.0	+	64	verb	list	3	7	match	va	3	1	y	0.50932
591.1837999999999	0.2	grand	64	verb	list	3	8	match	va	3	1	y	0.50932
591.3837	0.0	+	64	verb	list	3	9	match	va	3	1	y	0.50932
591.7836	0.2	plonger	64	verb	list	3	10	match	va	3	1	y	0.50932
591.9834999999999	0.0	+	64	verb	list	3	11	match	va	3	1	y	0.50932
592.4	0.0	+	64	verb	list	3	12	match	va	3	1	y	0.50932
594.3991	0.0	VA	64	verb	list	3	13	match	va	3	1	y	0.50932
594.9654999999999	0.0	+	64	verb	list	3	14	match	va	3	1	y	0.50932
594.9083999999999	0.0	[response]	64	verb	list	3	15	match	va	3	1	y	0.50932
596.798	0.0	+	65	verb	list	2	1	match	danser	4	1	y	0.86865
597.3478	0.2	xrkclw	65	verb	list	2	2	match	danser	4	1	y	0.86865
597.5477	0.0	+	65	verb	list	2	3	match	danser	4	1	y	0.86865
597.9475	0.2	bml	65	verb	list	2	4	match	danser	4	1	y	0.86865
598.1474	0.0	+	65	verb	list	2	5	match	danser	4	1	y	0.86865
598.5473	0.2	hls	65	verb	list	2	6	match	danser	4	1	y	0.86865
598.7471999999999	0.0	+	65	verb	list	2	7	match	danser	4	1	y	0.86865
599.1469999999999	0.2	danser	65	verb	list	2	8	match	danser	4	1	y	0.86865
599.3469	0.0	+	65	verb	list	2	9	match	danser	4	1	y	0.86865
599.7466999999999	0.2	vert	65	verb	list	2	10	match	danser	4	1	y	0.86865
599.9466	0.0	+	65	verb	list	2	11	match	danser	4	1	y	0.86865
600.3465	0.0	+	65	verb	list	2	12	match	danser	4	1	y	0.86865
602.3456	0.0	DANSER	65	verb	list	2	13	match	danser	4	1	y	0.86865
603.2785	0.0	+	65	verb	list	2	14	match	danser	4	1	y	0.86865
603.2142000000001	0.0	[response]	65	verb	list	2	15	match	danser	4	1	y	0.86865
604.7444999999999	0.0	+	66	verb	phrase	4	1	nomatch	petit	-1	1	p	0.60696
605.2942999999999	0.2	vxtn	66	verb	phrase	4	2	nomatch	petit	-1	1	p	0.60696
605.4942	0.0	+	66	verb	phrase	4	3	nomatch	petit	-1	1	p	0.60696
605.894	0.2	jade	66	verb	phrase	4	4	nomatch	petit	-1	1	p	0.60696
606.0939	0.0	+	66	verb	phrase	4	5	nomatch	petit	-1	1	p	0.60696
606.4938	0.2	doit	66	verb	phrase	4	6	nomatch	petit	-1	1	p	0.60696
606.6936999999999	0.0	+	66	verb	phrase	4	7	nomatch	petit	-1	1	p	0.60696
607.0935	0.2	jongler	66	verb	phrase	4	8	nomatch	petit	-1	1	p	0.60696
607.2933999999999	0.0	+	66	verb	phrase	4	9	nomatch	petit	-1	1	p	0.60696
607.6931999999999	0.2	tôt	66	verb	phrase	4	10	nomatch	petit	-1	1	p	0.60696
607.8931	0.0	+	66	verb	phrase	4	11	nomatch	petit	-1	1	p	0.60696
608.293	0.0	+	66	verb	phrase	4	12	nomatch	petit	-1	1	p	0.60696
610.2921	0.0	PETIT	66	verb	phrase	4	13	nomatch	petit	-1	1	p	0.60696
610.9585	0.0	+	66	verb	phrase	4	14	nomatch	petit	-1	1	p	0.60696
610.899	0.0	[response]	66	verb	phrase	4	15	nomatch	petit	-1	1	p	0.60696
612.6909999999999	0.0	+	67	verb	list	1	1	match	grand	5	1	y	0.70363
613.2407999999999	0.2	rkn	67	verb	list	1	2	match	grand	5	1	y	0.70363
613.4407	0.0	+	67	verb	list	1	3	match	grand	5	1	y	0.70363
613.8404999999999	0.2	nrlk	67	verb	list	1	4	match	grand	5	1	y	0.70363
614.0404	0.0	+	67	verb	list	1	5	match	grand	5	1	y	0.70363
614.4403	0.2	px	67	verb	list	1	6	match	grand	5	1	y	0.70363
614.6401999999999	0.0	+	67	verb	list	1	7	match	grand	5	1	y	0.70363
615.04	0.2	zrblps	67	verb	list	1	8	match	grand	5	1	y	0.70363
615.2398999999999	0.0	+	67	verb	list	1	9	match	grand	5	1	y	0.70363
615.6397	0.2	grand	67	verb	list	1	10	match	grand	5	1	y	0.70363
615.8395999999999	0.0	+	67	verb	list	1	11	match	grand	5	1	y	0.70363
616.2394999999999	0.0	+	67	verb	list	1	12	match	grand	5	1	y	0.70363
618.2385999999999	0.0	GRAND	67	verb	list	1	13	match	grand	5	1	y	0.70363
619.0048999999999	0.0	+	67	verb	list	1	14	match	grand	5	1	y	0.70363
618.9422	0.0	[response]	67	verb	list	1	15	match	grand	5	1	y	0.70363
620.6374999999999	0.0	+	68	verb	list	2	1	nomatch	sans	-1	1	p	0.5582
621.1872999999999	0.2	xqlwrjk	68	verb	list	2	2	nomatch	sans	-1	1	p	0.5582
621.3872	0.0	+	68	verb	list	2	3	nomatch	sans	-1	1	p	0.5582
621.7869999999999	0.2	dzlw	68	verb	list	2	4	nomatch	sans	-1	1	p	0.5582
621.9869	0.0	+	68	verb	list	2	5	nomatch	sans	-1	1	p	0.5582
622.3868	0.2	dmf	68	verb	list	2	6	nomatch	sans	-1	1	p	0.5582
622.5867	0.0	+	68	verb	list	2	7	nomatch	sans	-1	1	p	0.5582
622.9865	0.2	chasser	68	verb	list	2	8	nomatch	sans	-1	1	p	0.5582
623.1863999999999	0.0	+	68	verb	list	2	9	nomatch	sans	-1	1	p	0.5582
623.5862	0.2	bleu	68	verb	list	2	10	nomatch	sans	-1	1	p	0.5582
623.7860999999999	0.0	+	68	verb	list	2	11	nomatch	sans	-1	1	p	0.5582
624.1859999999999	0.0	+	68	verb	list	2	12	nomatch	sans	-1	1	p	0.5582
626.1850999999999	0.0	SANS	68	verb	list	2	13	nomatch	sans	-1	1	p	0.5582
626.8014999999999	0.0	+	68	verb	list	2	14	nomatch	sans	-1	1	p	0.5582
626.7433000000001	0.0	[response]	68	verb	list	2	15	nomatch	sans	-1	1	p	0.5582
636.5971999999999	0.0	+	69	verb	phrase	1	1	match	jongler	5	1	y	0.77928
637.1469	0.2	mzgxkfs	69	verb	phrase	1	2	match	jongler	5	1	y	0.77928
637.3467999999999	0.0	+	69	verb	phrase	1	3	match	jongler	5	1	y	0.77928
637.7466999999999	0.2	qxvn	69	verb	phrase	1	4	match	jongler	5	1	y	0.77928
637.9466	0.0	+	69	verb	phrase	1	5	match	jongler	5	1	y	0.77928
638.3463999999999	0.2	px	69	verb	phrase	1	6	match	jongler	5	1	y	0.77928
638.5463	0.0	+	69	verb	phrase	1	7	match	jongler	5	1	y	0.77928
638.9461	0.2	jxhzl	69	verb	phrase	1	8	match	jongler	5	1	y	0.77928
639.146	0.0	+	69	verb	phrase	1	9	match	jongler	5	1	y	0.77928
639.5459	0.2	jongler	69	verb	phrase	1	10	match	jongler	5	1	y	0.77928
639.7457999999999	0.0	+	69	verb	phrase	1	11	match	jongler	5	1	y	0.77928
640.1456	0.0	+	69	verb	phrase	1	12	match	jongler	5	1	y	0.77928
642.1447	0.0	JONGLER	69	verb	phrase	1	13	match	jongler	5	1	y	0.77928
642.9776999999999	0.0	+	69	verb	phrase	1	14	match	jongler	5	1	y	0.77928
642.924	0.0	[response]	69	verb	phrase	1	15	match	jongler	5	1	y	0.77928
644.5437	0.0	+	70	verb	phrase	2	1	nomatch	voilier	-1	1	p	1.2498
645.0934	0.2	qftjg	70	verb	phrase	2	2	nomatch	voilier	-1	1	p	1.2498
645.2932999999999	0.0	+	70	verb	phrase	2	3	nomatch	voilier	-1	1	p	1.2498
645.6931999999999	0.2	qnpz	70	verb	phrase	2	4	nomatch	voilier	-1	1	p	1.2498
645.8931	0.0	+	70	verb	phrase	2	5	nomatch	voilier	-1	1	p	1.2498
646.2928999999999	0.2	xlrj	70	verb	phrase	2	6	nomatch	voilier	-1	1	p	1.2498
646.4928	0.0	+	70	verb	phrase	2	7	nomatch	voilier	-1	1	p	1.2498
646.8926	0.2	parader	70	verb	phrase	2	8	nomatch	voilier	-1	1	p	1.2498
647.0925	0.0	+	70	verb	phrase	2	9	nomatch	voilier	-1	1	p	1.2498
647.4924	0.2	vite	70	verb	phrase	2	10	nomatch	voilier	-1	1	p	1.2498
647.6922999999999	0.0	+	70	verb	phrase	2	11	nomatch	voilier	-1	1	p	1.2498
648.0921	0.0	+	70	verb	phrase	2	12	nomatch	voilier	-1	1	p	1.2498
650.0912	0.0	VOILIER	70	verb	phrase	2	13	nomatch	voilier	-1	1	p	1.2498
651.4073	0.0	+	70	verb	phrase	2	14	nomatch	voilier	-1	1	p	1.2498
651.341	0.0	[response]	70	verb	phrase	2	15	nomatch	voilier	-1	1	p	1.2498
668.4997999999999	0.0	+	71	noun	phrase	1	1	nomatch	petit	-1	1	p	0.5415400000000001
669.0495	0.2	vjt	71	noun	phrase	1	2	nomatch	petit	-1	1	p	0.5415400000000001
669.2495	0.0	+	71	noun	phrase	1	3	nomatch	petit	-1	1	p	0.5415400000000001
669.6492999999999	0.2	gbph	71	noun	phrase	1	4	nomatch	petit	-1	1	p	0.5415400000000001
669.8492	0.0	+	71	noun	phrase	1	5	nomatch	petit	-1	1	p	0.5415400000000001
670.2489999999999	0.2	hls	71	noun	phrase	1	6	nomatch	petit	-1	1	p	0.5415400000000001
670.4489	0.0	+	71	noun	phrase	1	7	nomatch	petit	-1	1	p	0.5415400000000001
670.8487	0.2	xzjdfvh	71	noun	phrase	1	8	nomatch	petit	-1	1	p	0.5415400000000001
671.0486999999999	0.0	+	71	noun	phrase	1	9	nomatch	petit	-1	1	p	0.5415400000000001
671.4485	0.2	beau	71	noun	phrase	1	10	nomatch	petit	-1	1	p	0.5415400000000001
671.6483999999999	0.0	+	71	noun	phrase	1	11	nomatch	petit	-1	1	p	0.5415400000000001
672.0482	0.0	+	71	noun	phrase	1	12	nomatch	petit	-1	1	p	0.5415400000000001
674.0473	0.0	PETIT	71	noun	phrase	1	13	nomatch	petit	-1	1	p	0.5415400000000001
674.6470999999999	0.0	+	71	noun	phrase	1	14	nomatch	petit	-1	1	p	0.5415400000000001
674.5889	0.0	[response]	71	noun	phrase	1	15	nomatch	petit	-1	1	p	0.5415400000000001
676.4463	0.0	+	72	verb	list	2	1	match	nouveau	4	1	y	0.70708
676.9961	0.2	tmfdl	72	verb	list	2	2	match	nouveau	4	1	y	0.70708
677.1959999999999	0.0	+	72	verb	list	2	3	match	nouveau	4	1	y	0.70708
677.5957999999999	0.2	prkz	72	verb	list	2	4	match	nouveau	4	1	y	0.70708
677.7957	0.0	+	72	verb	list	2	5	match	nouveau	4	1	y	0.70708
678.1954999999999	0.2	xlrj	72	verb	list	2	6	match	nouveau	4	1	y	0.70708
678.3954	0.0	+	72	verb	list	2	7	match	nouveau	4	1	y	0.70708
678.7953	0.2	nouveau	72	verb	list	2	8	match	nouveau	4	1	y	0.70708
678.9952	0.0	+	72	verb	list	2	9	match	nouveau	4	1	y	0.70708
679.395	0.2	parader	72	verb	list	2	10	match	nouveau	4	1	y	0.70708
679.5948999999999	0.0	+	72	verb	list	2	11	match	nouveau	4	1	y	0.70708
679.9947	0.0	+	72	verb	list	2	12	match	nouveau	4	1	y	0.70708
681.9938	0.0	NOUVEAU	72	verb	list	2	13	match	nouveau	4	1	y	0.70708
682.7601999999999	0.0	+	72	verb	list	2	14	match	nouveau	4	1	y	0.70708
682.7008999999999	0.0	[response]	72	verb	list	2	15	match	nouveau	4	1	y	0.70708
684.3928	0.0	+	73	noun	phrase	1	1	nomatch	dans	-1	1	p	0.5604
684.9425	0.2	lkvgjz	73	noun	phrase	1	2	nomatch	dans	-1	1	p	0.5604
685.1424999999999	0.0	+	73	noun	phrase	1	3	nomatch	dans	-1	1	p	0.5604
685.5423	0.2	nrlk	73	noun	phrase	1	4	nomatch	dans	-1	1	p	0.5604
685.7421999999999	0.0	+	73	noun	phrase	1	5	nomatch	dans	-1	1	p	0.5604
686.1419999999999	0.2	hls	73	noun	phrase	1	6	nomatch	dans	-1	1	p	0.5604
686.3419	0.0	+	73	noun	phrase	1	7	nomatch	dans	-1	1	p	0.5604
686.7418	0.2	phkctnl	73	noun	phrase	1	8	nomatch	dans	-1	1	p	0.5604
686.9417	0.0	+	73	noun	phrase	1	9	nomatch	dans	-1	1	p	0.5604
687.3415	0.2	grand	73	noun	phrase	1	10	nomatch	dans	-1	1	p	0.5604
687.5414	0.0	+	73	noun	phrase	1	11	nomatch	dans	-1	1	p	0.5604
687.9412	0.0	+	73	noun	phrase	1	12	nomatch	dans	-1	1	p	0.5604
689.9404	0.0	DANS	73	noun	phrase	1	13	nomatch	dans	-1	1	p	0.5604
690.5568	0.0	+	73	noun	phrase	1	14	nomatch	dans	-1	1	p	0.5604
690.5007999999999	0.0	[response]	73	noun	phrase	1	15	nomatch	dans	-1	1	p	0.5604
692.3393	0.0	+	74	verb	phrase	1	1	match	mieux	5	1	y	0.47668
692.8891	0.2	xmt	74	verb	phrase	1	2	match	mieux	5	1	y	0.47668
693.0889999999999	0.0	+	74	verb	phrase	1	3	match	mieux	5	1	y	0.47668
693.4888	0.2	qxrj	74	verb	phrase	1	4	match	mieux	5	1	y	0.47668
693.6886999999999	0.0	+	74	verb	phrase	1	5	match	mieux	5	1	y	0.47668
694.0885	0.2	drzp	74	verb	phrase	1	6	match	mieux	5	1	y	0.47668
694.2883999999999	0.0	+	74	verb	phrase	1	7	match	mieux	5	1	y	0.47668
694.6882999999999	0.2	pvhblsk	74	verb	phrase	1	8	match	mieux	5	1	y	0.47668
694.8882	0.0	+	74	verb	phrase	1	9	match	mieux	5	1	y	0.47668
695.288	0.2	mieux	74	verb	phrase	1	10	match	mieux	5	1	y	0.47668
695.4879	0.0	+	74	verb	phrase	1	11	match	mieux	5	1	y	0.47668
695.8877	0.0	+	74	verb	phrase	1	12	match	mieux	5	1	y	0.47668
697.8869	0.0	MIEUX	74	verb	phrase	1	13	match	mieux	5	1	y	0.47668
698.42	0.0	+	74	verb	phrase	1	14	match	mieux	5	1	y	0.47668
698.3635	0.0	[response]	74	verb	phrase	1	15	match	mieux	5	1	y	0.47668
708.299	0.0	+	75	verb	list	1	1	nomatch	sans	-1	1	p	0.9582
708.8487	0.2	pkgdzlh	75	verb	list	1	2	nomatch	sans	-1	1	p	0.9582
709.0486	0.0	+	75	verb	list	1	3	nomatch	sans	-1	1	p	0.9582
709.4484	0.2	pcms	75	verb	list	1	4	nomatch	sans	-1	1	p	0.9582
709.6483	0.0	+	75	verb	list	1	5	nomatch	sans	-1	1	p	0.9582
710.0482	0.2	px	75	verb	list	1	6	nomatch	sans	-1	1	p	0.9582
710.2480999999999	0.0	+	75	verb	list	1	7	nomatch	sans	-1	1	p	0.9582
710.6478999999999	0.2	cpwvrdq	75	verb	list	1	8	nomatch	sans	-1	1	p	0.9582
710.8478	0.0	+	75	verb	list	1	9	nomatch	sans	-1	1	p	0.9582
711.2475999999999	0.2	nouveau	75	verb	list	1	10	nomatch	sans	-1	1	p	0.9582
711.4476	0.0	+	75	verb	list	1	11	nomatch	sans	-1	1	p	0.9582
711.8474	0.0	+	75	verb	list	1	12	nomatch	sans	-1	1	p	0.9582
713.8465	0.0	SANS	75	verb	list	1	13	nomatch	sans	-1	1	p	0.9582
714.8626999999999	0.0	+	75	verb	list	1	14	nomatch	sans	-1	1	p	0.9582
714.8046999999999	0.0	[response]	75	verb	list	1	15	nomatch	sans	-1	1	p	0.9582
716.2453999999999	0.0	+	76	verb	phrase	2	1	nomatch	voyager	-1	1	p	0.7358
716.7951999999999	0.2	kvrdmsx	76	verb	phrase	2	2	nomatch	voyager	-1	1	p	0.7358
716.9951	0.0	+	76	verb	phrase	2	3	nomatch	voyager	-1	1	p	0.7358
717.3949	0.2	qnpz	76	verb	phrase	2	4	nomatch	voyager	-1	1	p	0.7358
717.5948	0.0	+	76	verb	phrase	2	5	nomatch	voyager	-1	1	p	0.7358
717.9947	0.2	xlrj	76	verb	phrase	2	6	nomatch	voyager	-1	1	p	0.7358
718.1945999999999	0.0	+	76	verb	phrase	2	7	nomatch	voyager	-1	1	p	0.7358
718.5944	0.2	patiner	76	verb	phrase	2	8	nomatch	voyager	-1	1	p	0.7358
718.7942999999999	0.0	+	76	verb	phrase	2	9	nomatch	voyager	-1	1	p	0.7358
719.1940999999999	0.2	tard	76	verb	phrase	2	10	nomatch	voyager	-1	1	p	0.7358
719.394	0.0	+	76	verb	phrase	2	11	nomatch	voyager	-1	1	p	0.7358
719.7939	0.0	+	76	verb	phrase	2	12	nomatch	voyager	-1	1	p	0.7358
721.793	0.0	VOYAGER	76	verb	phrase	2	13	nomatch	voyager	-1	1	p	0.7358
722.5926999999999	0.0	+	76	verb	phrase	2	14	nomatch	voyager	-1	1	p	0.7358
722.5287999999999	0.0	[response]	76	verb	phrase	2	15	nomatch	voyager	-1	1	p	0.7358
732.1884	0.0	+	77	verb	list	1	1	match	chasser	5	1	y	0.47913
732.7382	0.2	tgdlzj	77	verb	list	1	2	match	chasser	5	1	y	0.47913
732.9381	0.0	+	77	verb	list	1	3	match	chasser	5	1	y	0.47913
733.3379	0.2	bml	77	verb	list	1	4	match	chasser	5	1	y	0.47913
733.5378	0.0	+	77	verb	list	1	5	match	chasser	5	1	y	0.47913
733.9376	0.2	dmf	77	verb	list	1	6	match	chasser	5	1	y	0.47913
734.1375999999999	0.0	+	77	verb	list	1	7	match	chasser	5	1	y	0.47913
734.5373999999999	0.2	jpqb	77	verb	list	1	8	match	chasser	5	1	y	0.47913
734.7373	0.0	+	77	verb	list	1	9	match	chasser	5	1	y	0.47913
735.1370999999999	0.2	chasser	77	verb	list	1	10	match	chasser	5	1	y	0.47913
735.337	0.0	+	77	verb	list	1	11	match	chasser	5	1	y	0.47913
735.7369	0.0	+	77	verb	list	1	12	match	chasser	5	1	y	0.47913
737.736	0.0	CHASSER	77	verb	list	1	13	match	chasser	5	1	y	0.47913
738.2691	0.0	+	77	verb	list	1	14	match	chasser	5	1	y	0.47913
738.2151	0.0	[response]	77	verb	list	1	15	match	chasser	5	1	y	0.47913
740.1349	0.0	+	78	verb	phrase	4	1	match	plonger	4	1	y	0.65425
740.6846999999999	0.2	pnmqz	78	verb	phrase	4	2	match	plonger	4	1	y	0.65425
740.8846	0.0	+	78	verb	phrase	4	3	match	plonger	4	1	y	0.65425
741.2844	0.2	adam	78	verb	phrase	4	4	match	plonger	4	1	y	0.65425
741.4843	0.0	+	78	verb	phrase	4	5	match	plonger	4	1	y	0.65425
741.8842	0.2	peut	78	verb	phrase	4	6	match	plonger	4	1	y	0.65425
742.0840999999999	0.0	+	78	verb	phrase	4	7	match	plonger	4	1	y	0.65425
742.4839	0.2	plonger	78	verb	phrase	4	8	match	plonger	4	1	y	0.65425
742.6837999999999	0.0	+	78	verb	phrase	4	9	match	plonger	4	1	y	0.65425
743.0835999999999	0.2	ainsi	78	verb	phrase	4	10	match	plonger	4	1	y	0.65425
743.2836	0.0	+	78	verb	phrase	4	11	match	plonger	4	1	y	0.65425
743.6999999999999	0.0	+	78	verb	phrase	4	12	match	plonger	4	1	y	0.65425
745.6991999999999	0.0	PLONGER	78	verb	phrase	4	13	match	plonger	4	1	y	0.65425
746.4155	0.0	+	78	verb	phrase	4	14	match	plonger	4	1	y	0.65425
746.3535	0.0	[response]	78	verb	phrase	4	15	match	plonger	4	1	y	0.65425
748.0980999999999	0.0	+	79	verb	phrase	2	1	nomatch	leur	-1	1	p	0.51906
748.6478999999999	0.2	zdhbc	79	verb	phrase	2	2	nomatch	leur	-1	1	p	0.51906
748.8476999999999	0.0	+	79	verb	phrase	2	3	nomatch	leur	-1	1	p	0.51906
749.2475999999999	0.2	qxvn	79	verb	phrase	2	4	nomatch	leur	-1	1	p	0.51906
749.4475	0.0	+	79	verb	phrase	2	5	nomatch	leur	-1	1	p	0.51906
749.8472999999999	0.2	px	79	verb	phrase	2	6	nomatch	leur	-1	1	p	0.51906
750.0472	0.0	+	79	verb	phrase	2	7	nomatch	leur	-1	1	p	0.51906
750.4471	0.2	trop	79	verb	phrase	2	8	nomatch	leur	-1	1	p	0.51906
750.6469999999999	0.0	+	79	verb	phrase	2	9	nomatch	leur	-1	1	p	0.51906
751.0468	0.2	patiner	79	verb	phrase	2	10	nomatch	leur	-1	1	p	0.51906
751.2466999999999	0.0	+	79	verb	phrase	2	11	nomatch	leur	-1	1	p	0.51906
751.6465	0.0	+	79	verb	phrase	2	12	nomatch	leur	-1	1	p	0.51906
753.6456	0.0	LEUR	79	verb	phrase	2	13	nomatch	leur	-1	1	p	0.51906
754.2287	0.0	+	79	verb	phrase	2	14	nomatch	leur	-1	1	p	0.51906
754.1646999999999	0.0	[response]	79	verb	phrase	2	15	nomatch	leur	-1	1	p	0.51906
756.0446	0.0	+	80	noun	list	1	1	match	moins	5	0	p	0.61608
756.5943	0.2	gwk	80	noun	list	1	2	match	moins	5	0	p	0.61608
756.7942999999999	0.0	+	80	noun	list	1	3	match	moins	5	0	p	0.61608
757.1940999999999	0.2	qnpz	80	noun	list	1	4	match	moins	5	0	p	0.61608
757.394	0.0	+	80	noun	list	1	5	match	moins	5	0	p	0.61608
757.7937999999999	0.2	dmf	80	noun	list	1	6	match	moins	5	0	p	0.61608
757.9937	0.0	+	80	noun	list	1	7	match	moins	5	0	p	0.61608
758.3936	0.2	xmhfwv	80	noun	list	1	8	match	moins	5	0	p	0.61608
758.5935	0.0	+	80	noun	list	1	9	match	moins	5	0	p	0.61608
758.9933	0.2	moins	80	noun	list	1	10	match	moins	5	0	p	0.61608
759.1931999999999	0.0	+	80	noun	list	1	11	match	moins	5	0	p	0.61608
759.593	0.0	+	80	noun	list	1	12	match	moins	5	0	p	0.61608
761.5921	0.0	MOINS	80	noun	list	1	13	match	moins	5	0	p	0.61608
762.2751999999999	0.0	+	80	noun	list	1	14	match	moins	5	0	p	0.61608
763.9911	0.0	+	80	noun	list	1	15	match	moins	5	0	p	0.61608
765.0073	0.0	+	80	noun	list	1	16	match	moins	5	0	p	0.61608
765.1073	0.0	+	80	noun	list	1	17	match	moins	5	0	p	0.61608
766.5066999999999	0.0	+	80	noun	list	1	18	match	moins	5	0	p	0.61608
766.6066	0.0	+	80	noun	list	1	19	match	moins	5	0	p	0.61608
768.006	0.0	+	80	noun	list	1	20	match	moins	5	0	p	0.61608
768.106	0.0	+	80	noun	list	1	21	match	moins	5	0	p	0.61608
769.5052999999999	0.0	+	80	noun	list	1	22	match	moins	5	0	p	0.61608
769.6052999999999	0.0	+	80	noun	list	1	23	match	moins	5	0	p	0.61608
771.0047	0.0	+	80	noun	list	1	24	match	moins	5	0	p	0.61608
771.1046	0.0	+	80	noun	list	1	25	match	moins	5	0	p	0.61608
772.5039999999999	0.0	+	80	noun	list	1	26	match	moins	5	0	p	0.61608
772.6039999999999	0.0	+	80	noun	list	1	27	match	moins	5	0	p	0.61608
774.0033	0.0	+	80	noun	list	1	28	match	moins	5	0	p	0.61608
774.1033	0.0	+	80	noun	list	1	29	match	moins	5	0	p	0.61608
775.5027	0.0	+	80	noun	list	1	30	match	moins	5	0	p	0.61608
775.6025999999999	0.0	+	80	noun	list	1	31	match	moins	5	0	p	0.61608
777.0187	0.0	+	80	noun	list	1	32	match	moins	5	0	p	0.61608
777.1187	0.0	+	80	noun	list	1	33	match	moins	5	0	p	0.61608
778.5179999999999	0.0	+	80	noun	list	1	34	match	moins	5	0	p	0.61608
778.6179999999999	0.0	+	80	noun	list	1	35	match	moins	5	0	p	0.61608
762.2081999999999	0.0	[response]	80	noun	list	1	36	match	moins	5	0	p	0.61608
