onset	duration	stim	trial_number	trial_type	trial_structure	trial_length	sequential_position	probe_type	probe	probe_position	response_correct	response_key	response_time
0.056100000000000705	0.0	+	1	verb	list	3	1	match	beau	4	1	p	0.58225
0.539200000000001	0.2	jzfm	1	verb	list	3	2	match	beau	4	1	p	0.58225
0.7391000000000005	0.0	+	1	verb	list	3	3	match	beau	4	1	p	0.58225
1.1389999999999958	0.2	jqzp	1	verb	list	3	4	match	beau	4	1	p	0.58225
1.3388999999999953	0.0	+	1	verb	list	3	5	match	beau	4	1	p	0.58225
1.7387000000000015	0.2	doit	1	verb	list	3	6	match	beau	4	1	p	0.58225
1.938600000000001	0.0	+	1	verb	list	3	7	match	beau	4	1	p	0.58225
2.3384	0.2	beau	1	verb	list	3	8	match	beau	4	1	p	0.58225
2.5382999999999996	0.0	+	1	verb	list	3	9	match	beau	4	1	p	0.58225
2.9380999999999986	0.2	jongler	1	verb	list	3	10	match	beau	4	1	p	0.58225
3.1381000000000014	0.0	+	1	verb	list	3	11	match	beau	4	1	p	0.58225
3.5379000000000005	0.0	+	1	verb	list	3	12	match	beau	4	1	p	0.58225
5.536999999999999	0.0	BEAU	1	verb	list	3	13	match	beau	4	1	p	0.58225
6.186699999999995	0.0	+	1	verb	list	3	14	match	beau	4	1	p	0.58225
6.119199999999999	0.0	[response]	1	verb	list	3	15	match	beau	4	1	p	0.58225
7.935899999999997	0.0	+	2	noun	phrase	1	1	match	nouveau	5	1	p	0.4490100000000001
8.485700000000001	0.2	bwcvgqj	2	noun	phrase	1	2	match	nouveau	5	1	p	0.4490100000000001
8.6856	0.0	+	2	noun	phrase	1	3	match	nouveau	5	1	p	0.4490100000000001
9.0854	0.2	skml	2	noun	phrase	1	4	match	nouveau	5	1	p	0.4490100000000001
9.2853	0.0	+	2	noun	phrase	1	5	match	nouveau	5	1	p	0.4490100000000001
9.685099999999998	0.2	hjw	2	noun	phrase	1	6	match	nouveau	5	1	p	0.4490100000000001
9.885100000000001	0.0	+	2	noun	phrase	1	7	match	nouveau	5	1	p	0.4490100000000001
10.2849	0.2	wghxfn	2	noun	phrase	1	8	match	nouveau	5	1	p	0.4490100000000001
10.4848	0.0	+	2	noun	phrase	1	9	match	nouveau	5	1	p	0.4490100000000001
10.884599999999999	0.2	nouveau	2	noun	phrase	1	10	match	nouveau	5	1	p	0.4490100000000001
11.084499999999998	0.0	+	2	noun	phrase	1	11	match	nouveau	5	1	p	0.4490100000000001
11.484299999999998	0.0	+	2	noun	phrase	1	12	match	nouveau	5	1	p	0.4490100000000001
13.500099999999996	0.0	NOUVEAU	2	noun	phrase	1	13	match	nouveau	5	1	p	0.4490100000000001
14.0167	0.0	+	2	noun	phrase	1	14	match	nouveau	5	1	p	0.4490100000000001
13.949100000000001	0.0	[response]	2	noun	phrase	1	15	match	nouveau	5	1	p	0.4490100000000001
23.89549999999999	0.0	+	3	noun	list	1	1	nomatch	peut	-1	1	y	0.55256
24.445199999999993	0.2	nhmqr	3	noun	list	1	2	nomatch	peut	-1	1	y	0.55256
24.645099999999992	0.0	+	3	noun	list	1	3	nomatch	peut	-1	1	y	0.55256
25.04489999999999	0.2	nfzp	3	noun	list	1	4	nomatch	peut	-1	1	y	0.55256
25.244899999999994	0.0	+	3	noun	list	1	5	nomatch	peut	-1	1	y	0.55256
25.644699999999993	0.2	smdc	3	noun	list	1	6	nomatch	peut	-1	1	y	0.55256
25.844599999999993	0.0	+	3	noun	list	1	7	nomatch	peut	-1	1	y	0.55256
26.24439999999999	0.2	wsrl	3	noun	list	1	8	nomatch	peut	-1	1	y	0.55256
26.44429999999999	0.0	+	3	noun	list	1	9	nomatch	peut	-1	1	y	0.55256
26.844100000000005	0.2	cendrier	3	noun	list	1	10	nomatch	peut	-1	1	y	0.55256
27.044099999999993	0.0	+	3	noun	list	1	11	nomatch	peut	-1	1	y	0.55256
27.443899999999992	0.0	+	3	noun	list	1	12	nomatch	peut	-1	1	y	0.55256
29.443000000000005	0.0	PEUT	3	noun	list	1	13	nomatch	peut	-1	1	y	0.55256
30.059400000000004	0.0	+	3	noun	list	1	14	nomatch	peut	-1	1	y	0.55256
29.9955	0.0	[response]	3	noun	list	1	15	nomatch	peut	-1	1	y	0.55256
31.841900000000003	0.0	+	4	noun	list	3	1	nomatch	tard	-1	1	y	0.76796
32.39169999999999	0.2	hcmq	4	noun	list	3	2	nomatch	tard	-1	1	y	0.76796
32.59159999999999	0.0	+	4	noun	list	3	3	nomatch	tard	-1	1	y	0.76796
32.99139999999999	0.2	jqzp	4	noun	list	3	4	nomatch	tard	-1	1	y	0.76796
33.19129999999999	0.0	+	4	noun	list	3	5	nomatch	tard	-1	1	y	0.76796
33.591100000000004	0.2	doit	4	noun	list	3	6	nomatch	tard	-1	1	y	0.76796
33.791000000000004	0.0	+	4	noun	list	3	7	nomatch	tard	-1	1	y	0.76796
34.19089999999999	0.2	clavier	4	noun	list	3	8	nomatch	tard	-1	1	y	0.76796
34.39079999999999	0.0	+	4	noun	list	3	9	nomatch	tard	-1	1	y	0.76796
34.790600000000005	0.2	tôt	4	noun	list	3	10	nomatch	tard	-1	1	y	0.76796
34.990500000000004	0.0	+	4	noun	list	3	11	nomatch	tard	-1	1	y	0.76796
35.3903	0.0	+	4	noun	list	3	12	nomatch	tard	-1	1	y	0.76796
37.3894	0.0	TARD	4	noun	list	3	13	nomatch	tard	-1	1	y	0.76796
38.2224	0.0	+	4	noun	list	3	14	nomatch	tard	-1	1	y	0.76796
38.1574	0.0	[response]	4	noun	list	3	15	nomatch	tard	-1	1	y	0.76796
39.7884	0.0	+	5	verb	list	2	1	nomatch	nouveau	-1	1	y	0.57349
40.338100000000004	0.2	zkgbj	5	verb	list	2	2	nomatch	nouveau	-1	1	y	0.57349
40.538000000000004	0.0	+	5	verb	list	2	3	nomatch	nouveau	-1	1	y	0.57349
40.9378	0.2	jsgh	5	verb	list	2	4	nomatch	nouveau	-1	1	y	0.57349
41.1377	0.0	+	5	verb	list	2	5	nomatch	nouveau	-1	1	y	0.57349
41.537600000000005	0.2	vcpx	5	verb	list	2	6	nomatch	nouveau	-1	1	y	0.57349
41.737500000000004	0.0	+	5	verb	list	2	7	nomatch	nouveau	-1	1	y	0.57349
42.1373	0.2	vieux	5	verb	list	2	8	nomatch	nouveau	-1	1	y	0.57349
42.3372	0.0	+	5	verb	list	2	9	nomatch	nouveau	-1	1	y	0.57349
42.737	0.2	voyager	5	verb	list	2	10	nomatch	nouveau	-1	1	y	0.57349
42.9369	0.0	+	5	verb	list	2	11	nomatch	nouveau	-1	1	y	0.57349
43.336800000000004	0.0	+	5	verb	list	2	12	nomatch	nouveau	-1	1	y	0.57349
45.3359	0.0	NOUVEAU	5	verb	list	2	13	nomatch	nouveau	-1	1	y	0.57349
45.9689	0.0	+	5	verb	list	2	14	nomatch	nouveau	-1	1	y	0.57349
45.9094	0.0	[response]	5	verb	list	2	15	nomatch	nouveau	-1	1	y	0.57349
55.747899999999994	0.0	+	6	noun	list	2	1	nomatch	voilier	-1	1	y	0.5857600000000001
56.2977	0.2	sljq	6	noun	list	2	2	nomatch	voilier	-1	1	y	0.5857600000000001
56.4976	0.0	+	6	noun	list	2	3	nomatch	voilier	-1	1	y	0.5857600000000001
56.8974	0.2	dkcf	6	noun	list	2	4	nomatch	voilier	-1	1	y	0.5857600000000001
57.0973	0.0	+	6	noun	list	2	5	nomatch	voilier	-1	1	y	0.5857600000000001
57.497099999999996	0.2	hjw	6	noun	list	2	6	nomatch	voilier	-1	1	y	0.5857600000000001
57.696999999999996	0.0	+	6	noun	list	2	7	nomatch	voilier	-1	1	y	0.5857600000000001
58.0969	0.2	trop	6	noun	list	2	8	nomatch	voilier	-1	1	y	0.5857600000000001
58.2968	0.0	+	6	noun	list	2	9	nomatch	voilier	-1	1	y	0.5857600000000001
58.6966	0.2	rocher	6	noun	list	2	10	nomatch	voilier	-1	1	y	0.5857600000000001
58.896499999999996	0.0	+	6	noun	list	2	11	nomatch	voilier	-1	1	y	0.5857600000000001
59.296299999999995	0.0	+	6	noun	list	2	12	nomatch	voilier	-1	1	y	0.5857600000000001
61.295399999999994	0.0	VOILIER	6	noun	list	2	13	nomatch	voilier	-1	1	y	0.5857600000000001
61.945100000000004	0.0	+	6	noun	list	2	14	nomatch	voilier	-1	1	y	0.5857600000000001
61.8812	0.0	[response]	6	noun	list	2	15	nomatch	voilier	-1	1	y	0.5857600000000001
63.694399999999995	0.0	+	7	verb	list	1	1	match	petit	5	1	p	0.43665
64.2441	0.2	wnr	7	verb	list	1	2	match	petit	5	1	p	0.43665
64.44399999999999	0.0	+	7	verb	list	1	3	match	petit	5	1	p	0.43665
64.84379999999999	0.2	jsgh	7	verb	list	1	4	match	petit	5	1	p	0.43665
65.0438	0.0	+	7	verb	list	1	5	match	petit	5	1	p	0.43665
65.4436	0.2	vcpx	7	verb	list	1	6	match	petit	5	1	p	0.43665
65.64349999999999	0.0	+	7	verb	list	1	7	match	petit	5	1	p	0.43665
66.04390000000001	0.2	mgspkcf	7	verb	list	1	8	match	petit	5	1	p	0.43665
66.2432	0.0	+	7	verb	list	1	9	match	petit	5	1	p	0.43665
66.643	0.2	petit	7	verb	list	1	10	match	petit	5	1	p	0.43665
66.84299999999999	0.0	+	7	verb	list	1	11	match	petit	5	1	p	0.43665
67.24279999999999	0.0	+	7	verb	list	1	12	match	petit	5	1	p	0.43665
69.24189999999999	0.0	PETIT	7	verb	list	1	13	match	petit	5	1	p	0.43665
69.74170000000001	0.0	+	7	verb	list	1	14	match	petit	5	1	p	0.43665
69.67849999999999	0.0	[response]	7	verb	list	1	15	match	petit	5	1	p	0.43665
71.64079999999998	0.0	+	8	noun	phrase	3	1	match	leur	3	0	y	0.68072
72.19059999999999	0.2	fplknm	8	noun	phrase	3	2	match	leur	3	0	y	0.68072
72.3905	0.0	+	8	noun	phrase	3	3	match	leur	3	0	y	0.68072
72.7903	0.2	grd	8	noun	phrase	3	4	match	leur	3	0	y	0.68072
72.99019999999999	0.0	+	8	noun	phrase	3	5	match	leur	3	0	y	0.68072
73.38999999999999	0.2	leur	8	noun	phrase	3	6	match	leur	3	0	y	0.68072
73.5899	0.0	+	8	noun	phrase	3	7	match	leur	3	0	y	0.68072
73.9898	0.2	beau	8	noun	phrase	3	8	match	leur	3	0	y	0.68072
74.18969999999999	0.0	+	8	noun	phrase	3	9	match	leur	3	0	y	0.68072
74.58949999999999	0.2	casier	8	noun	phrase	3	10	match	leur	3	0	y	0.68072
74.7894	0.0	+	8	noun	phrase	3	11	match	leur	3	0	y	0.68072
75.1892	0.0	+	8	noun	phrase	3	12	match	leur	3	0	y	0.68072
77.1883	0.0	LEUR	8	noun	phrase	3	13	match	leur	3	0	y	0.68072
77.9213	0.0	+	8	noun	phrase	3	14	match	leur	3	0	y	0.68072
77.869	0.0	[response]	8	noun	phrase	3	15	match	leur	3	0	y	0.68072
79.5873	0.0	+	9	noun	list	2	1	match	plus	4	1	p	0.6873000000000001
80.137	0.2	zlk	9	noun	list	2	2	match	plus	4	1	p	0.6873000000000001
80.33690000000001	0.0	+	9	noun	list	2	3	match	plus	4	1	p	0.6873000000000001
80.73680000000002	0.2	cqx	9	noun	list	2	4	match	plus	4	1	p	0.6873000000000001
80.9367	0.0	+	9	noun	list	2	5	match	plus	4	1	p	0.6873000000000001
81.3365	0.2	hjw	9	noun	list	2	6	match	plus	4	1	p	0.6873000000000001
81.53640000000001	0.0	+	9	noun	list	2	7	match	plus	4	1	p	0.6873000000000001
81.93620000000001	0.2	plus	9	noun	list	2	8	match	plus	4	1	p	0.6873000000000001
82.1361	0.0	+	9	noun	list	2	9	match	plus	4	1	p	0.6873000000000001
82.5359	0.2	voilier	9	noun	list	2	10	match	plus	4	1	p	0.6873000000000001
82.73580000000001	0.0	+	9	noun	list	2	11	match	plus	4	1	p	0.6873000000000001
83.13570000000001	0.0	+	9	noun	list	2	12	match	plus	4	1	p	0.6873000000000001
85.13480000000001	0.0	PLUS	9	noun	list	2	13	match	plus	4	1	p	0.6873000000000001
85.8844	0.0	+	9	noun	list	2	14	match	plus	4	1	p	0.6873000000000001
85.8221	0.0	[response]	9	noun	list	2	15	match	plus	4	1	p	0.6873000000000001
87.53370000000001	0.0	+	10	noun	list	1	1	nomatch	tard	-1	1	y	0.61276
88.1001	0.2	qbntpv	10	noun	list	1	2	nomatch	tard	-1	1	y	0.61276
88.30000000000001	0.0	+	10	noun	list	1	3	nomatch	tard	-1	1	y	0.61276
88.69990000000001	0.2	skml	10	noun	list	1	4	nomatch	tard	-1	1	y	0.61276
88.8998	0.0	+	10	noun	list	1	5	nomatch	tard	-1	1	y	0.61276
89.2996	0.2	vcpx	10	noun	list	1	6	nomatch	tard	-1	1	y	0.61276
89.49950000000001	0.0	+	10	noun	list	1	7	nomatch	tard	-1	1	y	0.61276
89.89930000000001	0.2	njchwpdb	10	noun	list	1	8	nomatch	tard	-1	1	y	0.61276
90.0992	0.0	+	10	noun	list	1	9	nomatch	tard	-1	1	y	0.61276
90.499	0.2	loin	10	noun	list	1	10	nomatch	tard	-1	1	y	0.61276
90.69900000000001	0.0	+	10	noun	list	1	11	nomatch	tard	-1	1	y	0.61276
91.09880000000001	0.0	+	10	noun	list	1	12	nomatch	tard	-1	1	y	0.61276
93.09790000000001	0.0	TARD	10	noun	list	1	13	nomatch	tard	-1	1	y	0.61276
93.76429999999999	0.0	+	10	noun	list	1	14	nomatch	tard	-1	1	y	0.61276
93.7106	0.0	[response]	10	noun	list	1	15	nomatch	tard	-1	1	y	0.61276
95.49680000000001	0.0	+	11	noun	phrase	1	1	nomatch	voilier	-1	1	y	0.61377
96.04660000000001	0.2	brchj	11	noun	phrase	1	2	nomatch	voilier	-1	1	y	0.61377
96.2465	0.0	+	11	noun	phrase	1	3	nomatch	voilier	-1	1	y	0.61377
96.6463	0.2	qrdf	11	noun	phrase	1	4	nomatch	voilier	-1	1	y	0.61377
96.84620000000001	0.0	+	11	noun	phrase	1	5	nomatch	voilier	-1	1	y	0.61377
97.24600000000001	0.2	wbn	11	noun	phrase	1	6	nomatch	voilier	-1	1	y	0.61377
97.4459	0.0	+	11	noun	phrase	1	7	nomatch	voilier	-1	1	y	0.61377
97.8458	0.2	gxhcj	11	noun	phrase	1	8	nomatch	voilier	-1	1	y	0.61377
98.04570000000001	0.0	+	11	noun	phrase	1	9	nomatch	voilier	-1	1	y	0.61377
98.44550000000001	0.2	rocher	11	noun	phrase	1	10	nomatch	voilier	-1	1	y	0.61377
98.6454	0.0	+	11	noun	phrase	1	11	nomatch	voilier	-1	1	y	0.61377
99.0452	0.0	+	11	noun	phrase	1	12	nomatch	voilier	-1	1	y	0.61377
101.04429999999999	0.0	VOILIER	11	noun	phrase	1	13	nomatch	voilier	-1	1	y	0.61377
101.7107	0.0	+	11	noun	phrase	1	14	nomatch	voilier	-1	1	y	0.61377
101.65810000000002	0.0	[response]	11	noun	phrase	1	15	nomatch	voilier	-1	1	y	0.61377
103.4433	0.0	+	12	noun	list	2	1	nomatch	beaucoup	-1	1	y	0.55956
103.993	0.2	mxzsw	12	noun	list	2	2	nomatch	beaucoup	-1	1	y	0.55956
104.19290000000001	0.0	+	12	noun	list	2	3	nomatch	beaucoup	-1	1	y	0.55956
104.59280000000001	0.2	skml	12	noun	list	2	4	nomatch	beaucoup	-1	1	y	0.55956
104.7927	0.0	+	12	noun	list	2	5	nomatch	beaucoup	-1	1	y	0.55956
105.1925	0.2	vcpx	12	noun	list	2	6	nomatch	beaucoup	-1	1	y	0.55956
105.39240000000001	0.0	+	12	noun	list	2	7	nomatch	beaucoup	-1	1	y	0.55956
105.79220000000001	0.2	boîtier	12	noun	list	2	8	nomatch	beaucoup	-1	1	y	0.55956
105.9921	0.0	+	12	noun	list	2	9	nomatch	beaucoup	-1	1	y	0.55956
106.392	0.2	vite	12	noun	list	2	10	nomatch	beaucoup	-1	1	y	0.55956
106.59190000000001	0.0	+	12	noun	list	2	11	nomatch	beaucoup	-1	1	y	0.55956
106.99170000000001	0.0	+	12	noun	list	2	12	nomatch	beaucoup	-1	1	y	0.55956
108.99080000000001	0.0	BEAUCOUP	12	noun	list	2	13	nomatch	beaucoup	-1	1	y	0.55956
109.6072	0.0	+	12	noun	list	2	14	nomatch	beaucoup	-1	1	y	0.55956
109.5504	0.0	[response]	12	noun	list	2	15	nomatch	beaucoup	-1	1	y	0.55956
111.3897	0.0	+	13	noun	phrase	2	1	match	casier	5	1	p	0.60378
111.93950000000001	0.2	trghlqd	13	noun	phrase	2	2	match	casier	5	1	p	0.60378
112.1394	0.0	+	13	noun	phrase	2	3	match	casier	5	1	p	0.60378
112.5392	0.2	dkjf	13	noun	phrase	2	4	match	casier	5	1	p	0.60378
112.73910000000001	0.0	+	13	noun	phrase	2	5	match	casier	5	1	p	0.60378
113.1389	0.2	hjw	13	noun	phrase	2	6	match	casier	5	1	p	0.60378
113.3389	0.0	+	13	noun	phrase	2	7	match	casier	5	1	p	0.60378
113.7387	0.2	nouveau	13	noun	phrase	2	8	match	casier	5	1	p	0.60378
113.93860000000001	0.0	+	13	noun	phrase	2	9	match	casier	5	1	p	0.60378
114.33840000000001	0.2	casier	13	noun	phrase	2	10	match	casier	5	1	p	0.60378
114.53829999999999	0.0	+	13	noun	phrase	2	11	match	casier	5	1	p	0.60378
114.93809999999999	0.0	+	13	noun	phrase	2	12	match	casier	5	1	p	0.60378
116.9373	0.0	CASIER	13	noun	phrase	2	13	match	casier	5	1	p	0.60378
117.6036	0.0	+	13	noun	phrase	2	14	match	casier	5	1	p	0.60378
117.54100000000003	0.0	[response]	13	noun	phrase	2	15	match	casier	5	1	p	0.60378
119.33619999999999	0.0	+	14	noun	phrase	2	1	nomatch	bleu	-1	1	y	0.6199500000000001
119.88589999999999	0.2	htx	14	noun	phrase	2	2	nomatch	bleu	-1	1	y	0.6199500000000001
120.0858	0.0	+	14	noun	phrase	2	3	nomatch	bleu	-1	1	y	0.6199500000000001
120.48570000000001	0.2	skml	14	noun	phrase	2	4	nomatch	bleu	-1	1	y	0.6199500000000001
120.6856	0.0	+	14	noun	phrase	2	5	nomatch	bleu	-1	1	y	0.6199500000000001
121.08539999999999	0.2	smdc	14	noun	phrase	2	6	nomatch	bleu	-1	1	y	0.6199500000000001
121.2853	0.0	+	14	noun	phrase	2	7	nomatch	bleu	-1	1	y	0.6199500000000001
121.6851	0.2	clavier	14	noun	phrase	2	8	nomatch	bleu	-1	1	y	0.6199500000000001
121.88499999999999	0.0	+	14	noun	phrase	2	9	nomatch	bleu	-1	1	y	0.6199500000000001
122.2849	0.2	blanc	14	noun	phrase	2	10	nomatch	bleu	-1	1	y	0.6199500000000001
122.4848	0.0	+	14	noun	phrase	2	11	nomatch	bleu	-1	1	y	0.6199500000000001
122.8846	0.0	+	14	noun	phrase	2	12	nomatch	bleu	-1	1	y	0.6199500000000001
124.8837	0.0	BLEU	14	noun	phrase	2	13	nomatch	bleu	-1	1	y	0.6199500000000001
125.5667	0.0	+	14	noun	phrase	2	14	nomatch	bleu	-1	1	y	0.6199500000000001
125.50360000000003	0.0	[response]	14	noun	phrase	2	15	nomatch	bleu	-1	1	y	0.6199500000000001
127.29930000000002	0.0	+	15	noun	phrase	3	1	nomatch	rouler	-1	1	y	0.60081
127.84900000000002	0.2	wvtjrkb	15	noun	phrase	3	2	nomatch	rouler	-1	1	y	0.60081
128.0489	0.0	+	15	noun	phrase	3	3	nomatch	rouler	-1	1	y	0.60081
128.4488	0.2	jqzp	15	noun	phrase	3	4	nomatch	rouler	-1	1	y	0.60081
128.6487	0.0	+	15	noun	phrase	3	5	nomatch	rouler	-1	1	y	0.60081
129.04850000000002	0.2	mon	15	noun	phrase	3	6	nomatch	rouler	-1	1	y	0.60081
129.2484	0.0	+	15	noun	phrase	3	7	nomatch	rouler	-1	1	y	0.60081
129.6482	0.2	beau	15	noun	phrase	3	8	nomatch	rouler	-1	1	y	0.60081
129.84810000000002	0.0	+	15	noun	phrase	3	9	nomatch	rouler	-1	1	y	0.60081
130.24800000000002	0.2	tablier	15	noun	phrase	3	10	nomatch	rouler	-1	1	y	0.60081
130.4479	0.0	+	15	noun	phrase	3	11	nomatch	rouler	-1	1	y	0.60081
130.8477	0.0	+	15	noun	phrase	3	12	nomatch	rouler	-1	1	y	0.60081
132.8468	0.0	ROULER	15	noun	phrase	3	13	nomatch	rouler	-1	1	y	0.60081
133.5132	0.0	+	15	noun	phrase	3	14	nomatch	rouler	-1	1	y	0.60081
133.4476	0.0	[response]	15	noun	phrase	3	15	nomatch	rouler	-1	1	y	0.60081
135.2457	0.0	+	16	verb	phrase	3	1	match	loin	5	1	p	0.63114
135.7955	0.2	qtcv	16	verb	phrase	3	2	match	loin	5	1	p	0.63114
135.99540000000002	0.0	+	16	verb	phrase	3	3	match	loin	5	1	p	0.63114
136.39520000000002	0.2	qrkg	16	verb	phrase	3	4	match	loin	5	1	p	0.63114
136.5951	0.0	+	16	verb	phrase	3	5	match	loin	5	1	p	0.63114
136.9949	0.2	va	16	verb	phrase	3	6	match	loin	5	1	p	0.63114
137.19490000000002	0.0	+	16	verb	phrase	3	7	match	loin	5	1	p	0.63114
137.59470000000002	0.2	patiner	16	verb	phrase	3	8	match	loin	5	1	p	0.63114
137.7946	0.0	+	16	verb	phrase	3	9	match	loin	5	1	p	0.63114
138.1944	0.2	loin	16	verb	phrase	3	10	match	loin	5	1	p	0.63114
138.39430000000002	0.0	+	16	verb	phrase	3	11	match	loin	5	1	p	0.63114
138.79420000000002	0.0	+	16	verb	phrase	3	12	match	loin	5	1	p	0.63114
140.79330000000002	0.0	LOIN	16	verb	phrase	3	13	match	loin	5	1	p	0.63114
141.4763	0.0	+	16	verb	phrase	3	14	match	loin	5	1	p	0.63114
141.42440000000002	0.0	[response]	16	verb	phrase	3	15	match	loin	5	1	p	0.63114
143.1922	0.0	+	17	verb	phrase	4	1	nomatch	mieux	-1	1	y	0.65819
143.74190000000002	0.2	sbvgd	17	verb	phrase	4	2	nomatch	mieux	-1	1	y	0.65819
143.9419	0.0	+	17	verb	phrase	4	3	nomatch	mieux	-1	1	y	0.65819
144.3417	0.2	luc	17	verb	phrase	4	4	nomatch	mieux	-1	1	y	0.65819
144.54160000000002	0.0	+	17	verb	phrase	4	5	nomatch	mieux	-1	1	y	0.65819
144.94140000000002	0.2	peut	17	verb	phrase	4	6	nomatch	mieux	-1	1	y	0.65819
145.1413	0.0	+	17	verb	phrase	4	7	nomatch	mieux	-1	1	y	0.65819
145.5411	0.2	voyager	17	verb	phrase	4	8	nomatch	mieux	-1	1	y	0.65819
145.74110000000002	0.0	+	17	verb	phrase	4	9	nomatch	mieux	-1	1	y	0.65819
146.14090000000002	0.2	vite	17	verb	phrase	4	10	nomatch	mieux	-1	1	y	0.65819
146.3408	0.0	+	17	verb	phrase	4	11	nomatch	mieux	-1	1	y	0.65819
146.7406	0.0	+	17	verb	phrase	4	12	nomatch	mieux	-1	1	y	0.65819
148.7397	0.0	MIEUX	17	verb	phrase	4	13	nomatch	mieux	-1	1	y	0.65819
149.4561	0.0	+	17	verb	phrase	4	14	nomatch	mieux	-1	1	y	0.65819
149.39790000000002	0.0	[response]	17	verb	phrase	4	15	nomatch	mieux	-1	1	y	0.65819
151.1386	0.0	+	18	verb	list	2	1	nomatch	leur	-1	1	y	0.70914
151.6884	0.2	vhn	18	verb	list	2	2	nomatch	leur	-1	1	y	0.70914
151.88830000000002	0.0	+	18	verb	list	2	3	nomatch	leur	-1	1	y	0.70914
152.28810000000001	0.2	qrkg	18	verb	list	2	4	nomatch	leur	-1	1	y	0.70914
152.488	0.0	+	18	verb	list	2	5	nomatch	leur	-1	1	y	0.70914
152.8879	0.2	smdc	18	verb	list	2	6	nomatch	leur	-1	1	y	0.70914
153.08780000000002	0.0	+	18	verb	list	2	7	nomatch	leur	-1	1	y	0.70914
153.48760000000001	0.2	patiner	18	verb	list	2	8	nomatch	leur	-1	1	y	0.70914
153.6875	0.0	+	18	verb	list	2	9	nomatch	leur	-1	1	y	0.70914
154.0873	0.2	bleu	18	verb	list	2	10	nomatch	leur	-1	1	y	0.70914
154.2872	0.0	+	18	verb	list	2	11	nomatch	leur	-1	1	y	0.70914
154.68710000000002	0.0	+	18	verb	list	2	12	nomatch	leur	-1	1	y	0.70914
156.6862	0.0	LEUR	18	verb	list	2	13	nomatch	leur	-1	1	y	0.70914
157.45250000000001	0.0	+	18	verb	list	2	14	nomatch	leur	-1	1	y	0.70914
157.3953	0.0	[response]	18	verb	list	2	15	nomatch	leur	-1	1	y	0.70914
159.0851	0.0	+	19	noun	phrase	1	1	nomatch	voilier	-1	1	y	0.60009
159.63490000000002	0.2	cjn	19	noun	phrase	1	2	nomatch	voilier	-1	1	y	0.60009
159.8348	0.0	+	19	noun	phrase	1	3	nomatch	voilier	-1	1	y	0.60009
160.2346	0.2	qrdf	19	noun	phrase	1	4	nomatch	voilier	-1	1	y	0.60009
160.4345	0.0	+	19	noun	phrase	1	5	nomatch	voilier	-1	1	y	0.60009
160.8343	0.2	wbn	19	noun	phrase	1	6	nomatch	voilier	-1	1	y	0.60009
161.0342	0.0	+	19	noun	phrase	1	7	nomatch	voilier	-1	1	y	0.60009
161.4341	0.2	rwhjncq	19	noun	phrase	1	8	nomatch	voilier	-1	1	y	0.60009
161.63400000000001	0.0	+	19	noun	phrase	1	9	nomatch	voilier	-1	1	y	0.60009
162.0338	0.2	casier	19	noun	phrase	1	10	nomatch	voilier	-1	1	y	0.60009
162.2337	0.0	+	19	noun	phrase	1	11	nomatch	voilier	-1	1	y	0.60009
162.6336	0.0	+	19	noun	phrase	1	12	nomatch	voilier	-1	1	y	0.60009
164.6493	0.0	VOILIER	19	noun	phrase	1	13	nomatch	voilier	-1	1	y	0.60009
165.3157	0.0	+	19	noun	phrase	1	14	nomatch	voilier	-1	1	y	0.60009
165.2494	0.0	[response]	19	noun	phrase	1	15	nomatch	voilier	-1	1	y	0.60009
167.0482	0.0	+	20	verb	phrase	4	1	match	moins	4	1	p	0.66436
167.598	0.2	vbrd	20	verb	phrase	4	2	match	moins	4	1	p	0.66436
167.7979	0.0	+	20	verb	phrase	4	3	match	moins	4	1	p	0.66436
168.1977	0.2	paul	20	verb	phrase	4	4	match	moins	4	1	p	0.66436
168.3976	0.0	+	20	verb	phrase	4	5	match	moins	4	1	p	0.66436
168.7974	0.2	doit	20	verb	phrase	4	6	match	moins	4	1	p	0.66436
168.9973	0.0	+	20	verb	phrase	4	7	match	moins	4	1	p	0.66436
169.3972	0.2	moins	20	verb	phrase	4	8	match	moins	4	1	p	0.66436
169.5971	0.0	+	20	verb	phrase	4	9	match	moins	4	1	p	0.66436
169.9969	0.2	nager	20	verb	phrase	4	10	match	moins	4	1	p	0.66436
170.1968	0.0	+	20	verb	phrase	4	11	match	moins	4	1	p	0.66436
170.5966	0.0	+	20	verb	phrase	4	12	match	moins	4	1	p	0.66436
172.5957	0.0	MOINS	20	verb	phrase	4	13	match	moins	4	1	p	0.66436
173.31210000000002	0.0	+	20	verb	phrase	4	14	match	moins	4	1	p	0.66436
173.2601	0.0	[response]	20	verb	phrase	4	15	match	moins	4	1	p	0.66436
198.984	0.0	+	21	verb	phrase	2	1	match	plus	4	1	p	0.54218
199.5337	0.2	lxtb	21	verb	phrase	2	2	match	plus	4	1	p	0.54218
199.7336	0.0	+	21	verb	phrase	2	3	match	plus	4	1	p	0.54218
200.1501	0.2	nfzp	21	verb	phrase	2	4	match	plus	4	1	p	0.54218
200.35	0.0	+	21	verb	phrase	2	5	match	plus	4	1	p	0.54218
200.7498	0.2	fhjp	21	verb	phrase	2	6	match	plus	4	1	p	0.54218
200.9497	0.0	+	21	verb	phrase	2	7	match	plus	4	1	p	0.54218
201.3496	0.2	plus	21	verb	phrase	2	8	match	plus	4	1	p	0.54218
201.5495	0.0	+	21	verb	phrase	2	9	match	plus	4	1	p	0.54218
201.9493	0.2	plonger	21	verb	phrase	2	10	match	plus	4	1	p	0.54218
202.1492	0.0	+	21	verb	phrase	2	11	match	plus	4	1	p	0.54218
202.549	0.0	+	21	verb	phrase	2	12	match	plus	4	1	p	0.54218
204.5481	0.0	PLUS	21	verb	phrase	2	13	match	plus	4	1	p	0.54218
205.1479	0.0	+	21	verb	phrase	2	14	match	plus	4	1	p	0.54218
205.0903	0.0	[response]	21	verb	phrase	2	15	match	plus	4	1	p	0.54218
214.94350000000003	0.0	+	22	noun	list	1	1	match	boîtier	5	1	p	0.55528
215.4932	0.2	htlwqs	22	noun	list	1	2	match	boîtier	5	1	p	0.55528
215.6932	0.0	+	22	noun	list	1	3	match	boîtier	5	1	p	0.55528
216.09300000000002	0.2	lnqh	22	noun	list	1	4	match	boîtier	5	1	p	0.55528
216.29290000000003	0.0	+	22	noun	list	1	5	match	boîtier	5	1	p	0.55528
216.6927	0.2	wbn	22	noun	list	1	6	match	boîtier	5	1	p	0.55528
216.89260000000002	0.0	+	22	noun	list	1	7	match	boîtier	5	1	p	0.55528
217.2924	0.2	rkvz	22	noun	list	1	8	match	boîtier	5	1	p	0.55528
217.4923	0.0	+	22	noun	list	1	9	match	boîtier	5	1	p	0.55528
217.8922	0.2	boîtier	22	noun	list	1	10	match	boîtier	5	1	p	0.55528
218.09210000000002	0.0	+	22	noun	list	1	11	match	boîtier	5	1	p	0.55528
218.4919	0.0	+	22	noun	list	1	12	match	boîtier	5	1	p	0.55528
220.49099999999999	0.0	BOÎTIER	22	noun	list	1	13	match	boîtier	5	1	p	0.55528
221.10739999999998	0.0	+	22	noun	list	1	14	match	boîtier	5	1	p	0.55528
221.04630000000003	0.0	[response]	22	noun	list	1	15	match	boîtier	5	1	p	0.55528
222.8899	0.0	+	23	noun	phrase	2	1	nomatch	grenier	-1	1	y	0.60105
223.43970000000002	0.2	htnv	23	noun	phrase	2	2	nomatch	grenier	-1	1	y	0.60105
223.63960000000003	0.0	+	23	noun	phrase	2	3	nomatch	grenier	-1	1	y	0.60105
224.0394	0.2	qrdf	23	noun	phrase	2	4	nomatch	grenier	-1	1	y	0.60105
224.23930000000001	0.0	+	23	noun	phrase	2	5	nomatch	grenier	-1	1	y	0.60105
224.63920000000002	0.2	smdc	23	noun	phrase	2	6	nomatch	grenier	-1	1	y	0.60105
224.83910000000003	0.0	+	23	noun	phrase	2	7	nomatch	grenier	-1	1	y	0.60105
225.2389	0.2	casier	23	noun	phrase	2	8	nomatch	grenier	-1	1	y	0.60105
225.43880000000001	0.0	+	23	noun	phrase	2	9	nomatch	grenier	-1	1	y	0.60105
225.83859999999999	0.2	vert	23	noun	phrase	2	10	nomatch	grenier	-1	1	y	0.60105
226.0385	0.0	+	23	noun	phrase	2	11	nomatch	grenier	-1	1	y	0.60105
226.43830000000003	0.0	+	23	noun	phrase	2	12	nomatch	grenier	-1	1	y	0.60105
228.4375	0.0	GRENIER	23	noun	phrase	2	13	nomatch	grenier	-1	1	y	0.60105
229.10379999999998	0.0	+	23	noun	phrase	2	14	nomatch	grenier	-1	1	y	0.60105
229.0385	0.0	[response]	23	noun	phrase	2	15	nomatch	grenier	-1	1	y	0.60105
230.83640000000003	0.0	+	24	noun	phrase	1	1	match	grand	5	1	p	0.58537
231.3861	0.2	cxhmlvb	24	noun	phrase	1	2	match	grand	5	1	p	0.58537
231.5861	0.0	+	24	noun	phrase	1	3	match	grand	5	1	p	0.58537
231.98590000000002	0.2	skml	24	noun	phrase	1	4	match	grand	5	1	p	0.58537
232.18580000000003	0.0	+	24	noun	phrase	1	5	match	grand	5	1	p	0.58537
232.5856	0.2	hjw	24	noun	phrase	1	6	match	grand	5	1	p	0.58537
232.7855	0.0	+	24	noun	phrase	1	7	match	grand	5	1	p	0.58537
233.18529999999998	0.2	ftndwlq	24	noun	phrase	1	8	match	grand	5	1	p	0.58537
233.3852	0.0	+	24	noun	phrase	1	9	match	grand	5	1	p	0.58537
233.7851	0.2	grand	24	noun	phrase	1	10	match	grand	5	1	p	0.58537
233.985	0.0	+	24	noun	phrase	1	11	match	grand	5	1	p	0.58537
234.38479999999998	0.0	+	24	noun	phrase	1	12	match	grand	5	1	p	0.58537
236.38389999999998	0.0	GRAND	24	noun	phrase	1	13	match	grand	5	1	p	0.58537
237.03359999999998	0.0	+	24	noun	phrase	1	14	match	grand	5	1	p	0.58537
236.96930000000003	0.0	[response]	24	noun	phrase	1	15	match	grand	5	1	p	0.58537
238.79950000000002	0.0	+	25	verb	list	1	1	nomatch	sous	-1	1	y	0.8149400000000001
239.3492	0.2	rxbsf	25	verb	list	1	2	nomatch	sous	-1	1	y	0.8149400000000001
239.54919999999998	0.0	+	25	verb	list	1	3	nomatch	sous	-1	1	y	0.8149400000000001
239.949	0.2	jqzp	25	verb	list	1	4	nomatch	sous	-1	1	y	0.8149400000000001
240.14890000000003	0.0	+	25	verb	list	1	5	nomatch	sous	-1	1	y	0.8149400000000001
240.5487	0.2	vcpx	25	verb	list	1	6	nomatch	sous	-1	1	y	0.8149400000000001
240.7486	0.0	+	25	verb	list	1	7	nomatch	sous	-1	1	y	0.8149400000000001
241.14839999999998	0.2	prczn	25	verb	list	1	8	nomatch	sous	-1	1	y	0.8149400000000001
241.34840000000003	0.0	+	25	verb	list	1	9	nomatch	sous	-1	1	y	0.8149400000000001
241.7482	0.2	chasser	25	verb	list	1	10	nomatch	sous	-1	1	y	0.8149400000000001
241.9481	0.0	+	25	verb	list	1	11	nomatch	sous	-1	1	y	0.8149400000000001
242.34789999999998	0.0	+	25	verb	list	1	12	nomatch	sous	-1	1	y	0.8149400000000001
244.34699999999998	0.0	SOUS	25	verb	list	1	13	nomatch	sous	-1	1	y	0.8149400000000001
245.2133	0.0	+	25	verb	list	1	14	nomatch	sous	-1	1	y	0.8149400000000001
245.16199999999998	0.0	[response]	25	verb	list	1	15	nomatch	sous	-1	1	y	0.8149400000000001
246.74599999999998	0.0	+	26	noun	list	1	1	match	voilier	5	1	p	0.46213
247.2957	0.2	jqwbpdn	26	noun	list	1	2	match	voilier	5	1	p	0.46213
247.49560000000002	0.0	+	26	noun	list	1	3	match	voilier	5	1	p	0.46213
247.8954	0.2	qrdf	26	noun	list	1	4	match	voilier	5	1	p	0.46213
248.09539999999998	0.0	+	26	noun	list	1	5	match	voilier	5	1	p	0.46213
248.4952	0.2	fhjp	26	noun	list	1	6	match	voilier	5	1	p	0.46213
248.69510000000002	0.0	+	26	noun	list	1	7	match	voilier	5	1	p	0.46213
249.0949	0.2	mgvq	26	noun	list	1	8	match	voilier	5	1	p	0.46213
249.2948	0.0	+	26	noun	list	1	9	match	voilier	5	1	p	0.46213
249.69459999999998	0.2	voilier	26	noun	list	1	10	match	voilier	5	1	p	0.46213
249.8945	0.0	+	26	noun	list	1	11	match	voilier	5	1	p	0.46213
250.2944	0.0	+	26	noun	list	1	12	match	voilier	5	1	p	0.46213
252.2935	0.0	VOILIER	26	noun	list	1	13	match	voilier	5	1	p	0.46213
252.80990000000003	0.0	+	26	noun	list	1	14	match	voilier	5	1	p	0.46213
252.75560000000002	0.0	[response]	26	noun	list	1	15	match	voilier	5	1	p	0.46213
254.69240000000002	0.0	+	27	noun	phrase	4	1	match	beau	4	1	p	0.51921
255.24220000000003	0.2	lfg	27	noun	phrase	4	2	match	beau	4	1	p	0.51921
255.44209999999998	0.0	+	27	noun	phrase	4	3	match	beau	4	1	p	0.51921
255.8419	0.2	dans	27	noun	phrase	4	4	match	beau	4	1	p	0.51921
256.0418	0.0	+	27	noun	phrase	4	5	match	beau	4	1	p	0.51921
256.4416	0.2	leur	27	noun	phrase	4	6	match	beau	4	1	p	0.51921
256.6415	0.0	+	27	noun	phrase	4	7	match	beau	4	1	p	0.51921
257.0414	0.2	beau	27	noun	phrase	4	8	match	beau	4	1	p	0.51921
257.2413	0.0	+	27	noun	phrase	4	9	match	beau	4	1	p	0.51921
257.6411	0.2	casier	27	noun	phrase	4	10	match	beau	4	1	p	0.51921
257.841	0.0	+	27	noun	phrase	4	11	match	beau	4	1	p	0.51921
258.2408	0.0	+	27	noun	phrase	4	12	match	beau	4	1	p	0.51921
260.2399	0.0	BEAU	27	noun	phrase	4	13	match	beau	4	1	p	0.51921
260.823	0.0	+	27	noun	phrase	4	14	match	beau	4	1	p	0.51921
260.75910000000005	0.0	[response]	27	noun	phrase	4	15	match	beau	4	1	p	0.51921
262.6389	0.0	+	28	noun	phrase	4	1	nomatch	doit	-1	1	y	0.60605
263.1886	0.2	rgknzx	28	noun	phrase	4	2	nomatch	doit	-1	1	y	0.60605
263.3885	0.0	+	28	noun	phrase	4	3	nomatch	doit	-1	1	y	0.60605
263.7884	0.2	avec	28	noun	phrase	4	4	nomatch	doit	-1	1	y	0.60605
263.9883	0.0	+	28	noun	phrase	4	5	nomatch	doit	-1	1	y	0.60605
264.3881	0.2	mon	28	noun	phrase	4	6	nomatch	doit	-1	1	y	0.60605
264.588	0.0	+	28	noun	phrase	4	7	nomatch	doit	-1	1	y	0.60605
264.9878	0.2	cendrier	28	noun	phrase	4	8	nomatch	doit	-1	1	y	0.60605
265.1877	0.0	+	28	noun	phrase	4	9	nomatch	doit	-1	1	y	0.60605
265.5875	0.2	bleu	28	noun	phrase	4	10	nomatch	doit	-1	1	y	0.60605
265.7875	0.0	+	28	noun	phrase	4	11	nomatch	doit	-1	1	y	0.60605
266.1873	0.0	+	28	noun	phrase	4	12	nomatch	doit	-1	1	y	0.60605
268.1864	0.0	DOIT	28	noun	phrase	4	13	nomatch	doit	-1	1	y	0.60605
268.8528	0.0	+	28	noun	phrase	4	14	nomatch	doit	-1	1	y	0.60605
268.7924	0.0	[response]	28	noun	phrase	4	15	nomatch	doit	-1	1	y	0.60605
270.5853	0.0	+	29	noun	list	3	1	nomatch	adam	-1	1	y	0.8346400000000002
271.1351	0.2	qdn	29	noun	list	3	2	nomatch	adam	-1	1	y	0.8346400000000002
271.335	0.0	+	29	noun	list	3	3	nomatch	adam	-1	1	y	0.8346400000000002
271.7348	0.2	skml	29	noun	list	3	4	nomatch	adam	-1	1	y	0.8346400000000002
271.9347	0.0	+	29	noun	list	3	5	nomatch	adam	-1	1	y	0.8346400000000002
272.3345	0.2	peut	29	noun	list	3	6	nomatch	adam	-1	1	y	0.8346400000000002
272.5344	0.0	+	29	noun	list	3	7	nomatch	adam	-1	1	y	0.8346400000000002
272.9343	0.2	voilier	29	noun	list	3	8	nomatch	adam	-1	1	y	0.8346400000000002
273.1342	0.0	+	29	noun	list	3	9	nomatch	adam	-1	1	y	0.8346400000000002
273.534	0.2	vite	29	noun	list	3	10	nomatch	adam	-1	1	y	0.8346400000000002
273.7339	0.0	+	29	noun	list	3	11	nomatch	adam	-1	1	y	0.8346400000000002
274.13370000000003	0.0	+	29	noun	list	3	12	nomatch	adam	-1	1	y	0.8346400000000002
276.1495	0.0	ADAM	29	noun	list	3	13	nomatch	adam	-1	1	y	0.8346400000000002
277.0491	0.0	+	29	noun	list	3	14	nomatch	adam	-1	1	y	0.8346400000000002
276.9841	0.0	[response]	29	noun	list	3	15	nomatch	adam	-1	1	y	0.8346400000000002
278.5484	0.0	+	30	noun	phrase	4	1	match	son	3	1	p	0.72458
279.0982	0.2	dktlzw	30	noun	phrase	4	2	match	son	3	1	p	0.72458
279.2981	0.0	+	30	noun	phrase	4	3	match	son	3	1	p	0.72458
279.6979	0.2	pour	30	noun	phrase	4	4	match	son	3	1	p	0.72458
279.8978	0.0	+	30	noun	phrase	4	5	match	son	3	1	p	0.72458
280.2976	0.2	son	30	noun	phrase	4	6	match	son	3	1	p	0.72458
280.4976	0.0	+	30	noun	phrase	4	7	match	son	3	1	p	0.72458
280.8974	0.2	clavier	30	noun	phrase	4	8	match	son	3	1	p	0.72458
281.0973	0.0	+	30	noun	phrase	4	9	match	son	3	1	p	0.72458
281.4971	0.2	blanc	30	noun	phrase	4	10	match	son	3	1	p	0.72458
281.697	0.0	+	30	noun	phrase	4	11	match	son	3	1	p	0.72458
282.09680000000003	0.0	+	30	noun	phrase	4	12	match	son	3	1	p	0.72458
284.09590000000003	0.0	SON	30	noun	phrase	4	13	match	son	3	1	p	0.72458
284.8789	0.0	+	30	noun	phrase	4	14	match	son	3	1	p	0.72458
284.8205	0.0	[response]	30	noun	phrase	4	15	match	son	3	1	p	0.72458
286.49490000000003	0.0	+	31	verb	list	1	1	match	rouler	5	1	p	0.5943700000000001
287.0446	0.2	mdh	31	verb	list	1	2	match	rouler	5	1	p	0.5943700000000001
287.2445	0.0	+	31	verb	list	1	3	match	rouler	5	1	p	0.5943700000000001
287.6444	0.2	qrdf	31	verb	list	1	4	match	rouler	5	1	p	0.5943700000000001
287.84430000000003	0.0	+	31	verb	list	1	5	match	rouler	5	1	p	0.5943700000000001
288.2441	0.2	fhjp	31	verb	list	1	6	match	rouler	5	1	p	0.5943700000000001
288.444	0.0	+	31	verb	list	1	7	match	rouler	5	1	p	0.5943700000000001
288.8438	0.2	vblq	31	verb	list	1	8	match	rouler	5	1	p	0.5943700000000001
289.0437	0.0	+	31	verb	list	1	9	match	rouler	5	1	p	0.5943700000000001
289.4436	0.2	rouler	31	verb	list	1	10	match	rouler	5	1	p	0.5943700000000001
289.6435	0.0	+	31	verb	list	1	11	match	rouler	5	1	p	0.5943700000000001
290.0433	0.0	+	31	verb	list	1	12	match	rouler	5	1	p	0.5943700000000001
292.0424	0.0	ROULER	31	verb	list	1	13	match	rouler	5	1	p	0.5943700000000001
292.6921	0.0	+	31	verb	list	1	14	match	rouler	5	1	p	0.5943700000000001
292.6368	0.0	[response]	31	verb	list	1	15	match	rouler	5	1	p	0.5943700000000001
294.4413	0.0	+	32	verb	list	2	1	nomatch	nouveau	-1	1	y	0.68441
294.9911	0.2	jzrbscm	32	verb	list	2	2	nomatch	nouveau	-1	1	y	0.68441
295.19100000000003	0.0	+	32	verb	list	2	3	nomatch	nouveau	-1	1	y	0.68441
295.5908	0.2	nlxv	32	verb	list	2	4	nomatch	nouveau	-1	1	y	0.68441
295.7907	0.0	+	32	verb	list	2	5	nomatch	nouveau	-1	1	y	0.68441
296.1905	0.2	wbn	32	verb	list	2	6	nomatch	nouveau	-1	1	y	0.68441
296.3904	0.0	+	32	verb	list	2	7	nomatch	nouveau	-1	1	y	0.68441
296.7903	0.2	plonger	32	verb	list	2	8	nomatch	nouveau	-1	1	y	0.68441
296.9902	0.0	+	32	verb	list	2	9	nomatch	nouveau	-1	1	y	0.68441
297.39	0.2	rouge	32	verb	list	2	10	nomatch	nouveau	-1	1	y	0.68441
297.5899	0.0	+	32	verb	list	2	11	nomatch	nouveau	-1	1	y	0.68441
297.9897	0.0	+	32	verb	list	2	12	nomatch	nouveau	-1	1	y	0.68441
299.9888	0.0	NOUVEAU	32	verb	list	2	13	nomatch	nouveau	-1	1	y	0.68441
300.7385	0.0	+	32	verb	list	2	14	nomatch	nouveau	-1	1	y	0.68441
300.6733	0.0	[response]	32	verb	list	2	15	nomatch	nouveau	-1	1	y	0.68441
302.3878	0.0	+	33	noun	list	4	1	nomatch	jade	-1	1	y	0.70992
302.9375	0.2	xwznm	33	noun	list	4	2	nomatch	jade	-1	1	y	0.70992
303.1374	0.0	+	33	noun	list	4	3	nomatch	jade	-1	1	y	0.70992
303.5373	0.2	adam	33	noun	list	4	4	nomatch	jade	-1	1	y	0.70992
303.73720000000003	0.0	+	33	noun	list	4	5	nomatch	jade	-1	1	y	0.70992
304.137	0.2	mon	33	noun	list	4	6	nomatch	jade	-1	1	y	0.70992
304.3369	0.0	+	33	noun	list	4	7	nomatch	jade	-1	1	y	0.70992
304.7367	0.2	moins	33	noun	list	4	8	nomatch	jade	-1	1	y	0.70992
304.9366	0.0	+	33	noun	list	4	9	nomatch	jade	-1	1	y	0.70992
305.3365	0.2	boîtier	33	noun	list	4	10	nomatch	jade	-1	1	y	0.70992
305.5364	0.0	+	33	noun	list	4	11	nomatch	jade	-1	1	y	0.70992
305.9362	0.0	+	33	noun	list	4	12	nomatch	jade	-1	1	y	0.70992
307.9353	0.0	JADE	33	noun	list	4	13	nomatch	jade	-1	1	y	0.70992
308.7016	0.0	+	33	noun	list	4	14	nomatch	jade	-1	1	y	0.70992
308.6452	0.0	[response]	33	noun	list	4	15	nomatch	jade	-1	1	y	0.70992
310.3342	0.0	+	34	noun	phrase	3	1	match	tablier	4	1	p	0.5357200000000001
310.884	0.2	tqnr	34	noun	phrase	3	2	match	tablier	4	1	p	0.5357200000000001
311.0839	0.0	+	34	noun	phrase	3	3	match	tablier	4	1	p	0.5357200000000001
311.4837	0.2	dgph	34	noun	phrase	3	4	match	tablier	4	1	p	0.5357200000000001
311.6836	0.0	+	34	noun	phrase	3	5	match	tablier	4	1	p	0.5357200000000001
312.1001	0.2	son	34	noun	phrase	3	6	match	tablier	4	1	p	0.5357200000000001
312.3	0.0	+	34	noun	phrase	3	7	match	tablier	4	1	p	0.5357200000000001
312.6998	0.2	tablier	34	noun	phrase	3	8	match	tablier	4	1	p	0.5357200000000001
312.8998	0.0	+	34	noun	phrase	3	9	match	tablier	4	1	p	0.5357200000000001
313.2996	0.2	blanc	34	noun	phrase	3	10	match	tablier	4	1	p	0.5357200000000001
313.4995	0.0	+	34	noun	phrase	3	11	match	tablier	4	1	p	0.5357200000000001
313.8993	0.0	+	34	noun	phrase	3	12	match	tablier	4	1	p	0.5357200000000001
315.8984	0.0	TABLIER	34	noun	phrase	3	13	match	tablier	4	1	p	0.5357200000000001
316.4981	0.0	+	34	noun	phrase	3	14	match	tablier	4	1	p	0.5357200000000001
316.4341	0.0	[response]	34	noun	phrase	3	15	match	tablier	4	1	p	0.5357200000000001
318.2973	0.0	+	35	noun	list	1	1	match	clavier	5	1	p	0.52153
318.8471	0.2	bmcxjq	35	noun	list	1	2	match	clavier	5	1	p	0.52153
319.047	0.0	+	35	noun	list	1	3	match	clavier	5	1	p	0.52153
319.4468	0.2	grd	35	noun	list	1	4	match	clavier	5	1	p	0.52153
319.6467	0.0	+	35	noun	list	1	5	match	clavier	5	1	p	0.52153
320.0466	0.2	fhjp	35	noun	list	1	6	match	clavier	5	1	p	0.52153
320.2465	0.0	+	35	noun	list	1	7	match	clavier	5	1	p	0.52153
320.6463	0.2	lwhd	35	noun	list	1	8	match	clavier	5	1	p	0.52153
320.8462	0.0	+	35	noun	list	1	9	match	clavier	5	1	p	0.52153
321.246	0.2	clavier	35	noun	list	1	10	match	clavier	5	1	p	0.52153
321.4459	0.0	+	35	noun	list	1	11	match	clavier	5	1	p	0.52153
321.8458	0.0	+	35	noun	list	1	12	match	clavier	5	1	p	0.52153
323.8449	0.0	CLAVIER	35	noun	list	1	13	match	clavier	5	1	p	0.52153
324.4279	0.0	+	35	noun	list	1	14	match	clavier	5	1	p	0.52153
324.3664	0.0	[response]	35	noun	list	1	15	match	clavier	5	1	p	0.52153
326.2438	0.0	+	36	verb	list	2	1	nomatch	jongler	-1	1	y	0.71929
326.7935	0.2	dln	36	verb	list	2	2	nomatch	jongler	-1	1	y	0.71929
326.9934	0.0	+	36	verb	list	2	3	nomatch	jongler	-1	1	y	0.71929
327.3933	0.2	dkcf	36	verb	list	2	4	nomatch	jongler	-1	1	y	0.71929
327.5932	0.0	+	36	verb	list	2	5	nomatch	jongler	-1	1	y	0.71929
327.993	0.2	wbn	36	verb	list	2	6	nomatch	jongler	-1	1	y	0.71929
328.1929	0.0	+	36	verb	list	2	7	nomatch	jongler	-1	1	y	0.71929
328.5927	0.2	nager	36	verb	list	2	8	nomatch	jongler	-1	1	y	0.71929
328.7926	0.0	+	36	verb	list	2	9	nomatch	jongler	-1	1	y	0.71929
329.1925	0.2	noir	36	verb	list	2	10	nomatch	jongler	-1	1	y	0.71929
329.3924	0.0	+	36	verb	list	2	11	nomatch	jongler	-1	1	y	0.71929
329.7922	0.0	+	36	verb	list	2	12	nomatch	jongler	-1	1	y	0.71929
331.7913	0.0	JONGLER	36	verb	list	2	13	nomatch	jongler	-1	1	y	0.71929
332.5743	0.0	+	36	verb	list	2	14	nomatch	jongler	-1	1	y	0.71929
332.5106	0.0	[response]	36	verb	list	2	15	nomatch	jongler	-1	1	y	0.71929
334.1902	0.0	+	37	verb	phrase	3	1	match	tard	5	1	p	0.49599000000000004
334.74	0.2	pltzvb	37	verb	phrase	3	2	match	tard	5	1	p	0.49599000000000004
334.9399	0.0	+	37	verb	phrase	3	3	match	tard	5	1	p	0.49599000000000004
335.3397	0.2	nlxv	37	verb	phrase	3	4	match	tard	5	1	p	0.49599000000000004
335.5396	0.0	+	37	verb	phrase	3	5	match	tard	5	1	p	0.49599000000000004
335.9395	0.2	doit	37	verb	phrase	3	6	match	tard	5	1	p	0.49599000000000004
336.1394	0.0	+	37	verb	phrase	3	7	match	tard	5	1	p	0.49599000000000004
336.5392	0.2	plonger	37	verb	phrase	3	8	match	tard	5	1	p	0.49599000000000004
336.7391	0.0	+	37	verb	phrase	3	9	match	tard	5	1	p	0.49599000000000004
337.1389	0.2	tard	37	verb	phrase	3	10	match	tard	5	1	p	0.49599000000000004
337.3388	0.0	+	37	verb	phrase	3	11	match	tard	5	1	p	0.49599000000000004
337.7387	0.0	+	37	verb	phrase	3	12	match	tard	5	1	p	0.49599000000000004
339.7378	0.0	TARD	37	verb	phrase	3	13	match	tard	5	1	p	0.49599000000000004
340.2875	0.0	+	37	verb	phrase	3	14	match	tard	5	1	p	0.49599000000000004
340.23380000000003	0.0	[response]	37	verb	phrase	3	15	match	tard	5	1	p	0.49599000000000004
350.1498	0.0	+	38	verb	phrase	2	1	match	beaucoup	4	1	p	0.54276
350.6995	0.2	mzjpdv	38	verb	phrase	2	2	match	beaucoup	4	1	p	0.54276
350.8994	0.0	+	38	verb	phrase	2	3	match	beaucoup	4	1	p	0.54276
351.2993	0.2	qrkg	38	verb	phrase	2	4	match	beaucoup	4	1	p	0.54276
351.49920000000003	0.0	+	38	verb	phrase	2	5	match	beaucoup	4	1	p	0.54276
351.899	0.2	th	38	verb	phrase	2	6	match	beaucoup	4	1	p	0.54276
352.0989	0.0	+	38	verb	phrase	2	7	match	beaucoup	4	1	p	0.54276
352.4987	0.2	beaucoup	38	verb	phrase	2	8	match	beaucoup	4	1	p	0.54276
352.6986	0.0	+	38	verb	phrase	2	9	match	beaucoup	4	1	p	0.54276
353.0985	0.2	voyager	38	verb	phrase	2	10	match	beaucoup	4	1	p	0.54276
353.2984	0.0	+	38	verb	phrase	2	11	match	beaucoup	4	1	p	0.54276
353.6982	0.0	+	38	verb	phrase	2	12	match	beaucoup	4	1	p	0.54276
355.6973	0.0	BEAUCOUP	38	verb	phrase	2	13	match	beaucoup	4	1	p	0.54276
356.297	0.0	+	38	verb	phrase	2	14	match	beaucoup	4	1	p	0.54276
356.2401	0.0	[response]	38	verb	phrase	2	15	match	beaucoup	4	1	p	0.54276
358.0962	0.0	+	39	noun	list	2	1	match	moins	4	1	p	0.58354
358.646	0.2	wvlrqb	39	noun	list	2	2	match	moins	4	1	p	0.58354
358.84590000000003	0.0	+	39	noun	list	2	3	match	moins	4	1	p	0.58354
359.2457	0.2	lnqh	39	noun	list	2	4	match	moins	4	1	p	0.58354
359.4456	0.0	+	39	noun	list	2	5	match	moins	4	1	p	0.58354
359.8455	0.2	wbn	39	noun	list	2	6	match	moins	4	1	p	0.58354
360.04540000000003	0.0	+	39	noun	list	2	7	match	moins	4	1	p	0.58354
360.4452	0.2	moins	39	noun	list	2	8	match	moins	4	1	p	0.58354
360.6451	0.0	+	39	noun	list	2	9	match	moins	4	1	p	0.58354
361.0449	0.2	casier	39	noun	list	2	10	match	moins	4	1	p	0.58354
361.2448	0.0	+	39	noun	list	2	11	match	moins	4	1	p	0.58354
361.6447	0.0	+	39	noun	list	2	12	match	moins	4	1	p	0.58354
363.6438	0.0	MOINS	39	noun	list	2	13	match	moins	4	1	p	0.58354
364.2935	0.0	+	39	noun	list	2	14	match	moins	4	1	p	0.58354
364.2273	0.0	[response]	39	noun	list	2	15	match	moins	4	1	p	0.58354
374.0391	0.0	+	40	verb	phrase	4	1	match	doit	3	1	p	0.66833
374.5889	0.2	hdks	40	verb	phrase	4	2	match	doit	3	1	p	0.66833
374.7888	0.0	+	40	verb	phrase	4	3	match	doit	3	1	p	0.66833
375.1886	0.2	paul	40	verb	phrase	4	4	match	doit	3	1	p	0.66833
375.3885	0.0	+	40	verb	phrase	4	5	match	doit	3	1	p	0.66833
375.7883	0.2	doit	40	verb	phrase	4	6	match	doit	3	1	p	0.66833
375.9882	0.0	+	40	verb	phrase	4	7	match	doit	3	1	p	0.66833
376.3881	0.2	mieux	40	verb	phrase	4	8	match	doit	3	1	p	0.66833
376.588	0.0	+	40	verb	phrase	4	9	match	doit	3	1	p	0.66833
376.9878	0.2	chasser	40	verb	phrase	4	10	match	doit	3	1	p	0.66833
377.1877	0.0	+	40	verb	phrase	4	11	match	doit	3	1	p	0.66833
377.5875	0.0	+	40	verb	phrase	4	12	match	doit	3	1	p	0.66833
379.58660000000003	0.0	DOIT	40	verb	phrase	4	13	match	doit	3	1	p	0.66833
380.3197	0.0	+	40	verb	phrase	4	14	match	doit	3	1	p	0.66833
380.255	0.0	[response]	40	verb	phrase	4	15	match	doit	3	1	p	0.66833
381.9856	0.0	+	41	noun	phrase	1	1	nomatch	sans	-1	1	y	0.93059
382.5353	0.2	wshjzxc	41	noun	phrase	1	2	nomatch	sans	-1	1	y	0.93059
382.7352	0.0	+	41	noun	phrase	1	3	nomatch	sans	-1	1	y	0.93059
383.1351	0.2	jqzp	41	noun	phrase	1	4	nomatch	sans	-1	1	y	0.93059
383.335	0.0	+	41	noun	phrase	1	5	nomatch	sans	-1	1	y	0.93059
383.7348	0.2	smdc	41	noun	phrase	1	6	nomatch	sans	-1	1	y	0.93059
383.9347	0.0	+	41	noun	phrase	1	7	nomatch	sans	-1	1	y	0.93059
384.3345	0.2	fqxgj	41	noun	phrase	1	8	nomatch	sans	-1	1	y	0.93059
384.5344	0.0	+	41	noun	phrase	1	9	nomatch	sans	-1	1	y	0.93059
384.9343	0.2	rocher	41	noun	phrase	1	10	nomatch	sans	-1	1	y	0.93059
385.1342	0.0	+	41	noun	phrase	1	11	nomatch	sans	-1	1	y	0.93059
385.534	0.0	+	41	noun	phrase	1	12	nomatch	sans	-1	1	y	0.93059
387.54970000000003	0.0	SANS	41	noun	phrase	1	13	nomatch	sans	-1	1	y	0.93059
388.5327	0.0	+	41	noun	phrase	1	14	nomatch	sans	-1	1	y	0.93059
388.48030000000006	0.0	[response]	41	noun	phrase	1	15	nomatch	sans	-1	1	y	0.93059
397.9451	0.0	+	42	verb	phrase	3	1	match	doit	3	1	p	0.47317
398.49490000000003	0.2	qrwnlx	42	verb	phrase	3	2	match	doit	3	1	p	0.47317
398.6948	0.0	+	42	verb	phrase	3	3	match	doit	3	1	p	0.47317
399.0946	0.2	lnqh	42	verb	phrase	3	4	match	doit	3	1	p	0.47317
399.2945	0.0	+	42	verb	phrase	3	5	match	doit	3	1	p	0.47317
399.6943	0.2	doit	42	verb	phrase	3	6	match	doit	3	1	p	0.47317
399.8942	0.0	+	42	verb	phrase	3	7	match	doit	3	1	p	0.47317
400.2941	0.2	nager	42	verb	phrase	3	8	match	doit	3	1	p	0.47317
400.494	0.0	+	42	verb	phrase	3	9	match	doit	3	1	p	0.47317
400.8938	0.2	loin	42	verb	phrase	3	10	match	doit	3	1	p	0.47317
401.0937	0.0	+	42	verb	phrase	3	11	match	doit	3	1	p	0.47317
401.4935	0.0	+	42	verb	phrase	3	12	match	doit	3	1	p	0.47317
403.4926	0.0	DOIT	42	verb	phrase	3	13	match	doit	3	1	p	0.47317
404.02570000000003	0.0	+	42	verb	phrase	3	14	match	doit	3	1	p	0.47317
403.96580000000006	0.0	[response]	42	verb	phrase	3	15	match	doit	3	1	p	0.47317
405.8916	0.0	+	43	noun	phrase	1	1	nomatch	voilier	-1	1	y	0.80274
406.4413	0.2	nbc	43	noun	phrase	1	2	nomatch	voilier	-1	1	y	0.80274
406.6412	0.0	+	43	noun	phrase	1	3	nomatch	voilier	-1	1	y	0.80274
407.041	0.2	jsgh	43	noun	phrase	1	4	nomatch	voilier	-1	1	y	0.80274
407.241	0.0	+	43	noun	phrase	1	5	nomatch	voilier	-1	1	y	0.80274
407.6408	0.2	wbn	43	noun	phrase	1	6	nomatch	voilier	-1	1	y	0.80274
407.8407	0.0	+	43	noun	phrase	1	7	nomatch	voilier	-1	1	y	0.80274
408.2405	0.2	ftndwlq	43	noun	phrase	1	8	nomatch	voilier	-1	1	y	0.80274
408.4404	0.0	+	43	noun	phrase	1	9	nomatch	voilier	-1	1	y	0.80274
408.8403	0.2	blanc	43	noun	phrase	1	10	nomatch	voilier	-1	1	y	0.80274
409.0401	0.0	+	43	noun	phrase	1	11	nomatch	voilier	-1	1	y	0.80274
409.44	0.0	+	43	noun	phrase	1	12	nomatch	voilier	-1	1	y	0.80274
411.4391	0.0	VOILIER	43	noun	phrase	1	13	nomatch	voilier	-1	1	y	0.80274
412.3054	0.0	+	43	noun	phrase	1	14	nomatch	voilier	-1	1	y	0.80274
412.2418	0.0	[response]	43	noun	phrase	1	15	nomatch	voilier	-1	1	y	0.80274
421.8344	0.0	+	44	noun	list	1	1	nomatch	ainsi	-1	1	y	0.6073
422.3842	0.2	rgmwkxd	44	noun	list	1	2	nomatch	ainsi	-1	1	y	0.6073
422.5841	0.0	+	44	noun	list	1	3	nomatch	ainsi	-1	1	y	0.6073
422.9839	0.2	rjbt	44	noun	list	1	4	nomatch	ainsi	-1	1	y	0.6073
423.1838	0.0	+	44	noun	list	1	5	nomatch	ainsi	-1	1	y	0.6073
423.5837	0.2	smdc	44	noun	list	1	6	nomatch	ainsi	-1	1	y	0.6073
423.7836	0.0	+	44	noun	list	1	7	nomatch	ainsi	-1	1	y	0.6073
424.2001	0.2	mthzjxq	44	noun	list	1	8	nomatch	ainsi	-1	1	y	0.6073
424.4	0.0	+	44	noun	list	1	9	nomatch	ainsi	-1	1	y	0.6073
424.7998	0.2	moins	44	noun	list	1	10	nomatch	ainsi	-1	1	y	0.6073
424.9997	0.0	+	44	noun	list	1	11	nomatch	ainsi	-1	1	y	0.6073
425.3995	0.0	+	44	noun	list	1	12	nomatch	ainsi	-1	1	y	0.6073
427.3986	0.0	AINSI	44	noun	list	1	13	nomatch	ainsi	-1	1	y	0.6073
428.065	0.0	+	44	noun	list	1	14	nomatch	ainsi	-1	1	y	0.6073
428.0059	0.0	[response]	44	noun	list	1	15	nomatch	ainsi	-1	1	y	0.6073
429.7976	0.0	+	45	noun	list	3	1	match	mon	3	1	p	0.57758
430.3473	0.2	crfl	45	noun	list	3	2	match	mon	3	1	p	0.57758
430.54720000000003	0.0	+	45	noun	list	3	3	match	mon	3	1	p	0.57758
430.947	0.2	qrkg	45	noun	list	3	4	match	mon	3	1	p	0.57758
431.147	0.0	+	45	noun	list	3	5	match	mon	3	1	p	0.57758
431.5468	0.2	mon	45	noun	list	3	6	match	mon	3	1	p	0.57758
431.74670000000003	0.0	+	45	noun	list	3	7	match	mon	3	1	p	0.57758
432.1472	0.2	plus	45	noun	list	3	8	match	mon	3	1	p	0.57758
432.3464	0.0	+	45	noun	list	3	9	match	mon	3	1	p	0.57758
432.7462	0.2	tablier	45	noun	list	3	10	match	mon	3	1	p	0.57758
432.94620000000003	0.0	+	45	noun	list	3	11	match	mon	3	1	p	0.57758
433.346	0.0	+	45	noun	list	3	12	match	mon	3	1	p	0.57758
435.3451	0.0	MON	45	noun	list	3	13	match	mon	3	1	p	0.57758
435.9781	0.0	+	45	noun	list	3	14	match	mon	3	1	p	0.57758
435.9227	0.0	[response]	45	noun	list	3	15	match	mon	3	1	p	0.57758
437.744	0.0	+	46	noun	list	4	1	match	paul	2	1	p	0.49901
438.29380000000003	0.2	dqbwcz	46	noun	list	4	2	match	paul	2	1	p	0.49901
438.4937	0.0	+	46	noun	list	4	3	match	paul	2	1	p	0.49901
438.8935	0.2	paul	46	noun	list	4	4	match	paul	2	1	p	0.49901
439.09340000000003	0.0	+	46	noun	list	4	5	match	paul	2	1	p	0.49901
439.4932	0.2	son	46	noun	list	4	6	match	paul	2	1	p	0.49901
439.6931	0.0	+	46	noun	list	4	7	match	paul	2	1	p	0.49901
440.093	0.2	mieux	46	noun	list	4	8	match	paul	2	1	p	0.49901
440.29290000000003	0.0	+	46	noun	list	4	9	match	paul	2	1	p	0.49901
440.6927	0.2	rocher	46	noun	list	4	10	match	paul	2	1	p	0.49901
440.8926	0.0	+	46	noun	list	4	11	match	paul	2	1	p	0.49901
441.2924	0.0	+	46	noun	list	4	12	match	paul	2	1	p	0.49901
443.2915	0.0	PAUL	46	noun	list	4	13	match	paul	2	1	p	0.49901
443.85790000000003	0.0	+	46	noun	list	4	14	match	paul	2	1	p	0.49901
443.7905	0.0	[response]	46	noun	list	4	15	match	paul	2	1	p	0.49901
453.6869	0.0	+	47	noun	phrase	4	1	nomatch	vers	-1	1	y	0.77674
454.2366	0.2	rvbwfn	47	noun	phrase	4	2	nomatch	vers	-1	1	y	0.77674
454.4366	0.0	+	47	noun	phrase	4	3	nomatch	vers	-1	1	y	0.77674
454.8364	0.2	sans	47	noun	phrase	4	4	nomatch	vers	-1	1	y	0.77674
455.0363	0.0	+	47	noun	phrase	4	5	nomatch	vers	-1	1	y	0.77674
455.4361	0.2	mon	47	noun	phrase	4	6	nomatch	vers	-1	1	y	0.77674
455.636	0.0	+	47	noun	phrase	4	7	nomatch	vers	-1	1	y	0.77674
456.0358	0.2	grenier	47	noun	phrase	4	8	nomatch	vers	-1	1	y	0.77674
456.2357	0.0	+	47	noun	phrase	4	9	nomatch	vers	-1	1	y	0.77674
456.6356	0.2	bleu	47	noun	phrase	4	10	nomatch	vers	-1	1	y	0.77674
456.8355	0.0	+	47	noun	phrase	4	11	nomatch	vers	-1	1	y	0.77674
457.2353	0.0	+	47	noun	phrase	4	12	nomatch	vers	-1	1	y	0.77674
459.2344	0.0	VERS	47	noun	phrase	4	13	nomatch	vers	-1	1	y	0.77674
460.0674	0.0	+	47	noun	phrase	4	14	nomatch	vers	-1	1	y	0.77674
460.0111	0.0	[response]	47	noun	phrase	4	15	nomatch	vers	-1	1	y	0.77674
461.65070000000003	0.0	+	48	verb	phrase	3	1	nomatch	plonger	-1	1	y	0.60095
462.1998	0.2	twbpjfz	48	verb	phrase	3	2	nomatch	plonger	-1	1	y	0.60095
462.3997	0.0	+	48	verb	phrase	3	3	nomatch	plonger	-1	1	y	0.60095
462.7995	0.2	cqx	48	verb	phrase	3	4	nomatch	plonger	-1	1	y	0.60095
462.99940000000004	0.0	+	48	verb	phrase	3	5	nomatch	plonger	-1	1	y	0.60095
463.39919999999995	0.2	peut	48	verb	phrase	3	6	nomatch	plonger	-1	1	y	0.60095
463.5991	0.0	+	48	verb	phrase	3	7	nomatch	plonger	-1	1	y	0.60095
463.999	0.2	moins	48	verb	phrase	3	8	nomatch	plonger	-1	1	y	0.60095
464.1989	0.0	+	48	verb	phrase	3	9	nomatch	plonger	-1	1	y	0.60095
464.5987	0.2	danser	48	verb	phrase	3	10	nomatch	plonger	-1	1	y	0.60095
464.79859999999996	0.0	+	48	verb	phrase	3	11	nomatch	plonger	-1	1	y	0.60095
465.1984	0.0	+	48	verb	phrase	3	12	nomatch	plonger	-1	1	y	0.60095
467.1975	0.0	PLONGER	48	verb	phrase	3	13	nomatch	plonger	-1	1	y	0.60095
467.86390000000006	0.0	+	48	verb	phrase	3	14	nomatch	plonger	-1	1	y	0.60095
467.7985	0.0	[response]	48	verb	phrase	3	15	nomatch	plonger	-1	1	y	0.60095
477.5929	0.0	+	49	noun	list	4	1	nomatch	mon	-1	1	y	0.63405
478.1426	0.2	mfcr	49	noun	list	4	2	nomatch	mon	-1	1	y	0.63405
478.3425	0.0	+	49	noun	list	4	3	nomatch	mon	-1	1	y	0.63405
478.7424	0.2	jean	49	noun	list	4	4	nomatch	mon	-1	1	y	0.63405
478.94230000000005	0.0	+	49	noun	list	4	5	nomatch	mon	-1	1	y	0.63405
479.34209999999996	0.2	leur	49	noun	list	4	6	nomatch	mon	-1	1	y	0.63405
479.54200000000003	0.0	+	49	noun	list	4	7	nomatch	mon	-1	1	y	0.63405
479.94180000000006	0.2	trop	49	noun	list	4	8	nomatch	mon	-1	1	y	0.63405
480.1417	0.0	+	49	noun	list	4	9	nomatch	mon	-1	1	y	0.63405
480.5416	0.2	cendrier	49	noun	list	4	10	nomatch	mon	-1	1	y	0.63405
480.7415	0.0	+	49	noun	list	4	11	nomatch	mon	-1	1	y	0.63405
481.1413	0.0	+	49	noun	list	4	12	nomatch	mon	-1	1	y	0.63405
483.1404	0.0	MON	49	noun	list	4	13	nomatch	mon	-1	1	y	0.63405
483.8401	0.0	+	49	noun	list	4	14	nomatch	mon	-1	1	y	0.63405
483.7745	0.0	[response]	49	noun	list	4	15	nomatch	mon	-1	1	y	0.63405
485.5393	0.0	+	50	noun	phrase	1	1	nomatch	blanc	-1	1	y	0.74743
486.08910000000003	0.2	zkhc	50	noun	phrase	1	2	nomatch	blanc	-1	1	y	0.74743
486.289	0.0	+	50	noun	phrase	1	3	nomatch	blanc	-1	1	y	0.74743
486.6888	0.2	qrdf	50	noun	phrase	1	4	nomatch	blanc	-1	1	y	0.74743
486.8887	0.0	+	50	noun	phrase	1	5	nomatch	blanc	-1	1	y	0.74743
487.2885	0.2	smdc	50	noun	phrase	1	6	nomatch	blanc	-1	1	y	0.74743
487.48850000000004	0.0	+	50	noun	phrase	1	7	nomatch	blanc	-1	1	y	0.74743
487.88829999999996	0.2	vndzgqs	50	noun	phrase	1	8	nomatch	blanc	-1	1	y	0.74743
488.08820000000003	0.0	+	50	noun	phrase	1	9	nomatch	blanc	-1	1	y	0.74743
488.48800000000006	0.2	bleu	50	noun	phrase	1	10	nomatch	blanc	-1	1	y	0.74743
488.6879	0.0	+	50	noun	phrase	1	11	nomatch	blanc	-1	1	y	0.74743
489.08770000000004	0.0	+	50	noun	phrase	1	12	nomatch	blanc	-1	1	y	0.74743
491.08680000000004	0.0	BLANC	50	noun	phrase	1	13	nomatch	blanc	-1	1	y	0.74743
491.88649999999996	0.0	+	50	noun	phrase	1	14	nomatch	blanc	-1	1	y	0.74743
491.8343	0.0	[response]	50	noun	phrase	1	15	nomatch	blanc	-1	1	y	0.74743
493.48580000000004	0.0	+	51	verb	list	3	1	nomatch	rouler	-1	1	y	0.89836
494.03549999999996	0.2	zcqg	51	verb	list	3	2	nomatch	rouler	-1	1	y	0.89836
494.2355	0.0	+	51	verb	list	3	3	nomatch	rouler	-1	1	y	0.89836
494.63530000000003	0.2	qrkg	51	verb	list	3	4	nomatch	rouler	-1	1	y	0.89836
494.8352	0.0	+	51	verb	list	3	5	nomatch	rouler	-1	1	y	0.89836
495.235	0.2	mon	51	verb	list	3	6	nomatch	rouler	-1	1	y	0.89836
495.43489999999997	0.0	+	51	verb	list	3	7	nomatch	rouler	-1	1	y	0.89836
495.8347	0.2	jongler	51	verb	list	3	8	nomatch	rouler	-1	1	y	0.89836
496.03459999999995	0.0	+	51	verb	list	3	9	nomatch	rouler	-1	1	y	0.89836
496.43449999999996	0.2	rouge	51	verb	list	3	10	nomatch	rouler	-1	1	y	0.89836
496.6344	0.0	+	51	verb	list	3	11	nomatch	rouler	-1	1	y	0.89836
497.03420000000006	0.0	+	51	verb	list	3	12	nomatch	rouler	-1	1	y	0.89836
499.04999999999995	0.0	ROULER	51	verb	list	3	13	nomatch	rouler	-1	1	y	0.89836
499.9996	0.0	+	51	verb	list	3	14	nomatch	rouler	-1	1	y	0.89836
499.9483	0.0	[response]	51	verb	list	3	15	nomatch	rouler	-1	1	y	0.89836
501.4489	0.0	+	52	noun	phrase	3	1	match	son	3	1	p	0.57108
501.9987	0.2	lsvwj	52	noun	phrase	3	2	match	son	3	1	p	0.57108
502.19860000000006	0.0	+	52	noun	phrase	3	3	match	son	3	1	p	0.57108
502.59839999999997	0.2	grd	52	noun	phrase	3	4	match	son	3	1	p	0.57108
502.79830000000004	0.0	+	52	noun	phrase	3	5	match	son	3	1	p	0.57108
503.19809999999995	0.2	son	52	noun	phrase	3	6	match	son	3	1	p	0.57108
503.398	0.0	+	52	noun	phrase	3	7	match	son	3	1	p	0.57108
503.7979	0.2	cendrier	52	noun	phrase	3	8	match	son	3	1	p	0.57108
503.9978	0.0	+	52	noun	phrase	3	9	match	son	3	1	p	0.57108
504.3976	0.2	noir	52	noun	phrase	3	10	match	son	3	1	p	0.57108
504.59749999999997	0.0	+	52	noun	phrase	3	11	match	son	3	1	p	0.57108
504.9973	0.0	+	52	noun	phrase	3	12	match	son	3	1	p	0.57108
506.9964	0.0	SON	52	noun	phrase	3	13	match	son	3	1	p	0.57108
507.6295	0.0	+	52	noun	phrase	3	14	match	son	3	1	p	0.57108
507.5675	0.0	[response]	52	noun	phrase	3	15	match	son	3	1	p	0.57108
509.3953	0.0	+	53	noun	list	4	1	nomatch	mieux	-1	1	y	0.62498
509.9451	0.2	hvnpgx	53	noun	list	4	2	nomatch	mieux	-1	1	y	0.62498
510.145	0.0	+	53	noun	list	4	3	nomatch	mieux	-1	1	y	0.62498
510.5448	0.2	jean	53	noun	list	4	4	nomatch	mieux	-1	1	y	0.62498
510.74469999999997	0.0	+	53	noun	list	4	5	nomatch	mieux	-1	1	y	0.62498
511.14459999999997	0.2	mon	53	noun	list	4	6	nomatch	mieux	-1	1	y	0.62498
511.34450000000004	0.0	+	53	noun	list	4	7	nomatch	mieux	-1	1	y	0.62498
511.74429999999995	0.2	plus	53	noun	list	4	8	nomatch	mieux	-1	1	y	0.62498
511.9443	0.0	+	53	noun	list	4	9	nomatch	mieux	-1	1	y	0.62498
512.344	0.2	casier	53	noun	list	4	10	nomatch	mieux	-1	1	y	0.62498
512.5439	0.0	+	53	noun	list	4	11	nomatch	mieux	-1	1	y	0.62498
512.9438	0.0	+	53	noun	list	4	12	nomatch	mieux	-1	1	y	0.62498
514.9429	0.0	MIEUX	53	noun	list	4	13	nomatch	mieux	-1	1	y	0.62498
515.6259	0.0	+	53	noun	list	4	14	nomatch	mieux	-1	1	y	0.62498
515.5678	0.0	[response]	53	noun	list	4	15	nomatch	mieux	-1	1	y	0.62498
517.3418	0.0	+	54	verb	list	4	1	match	avec	2	1	p	0.58141
517.8916	0.2	knwmrs	54	verb	list	4	2	match	avec	2	1	p	0.58141
518.0915	0.0	+	54	verb	list	4	3	match	avec	2	1	p	0.58141
518.4913	0.2	avec	54	verb	list	4	4	match	avec	2	1	p	0.58141
518.6912	0.0	+	54	verb	list	4	5	match	avec	2	1	p	0.58141
519.091	0.2	doit	54	verb	list	4	6	match	avec	2	1	p	0.58141
519.2909	0.0	+	54	verb	list	4	7	match	avec	2	1	p	0.58141
519.6908	0.2	grand	54	verb	list	4	8	match	avec	2	1	p	0.58141
519.8907	0.0	+	54	verb	list	4	9	match	avec	2	1	p	0.58141
520.2905	0.2	chasser	54	verb	list	4	10	match	avec	2	1	p	0.58141
520.4904	0.0	+	54	verb	list	4	11	match	avec	2	1	p	0.58141
520.8902	0.0	+	54	verb	list	4	12	match	avec	2	1	p	0.58141
522.8893	0.0	AVEC	54	verb	list	4	13	match	avec	2	1	p	0.58141
523.5224000000001	0.0	+	54	verb	list	4	14	match	avec	2	1	p	0.58141
523.4707	0.0	[response]	54	verb	list	4	15	match	avec	2	1	p	0.58141
525.2883	0.0	+	55	verb	phrase	2	1	match	moins	4	1	p	0.60912
525.838	0.2	chpqkgz	55	verb	phrase	2	2	match	moins	4	1	p	0.60912
526.0379	0.0	+	55	verb	phrase	2	3	match	moins	4	1	p	0.60912
526.4377	0.2	nlxv	55	verb	phrase	2	4	match	moins	4	1	p	0.60912
526.6376	0.0	+	55	verb	phrase	2	5	match	moins	4	1	p	0.60912
527.0375	0.2	th	55	verb	phrase	2	6	match	moins	4	1	p	0.60912
527.2374	0.0	+	55	verb	phrase	2	7	match	moins	4	1	p	0.60912
527.6372	0.2	moins	55	verb	phrase	2	8	match	moins	4	1	p	0.60912
527.8371	0.0	+	55	verb	phrase	2	9	match	moins	4	1	p	0.60912
528.237	0.2	rouler	55	verb	phrase	2	10	match	moins	4	1	p	0.60912
528.4368	0.0	+	55	verb	phrase	2	11	match	moins	4	1	p	0.60912
528.8367	0.0	+	55	verb	phrase	2	12	match	moins	4	1	p	0.60912
530.8358	0.0	MOINS	55	verb	phrase	2	13	match	moins	4	1	p	0.60912
531.5021	0.0	+	55	verb	phrase	2	14	match	moins	4	1	p	0.60912
531.4449	0.0	[response]	55	verb	phrase	2	15	match	moins	4	1	p	0.60912
533.2347	0.0	+	56	verb	phrase	4	1	nomatch	petit	-1	1	y	0.59883
533.7845	0.2	stvph	56	verb	phrase	4	2	nomatch	petit	-1	1	y	0.59883
533.9844	0.0	+	56	verb	phrase	4	3	nomatch	petit	-1	1	y	0.59883
534.3842	0.2	jean	56	verb	phrase	4	4	nomatch	petit	-1	1	y	0.59883
534.5841	0.0	+	56	verb	phrase	4	5	nomatch	petit	-1	1	y	0.59883
534.9839	0.2	doit	56	verb	phrase	4	6	nomatch	petit	-1	1	y	0.59883
535.1838	0.0	+	56	verb	phrase	4	7	nomatch	petit	-1	1	y	0.59883
535.5836	0.2	nager	56	verb	phrase	4	8	nomatch	petit	-1	1	y	0.59883
535.7837	0.0	+	56	verb	phrase	4	9	nomatch	petit	-1	1	y	0.59883
536.2	0.2	tôt	56	verb	phrase	4	10	nomatch	petit	-1	1	y	0.59883
536.3999	0.0	+	56	verb	phrase	4	11	nomatch	petit	-1	1	y	0.59883
536.7998	0.0	+	56	verb	phrase	4	12	nomatch	petit	-1	1	y	0.59883
538.7989	0.0	PETIT	56	verb	phrase	4	13	nomatch	petit	-1	1	y	0.59883
539.4653	0.0	+	56	verb	phrase	4	14	nomatch	petit	-1	1	y	0.59883
539.3977	0.0	[response]	56	verb	phrase	4	15	nomatch	petit	-1	1	y	0.59883
541.1978	0.0	+	57	noun	list	1	1	match	mieux	5	1	p	0.45187
541.7476	0.2	nstjbhw	57	noun	list	1	2	match	mieux	5	1	p	0.45187
541.9475	0.0	+	57	noun	list	1	3	match	mieux	5	1	p	0.45187
542.3473	0.2	nfzp	57	noun	list	1	4	match	mieux	5	1	p	0.45187
542.5472	0.0	+	57	noun	list	1	5	match	mieux	5	1	p	0.45187
542.9472	0.2	hjw	57	noun	list	1	6	match	mieux	5	1	p	0.45187
543.147	0.0	+	57	noun	list	1	7	match	mieux	5	1	p	0.45187
543.5468	0.2	vndzgqs	57	noun	list	1	8	match	mieux	5	1	p	0.45187
543.7467	0.0	+	57	noun	list	1	9	match	mieux	5	1	p	0.45187
544.1472	0.2	mieux	57	noun	list	1	10	match	mieux	5	1	p	0.45187
544.3464	0.0	+	57	noun	list	1	11	match	mieux	5	1	p	0.45187
544.7462	0.0	+	57	noun	list	1	12	match	mieux	5	1	p	0.45187
546.7453	0.0	MIEUX	57	noun	list	1	13	match	mieux	5	1	p	0.45187
547.2618	0.0	+	57	noun	list	1	14	match	mieux	5	1	p	0.45187
547.1972	0.0	[response]	57	noun	list	1	15	match	mieux	5	1	p	0.45187
549.1443	0.0	+	58	verb	list	1	1	match	plonger	5	1	p	0.47104
549.694	0.2	xwf	58	verb	list	1	2	match	plonger	5	1	p	0.47104
549.8939	0.0	+	58	verb	list	1	3	match	plonger	5	1	p	0.47104
550.2938	0.2	nlxv	58	verb	list	1	4	match	plonger	5	1	p	0.47104
550.4937	0.0	+	58	verb	list	1	5	match	plonger	5	1	p	0.47104
550.8935	0.2	wbn	58	verb	list	1	6	match	plonger	5	1	p	0.47104
551.0934	0.0	+	58	verb	list	1	7	match	plonger	5	1	p	0.47104
551.4932	0.2	gxhcj	58	verb	list	1	8	match	plonger	5	1	p	0.47104
551.6931	0.0	+	58	verb	list	1	9	match	plonger	5	1	p	0.47104
552.093	0.2	plonger	58	verb	list	1	10	match	plonger	5	1	p	0.47104
552.2929	0.0	+	58	verb	list	1	11	match	plonger	5	1	p	0.47104
552.6927000000001	0.0	+	58	verb	list	1	12	match	plonger	5	1	p	0.47104
554.6918000000001	0.0	PLONGER	58	verb	list	1	13	match	plonger	5	1	p	0.47104
555.2249	0.0	+	58	verb	list	1	14	match	plonger	5	1	p	0.47104
555.1628000000001	0.0	[response]	58	verb	list	1	15	match	plonger	5	1	p	0.47104
557.0907	0.0	+	59	verb	phrase	1	1	nomatch	peut	-1	1	y	0.5431
557.6405	0.2	nbkqt	59	verb	phrase	1	2	nomatch	peut	-1	1	y	0.5431
557.8404	0.0	+	59	verb	phrase	1	3	nomatch	peut	-1	1	y	0.5431
558.2402	0.2	dkcf	59	verb	phrase	1	4	nomatch	peut	-1	1	y	0.5431
558.4401	0.0	+	59	verb	phrase	1	5	nomatch	peut	-1	1	y	0.5431
558.8399000000001	0.2	th	59	verb	phrase	1	6	nomatch	peut	-1	1	y	0.5431
559.0398	0.0	+	59	verb	phrase	1	7	nomatch	peut	-1	1	y	0.5431
559.4397	0.2	ndvhcg	59	verb	phrase	1	8	nomatch	peut	-1	1	y	0.5431
559.6396	0.0	+	59	verb	phrase	1	9	nomatch	peut	-1	1	y	0.5431
560.0394	0.2	loin	59	verb	phrase	1	10	nomatch	peut	-1	1	y	0.5431
560.2393	0.0	+	59	verb	phrase	1	11	nomatch	peut	-1	1	y	0.5431
560.6391	0.0	+	59	verb	phrase	1	12	nomatch	peut	-1	1	y	0.5431
562.6382	0.0	PEUT	59	verb	phrase	1	13	nomatch	peut	-1	1	y	0.5431
563.238	0.0	+	59	verb	phrase	1	14	nomatch	peut	-1	1	y	0.5431
563.1813	0.0	[response]	59	verb	phrase	1	15	nomatch	peut	-1	1	y	0.5431
565.0372	0.0	+	60	verb	list	4	1	match	bleu	5	1	p	0.58022
565.5869	0.2	hmbxcf	60	verb	list	4	2	match	bleu	5	1	p	0.58022
565.7868	0.0	+	60	verb	list	4	3	match	bleu	5	1	p	0.58022
566.1867	0.2	jade	60	verb	list	4	4	match	bleu	5	1	p	0.58022
566.3866	0.0	+	60	verb	list	4	5	match	bleu	5	1	p	0.58022
566.7864	0.2	mon	60	verb	list	4	6	match	bleu	5	1	p	0.58022
566.9863	0.0	+	60	verb	list	4	7	match	bleu	5	1	p	0.58022
567.3861	0.2	plonger	60	verb	list	4	8	match	bleu	5	1	p	0.58022
567.586	0.0	+	60	verb	list	4	9	match	bleu	5	1	p	0.58022
567.9859	0.2	bleu	60	verb	list	4	10	match	bleu	5	1	p	0.58022
568.1858	0.0	+	60	verb	list	4	11	match	bleu	5	1	p	0.58022
568.5856	0.0	+	60	verb	list	4	12	match	bleu	5	1	p	0.58022
570.5847	0.0	BLEU	60	verb	list	4	13	match	bleu	5	1	p	0.58022
571.2177	0.0	+	60	verb	list	4	14	match	bleu	5	1	p	0.58022
571.1649	0.0	[response]	60	verb	list	4	15	match	bleu	5	1	p	0.58022
572.9836	0.0	+	61	verb	list	1	1	nomatch	vieux	-1	1	y	0.86561
573.55	0.2	fvgjlnc	61	verb	list	1	2	nomatch	vieux	-1	1	y	0.86561
573.75	0.0	+	61	verb	list	1	3	nomatch	vieux	-1	1	y	0.86561
574.1498	0.2	skml	61	verb	list	1	4	nomatch	vieux	-1	1	y	0.86561
574.3497	0.0	+	61	verb	list	1	5	nomatch	vieux	-1	1	y	0.86561
574.7495	0.2	th	61	verb	list	1	6	nomatch	vieux	-1	1	y	0.86561
574.9494	0.0	+	61	verb	list	1	7	nomatch	vieux	-1	1	y	0.86561
575.3492	0.2	fqxgj	61	verb	list	1	8	nomatch	vieux	-1	1	y	0.86561
575.5491	0.0	+	61	verb	list	1	9	nomatch	vieux	-1	1	y	0.86561
575.949	0.2	nager	61	verb	list	1	10	nomatch	vieux	-1	1	y	0.86561
576.1489	0.0	+	61	verb	list	1	11	nomatch	vieux	-1	1	y	0.86561
576.5487	0.0	+	61	verb	list	1	12	nomatch	vieux	-1	1	y	0.86561
578.5478	0.0	VIEUX	61	verb	list	1	13	nomatch	vieux	-1	1	y	0.86561
579.4807	0.0	+	61	verb	list	1	14	nomatch	vieux	-1	1	y	0.86561
579.4134	0.0	[response]	61	verb	list	1	15	nomatch	vieux	-1	1	y	0.86561
588.9432	0.0	+	62	verb	phrase	1	1	nomatch	loin	-1	1	y	0.57859
589.4929	0.2	khl	62	verb	phrase	1	2	nomatch	loin	-1	1	y	0.57859
589.6928	0.0	+	62	verb	phrase	1	3	nomatch	loin	-1	1	y	0.57859
590.0926000000001	0.2	qrkg	62	verb	phrase	1	4	nomatch	loin	-1	1	y	0.57859
590.2926	0.0	+	62	verb	phrase	1	5	nomatch	loin	-1	1	y	0.57859
590.6924	0.2	vcpx	62	verb	phrase	1	6	nomatch	loin	-1	1	y	0.57859
590.8923	0.0	+	62	verb	phrase	1	7	nomatch	loin	-1	1	y	0.57859
591.2921	0.2	zlnqhjt	62	verb	phrase	1	8	nomatch	loin	-1	1	y	0.57859
591.492	0.0	+	62	verb	phrase	1	9	nomatch	loin	-1	1	y	0.57859
591.8918	0.2	tôt	62	verb	phrase	1	10	nomatch	loin	-1	1	y	0.57859
592.0917000000001	0.0	+	62	verb	phrase	1	11	nomatch	loin	-1	1	y	0.57859
592.4916	0.0	+	62	verb	phrase	1	12	nomatch	loin	-1	1	y	0.57859
594.4907000000001	0.0	LOIN	62	verb	phrase	1	13	nomatch	loin	-1	1	y	0.57859
595.1237	0.0	+	62	verb	phrase	1	14	nomatch	loin	-1	1	y	0.57859
595.0693	0.0	[response]	62	verb	phrase	1	15	nomatch	loin	-1	1	y	0.57859
596.8896	0.0	+	63	verb	phrase	1	1	nomatch	nouveau	-1	1	y	0.6558700000000001
597.4394	0.2	twn	63	verb	phrase	1	2	nomatch	nouveau	-1	1	y	0.6558700000000001
597.6393	0.0	+	63	verb	phrase	1	3	nomatch	nouveau	-1	1	y	0.6558700000000001
598.0391	0.2	dkcf	63	verb	phrase	1	4	nomatch	nouveau	-1	1	y	0.6558700000000001
598.2391	0.0	+	63	verb	phrase	1	5	nomatch	nouveau	-1	1	y	0.6558700000000001
598.6388000000001	0.2	fhjp	63	verb	phrase	1	6	nomatch	nouveau	-1	1	y	0.6558700000000001
598.8387	0.0	+	63	verb	phrase	1	7	nomatch	nouveau	-1	1	y	0.6558700000000001
599.2386	0.2	ndvhcg	63	verb	phrase	1	8	nomatch	nouveau	-1	1	y	0.6558700000000001
599.4385	0.0	+	63	verb	phrase	1	9	nomatch	nouveau	-1	1	y	0.6558700000000001
599.8383	0.2	beaucoup	63	verb	phrase	1	10	nomatch	nouveau	-1	1	y	0.6558700000000001
600.0382	0.0	+	63	verb	phrase	1	11	nomatch	nouveau	-1	1	y	0.6558700000000001
600.438	0.0	+	63	verb	phrase	1	12	nomatch	nouveau	-1	1	y	0.6558700000000001
602.4371	0.0	NOUVEAU	63	verb	phrase	1	13	nomatch	nouveau	-1	1	y	0.6558700000000001
603.1535	0.0	+	63	verb	phrase	1	14	nomatch	nouveau	-1	1	y	0.6558700000000001
603.093	0.0	[response]	63	verb	phrase	1	15	nomatch	nouveau	-1	1	y	0.6558700000000001
604.8361	0.0	+	64	verb	list	3	1	nomatch	yves	-1	1	y	0.5396000000000001
605.3858	0.2	zspm	64	verb	list	3	2	nomatch	yves	-1	1	y	0.5396000000000001
605.5858	0.0	+	64	verb	list	3	3	nomatch	yves	-1	1	y	0.5396000000000001
605.9855	0.2	nlxv	64	verb	list	3	4	nomatch	yves	-1	1	y	0.5396000000000001
606.1855	0.0	+	64	verb	list	3	5	nomatch	yves	-1	1	y	0.5396000000000001
606.5853	0.2	son	64	verb	list	3	6	nomatch	yves	-1	1	y	0.5396000000000001
606.7852	0.0	+	64	verb	list	3	7	nomatch	yves	-1	1	y	0.5396000000000001
607.1850000000001	0.2	patiner	64	verb	list	3	8	nomatch	yves	-1	1	y	0.5396000000000001
607.3849	0.0	+	64	verb	list	3	9	nomatch	yves	-1	1	y	0.5396000000000001
607.7847	0.2	bleu	64	verb	list	3	10	nomatch	yves	-1	1	y	0.5396000000000001
607.9847	0.0	+	64	verb	list	3	11	nomatch	yves	-1	1	y	0.5396000000000001
608.3845	0.0	+	64	verb	list	3	12	nomatch	yves	-1	1	y	0.5396000000000001
610.3836	0.0	YVES	64	verb	list	3	13	nomatch	yves	-1	1	y	0.5396000000000001
610.9833	0.0	+	64	verb	list	3	14	nomatch	yves	-1	1	y	0.5396000000000001
610.9232	0.0	[response]	64	verb	list	3	15	nomatch	yves	-1	1	y	0.5396000000000001
612.7992	0.0	+	65	verb	list	1	1	match	vieux	5	1	p	1.209
613.3489	0.2	nlsr	65	verb	list	1	2	match	vieux	5	1	p	1.209
613.5488	0.0	+	65	verb	list	1	3	match	vieux	5	1	p	1.209
613.9487	0.2	skml	65	verb	list	1	4	match	vieux	5	1	p	1.209
614.1493	0.0	+	65	verb	list	1	5	match	vieux	5	1	p	1.209
614.5484	0.2	fhjp	65	verb	list	1	6	match	vieux	5	1	p	1.209
614.7483	0.0	+	65	verb	list	1	7	match	vieux	5	1	p	1.209
615.1481	0.2	tsqpr	65	verb	list	1	8	match	vieux	5	1	p	1.209
615.348	0.0	+	65	verb	list	1	9	match	vieux	5	1	p	1.209
615.7479	0.2	vieux	65	verb	list	1	10	match	vieux	5	1	p	1.209
615.9478	0.0	+	65	verb	list	1	11	match	vieux	5	1	p	1.209
616.3476	0.0	+	65	verb	list	1	12	match	vieux	5	1	p	1.209
618.3467	0.0	VIEUX	65	verb	list	1	13	match	vieux	5	1	p	1.209
619.6128	0.0	+	65	verb	list	1	14	match	vieux	5	1	p	1.209
619.5557000000001	0.0	[response]	65	verb	list	1	15	match	vieux	5	1	p	1.209
620.7456	0.0	+	66	noun	phrase	1	1	match	casier	5	1	p	0.41265
621.2954	0.2	rzhgn	66	noun	phrase	1	2	match	casier	5	1	p	0.41265
621.4953	0.0	+	66	noun	phrase	1	3	match	casier	5	1	p	0.41265
621.8951	0.2	jsgh	66	noun	phrase	1	4	match	casier	5	1	p	0.41265
622.095	0.0	+	66	noun	phrase	1	5	match	casier	5	1	p	0.41265
622.4948	0.2	smdc	66	noun	phrase	1	6	match	casier	5	1	p	0.41265
622.6948	0.0	+	66	noun	phrase	1	7	match	casier	5	1	p	0.41265
623.0946	0.2	gxhcj	66	noun	phrase	1	8	match	casier	5	1	p	0.41265
623.2945	0.0	+	66	noun	phrase	1	9	match	casier	5	1	p	0.41265
623.6943	0.2	casier	66	noun	phrase	1	10	match	casier	5	1	p	0.41265
623.8942	0.0	+	66	noun	phrase	1	11	match	casier	5	1	p	0.41265
624.294	0.0	+	66	noun	phrase	1	12	match	casier	5	1	p	0.41265
626.2931	0.0	CASIER	66	noun	phrase	1	13	match	casier	5	1	p	0.41265
626.7596	0.0	+	66	noun	phrase	1	14	match	casier	5	1	p	0.41265
626.7058	0.0	[response]	66	noun	phrase	1	15	match	casier	5	1	p	0.41265
628.6921	0.0	+	67	verb	phrase	1	1	match	danser	5	1	p	0.45008
629.2421	0.2	vml	67	verb	phrase	1	2	match	danser	5	1	p	0.45008
629.4418000000001	0.0	+	67	verb	phrase	1	3	match	danser	5	1	p	0.45008
629.8416	0.2	qrkg	67	verb	phrase	1	4	match	danser	5	1	p	0.45008
630.0415	0.0	+	67	verb	phrase	1	5	match	danser	5	1	p	0.45008
630.4413	0.2	vcpx	67	verb	phrase	1	6	match	danser	5	1	p	0.45008
630.6412	0.0	+	67	verb	phrase	1	7	match	danser	5	1	p	0.45008
631.041	0.2	mgvq	67	verb	phrase	1	8	match	danser	5	1	p	0.45008
631.2409	0.0	+	67	verb	phrase	1	9	match	danser	5	1	p	0.45008
631.6408	0.2	danser	67	verb	phrase	1	10	match	danser	5	1	p	0.45008
631.8407	0.0	+	67	verb	phrase	1	11	match	danser	5	1	p	0.45008
632.2405	0.0	+	67	verb	phrase	1	12	match	danser	5	1	p	0.45008
634.2396	0.0	DANSER	67	verb	phrase	1	13	match	danser	5	1	p	0.45008
634.756	0.0	+	67	verb	phrase	1	14	match	danser	5	1	p	0.45008
634.6897	0.0	[response]	67	verb	phrase	1	15	match	danser	5	1	p	0.45008
636.6385	0.0	+	68	verb	list	1	1	match	nager	5	1	p	0.42092
637.1883	0.2	pfqvgrl	68	verb	list	1	2	match	nager	5	1	p	0.42092
637.3882	0.0	+	68	verb	list	1	3	match	nager	5	1	p	0.42092
637.788	0.2	nlxv	68	verb	list	1	4	match	nager	5	1	p	0.42092
637.9879	0.0	+	68	verb	list	1	5	match	nager	5	1	p	0.42092
638.3878	0.2	smdc	68	verb	list	1	6	match	nager	5	1	p	0.42092
638.5877	0.0	+	68	verb	list	1	7	match	nager	5	1	p	0.42092
638.9875	0.2	jxbp	68	verb	list	1	8	match	nager	5	1	p	0.42092
639.1874	0.0	+	68	verb	list	1	9	match	nager	5	1	p	0.42092
639.5872	0.2	nager	68	verb	list	1	10	match	nager	5	1	p	0.42092
639.7871	0.0	+	68	verb	list	1	11	match	nager	5	1	p	0.42092
640.1869	0.0	+	68	verb	list	1	12	match	nager	5	1	p	0.42092
642.186	0.0	NAGER	68	verb	list	1	13	match	nager	5	1	p	0.42092
642.6692	0.0	+	68	verb	list	1	14	match	nager	5	1	p	0.42092
642.607	0.0	[response]	68	verb	list	1	15	match	nager	5	1	p	0.42092
652.5981	0.0	+	69	verb	phrase	1	1	nomatch	sur	-1	1	y	0.69433
653.1478	0.2	mcz	69	verb	phrase	1	2	nomatch	sur	-1	1	y	0.69433
653.3477	0.0	+	69	verb	phrase	1	3	nomatch	sur	-1	1	y	0.69433
653.7476	0.2	nfzp	69	verb	phrase	1	4	nomatch	sur	-1	1	y	0.69433
653.9475	0.0	+	69	verb	phrase	1	5	nomatch	sur	-1	1	y	0.69433
654.3473	0.2	fhjp	69	verb	phrase	1	6	nomatch	sur	-1	1	y	0.69433
654.5472	0.0	+	69	verb	phrase	1	7	nomatch	sur	-1	1	y	0.69433
654.947	0.2	tsqpr	69	verb	phrase	1	8	nomatch	sur	-1	1	y	0.69433
655.1469	0.0	+	69	verb	phrase	1	9	nomatch	sur	-1	1	y	0.69433
655.5468	0.2	trop	69	verb	phrase	1	10	nomatch	sur	-1	1	y	0.69433
655.7467	0.0	+	69	verb	phrase	1	11	nomatch	sur	-1	1	y	0.69433
656.1465000000001	0.0	+	69	verb	phrase	1	12	nomatch	sur	-1	1	y	0.69433
658.1457	0.0	SUR	69	verb	phrase	1	13	nomatch	sur	-1	1	y	0.69433
658.8953	0.0	+	69	verb	phrase	1	14	nomatch	sur	-1	1	y	0.69433
658.84	0.0	[response]	69	verb	phrase	1	15	nomatch	sur	-1	1	y	0.69433
668.541	0.0	+	70	verb	phrase	1	1	match	plus	5	1	p	0.6441100000000001
669.0907	0.2	btwpn	70	verb	phrase	1	2	match	plus	5	1	p	0.6441100000000001
669.2906	0.0	+	70	verb	phrase	1	3	match	plus	5	1	p	0.6441100000000001
669.6904	0.2	nlxv	70	verb	phrase	1	4	match	plus	5	1	p	0.6441100000000001
669.8904	0.0	+	70	verb	phrase	1	5	match	plus	5	1	p	0.6441100000000001
670.2902	0.2	vcpx	70	verb	phrase	1	6	match	plus	5	1	p	0.6441100000000001
670.4901	0.0	+	70	verb	phrase	1	7	match	plus	5	1	p	0.6441100000000001
670.8899	0.2	sbldhkp	70	verb	phrase	1	8	match	plus	5	1	p	0.6441100000000001
671.0898	0.0	+	70	verb	phrase	1	9	match	plus	5	1	p	0.6441100000000001
671.4896	0.2	plus	70	verb	phrase	1	10	match	plus	5	1	p	0.6441100000000001
671.6895	0.0	+	70	verb	phrase	1	11	match	plus	5	1	p	0.6441100000000001
672.0894	0.0	+	70	verb	phrase	1	12	match	plus	5	1	p	0.6441100000000001
674.0885	0.0	PLUS	70	verb	phrase	1	13	match	plus	5	1	p	0.6441100000000001
674.7882	0.0	+	70	verb	phrase	1	14	match	plus	5	1	p	0.6441100000000001
674.7326	0.0	[response]	70	verb	phrase	1	15	match	plus	5	1	p	0.6441100000000001
676.4874	0.0	+	71	noun	phrase	2	1	nomatch	dans	-1	1	y	0.56859
677.0372	0.2	xcfgjkv	71	noun	phrase	2	2	nomatch	dans	-1	1	y	0.56859
677.2373	0.0	+	71	noun	phrase	2	3	nomatch	dans	-1	1	y	0.56859
677.6369	0.2	dkjf	71	noun	phrase	2	4	nomatch	dans	-1	1	y	0.56859
677.8368	0.0	+	71	noun	phrase	2	5	nomatch	dans	-1	1	y	0.56859
678.2366	0.2	hjw	71	noun	phrase	2	6	nomatch	dans	-1	1	y	0.56859
678.4365	0.0	+	71	noun	phrase	2	7	nomatch	dans	-1	1	y	0.56859
678.8364	0.2	beau	71	noun	phrase	2	8	nomatch	dans	-1	1	y	0.56859
679.0363	0.0	+	71	noun	phrase	2	9	nomatch	dans	-1	1	y	0.56859
679.4361	0.2	grenier	71	noun	phrase	2	10	nomatch	dans	-1	1	y	0.56859
679.636	0.0	+	71	noun	phrase	2	11	nomatch	dans	-1	1	y	0.56859
680.0358	0.0	+	71	noun	phrase	2	12	nomatch	dans	-1	1	y	0.56859
682.0349	0.0	DANS	71	noun	phrase	2	13	nomatch	dans	-1	1	y	0.56859
682.668	0.0	+	71	noun	phrase	2	14	nomatch	dans	-1	1	y	0.56859
682.6035000000002	0.0	[response]	71	noun	phrase	2	15	nomatch	dans	-1	1	y	0.56859
684.4338	0.0	+	72	verb	list	1	1	match	bleu	5	1	p	0.42907
684.9837	0.2	zbvdm	72	verb	list	1	2	match	bleu	5	1	p	0.42907
685.1835	0.0	+	72	verb	list	1	3	match	bleu	5	1	p	0.42907
685.6	0.2	dkcf	72	verb	list	1	4	match	bleu	5	1	p	0.42907
685.7999	0.0	+	72	verb	list	1	5	match	bleu	5	1	p	0.42907
686.1997	0.2	wbn	72	verb	list	1	6	match	bleu	5	1	p	0.42907
686.3996	0.0	+	72	verb	list	1	7	match	bleu	5	1	p	0.42907
686.7995	0.2	zlnqhjt	72	verb	list	1	8	match	bleu	5	1	p	0.42907
686.9994	0.0	+	72	verb	list	1	9	match	bleu	5	1	p	0.42907
687.3992	0.2	bleu	72	verb	list	1	10	match	bleu	5	1	p	0.42907
687.5991	0.0	+	72	verb	list	1	11	match	bleu	5	1	p	0.42907
687.9989	0.0	+	72	verb	list	1	12	match	bleu	5	1	p	0.42907
689.998	0.0	BLEU	72	verb	list	1	13	match	bleu	5	1	p	0.42907
690.4812000000001	0.0	+	72	verb	list	1	14	match	bleu	5	1	p	0.42907
690.4271	0.0	[response]	72	verb	list	1	15	match	bleu	5	1	p	0.42907
692.397	0.0	+	73	verb	phrase	1	1	match	nager	5	1	p	0.42045
692.9467	0.2	szrgc	73	verb	phrase	1	2	match	nager	5	1	p	0.42045
693.1467	0.0	+	73	verb	phrase	1	3	match	nager	5	1	p	0.42045
693.5465	0.2	nfzp	73	verb	phrase	1	4	match	nager	5	1	p	0.42045
693.7464	0.0	+	73	verb	phrase	1	5	match	nager	5	1	p	0.42045
694.1462	0.2	fhjp	73	verb	phrase	1	6	match	nager	5	1	p	0.42045
694.3461	0.0	+	73	verb	phrase	1	7	match	nager	5	1	p	0.42045
694.7459	0.2	wsrl	73	verb	phrase	1	8	match	nager	5	1	p	0.42045
694.9458	0.0	+	73	verb	phrase	1	9	match	nager	5	1	p	0.42045
695.3456	0.2	nager	73	verb	phrase	1	10	match	nager	5	1	p	0.42045
695.5456	0.0	+	73	verb	phrase	1	11	match	nager	5	1	p	0.42045
695.9454	0.0	+	73	verb	phrase	1	12	match	nager	5	1	p	0.42045
697.9445000000001	0.0	NAGER	73	verb	phrase	1	13	match	nager	5	1	p	0.42045
698.4276	0.0	+	73	verb	phrase	1	14	match	nager	5	1	p	0.42045
698.3649	0.0	[response]	73	verb	phrase	1	15	match	nager	5	1	p	0.42045
700.3434	0.0	+	74	verb	phrase	2	1	nomatch	va	-1	1	y	0.59806
700.8932	0.2	qwthg	74	verb	phrase	2	2	nomatch	va	-1	1	y	0.59806
701.0931	0.0	+	74	verb	phrase	2	3	nomatch	va	-1	1	y	0.59806
701.4929	0.2	lnqh	74	verb	phrase	2	4	nomatch	va	-1	1	y	0.59806
701.6928	0.0	+	74	verb	phrase	2	5	nomatch	va	-1	1	y	0.59806
702.0926000000001	0.2	vcpx	74	verb	phrase	2	6	nomatch	va	-1	1	y	0.59806
702.2926	0.0	+	74	verb	phrase	2	7	nomatch	va	-1	1	y	0.59806
702.6924	0.2	patiner	74	verb	phrase	2	8	nomatch	va	-1	1	y	0.59806
702.8923	0.0	+	74	verb	phrase	2	9	nomatch	va	-1	1	y	0.59806
703.2921	0.2	vite	74	verb	phrase	2	10	nomatch	va	-1	1	y	0.59806
703.492	0.0	+	74	verb	phrase	2	11	nomatch	va	-1	1	y	0.59806
703.8918	0.0	+	74	verb	phrase	2	12	nomatch	va	-1	1	y	0.59806
705.8909	0.0	VA	74	verb	phrase	2	13	nomatch	va	-1	1	y	0.59806
706.5406	0.0	+	74	verb	phrase	2	14	nomatch	va	-1	1	y	0.59806
706.489	0.0	[response]	74	verb	phrase	2	15	nomatch	va	-1	1	y	0.59806
708.2899	0.0	+	75	verb	list	4	1	match	beau	4	1	p	0.56552
708.8396	0.2	zhqvx	75	verb	list	4	2	match	beau	4	1	p	0.56552
709.0395	0.0	+	75	verb	list	4	3	match	beau	4	1	p	0.56552
709.4394	0.2	vers	75	verb	list	4	4	match	beau	4	1	p	0.56552
709.6393	0.0	+	75	verb	list	4	5	match	beau	4	1	p	0.56552
710.0391	0.2	peut	75	verb	list	4	6	match	beau	4	1	p	0.56552
710.239	0.0	+	75	verb	list	4	7	match	beau	4	1	p	0.56552
710.6388000000001	0.2	beau	75	verb	list	4	8	match	beau	4	1	p	0.56552
710.8387	0.0	+	75	verb	list	4	9	match	beau	4	1	p	0.56552
711.2386	0.2	plonger	75	verb	list	4	10	match	beau	4	1	p	0.56552
711.4385	0.0	+	75	verb	list	4	11	match	beau	4	1	p	0.56552
711.8383	0.0	+	75	verb	list	4	12	match	beau	4	1	p	0.56552
713.8374	0.0	BEAU	75	verb	list	4	13	match	beau	4	1	p	0.56552
714.4704	0.0	+	75	verb	list	4	14	match	beau	4	1	p	0.56552
714.4029	0.0	[response]	75	verb	list	4	15	match	beau	4	1	p	0.56552
716.2363	0.0	+	76	verb	list	3	1	nomatch	sans	-1	1	y	0.60689
716.7861	0.2	pkgjqxr	76	verb	list	3	2	nomatch	sans	-1	1	y	0.60689
716.986	0.0	+	76	verb	list	3	3	nomatch	sans	-1	1	y	0.60689
717.3858	0.2	qrdf	76	verb	list	3	4	nomatch	sans	-1	1	y	0.60689
717.5857	0.0	+	76	verb	list	3	5	nomatch	sans	-1	1	y	0.60689
717.9855	0.2	doit	76	verb	list	3	6	nomatch	sans	-1	1	y	0.60689
718.1854	0.0	+	76	verb	list	3	7	nomatch	sans	-1	1	y	0.60689
718.5853	0.2	petit	76	verb	list	3	8	nomatch	sans	-1	1	y	0.60689
718.7852	0.0	+	76	verb	list	3	9	nomatch	sans	-1	1	y	0.60689
719.1850000000001	0.2	patiner	76	verb	list	3	10	nomatch	sans	-1	1	y	0.60689
719.3849	0.0	+	76	verb	list	3	11	nomatch	sans	-1	1	y	0.60689
719.7847	0.0	+	76	verb	list	3	12	nomatch	sans	-1	1	y	0.60689
721.7838	0.0	SANS	76	verb	list	3	13	nomatch	sans	-1	1	y	0.60689
722.4502	0.0	+	76	verb	list	3	14	nomatch	sans	-1	1	y	0.60689
722.3907	0.0	[response]	76	verb	list	3	15	nomatch	sans	-1	1	y	0.60689
732.1959	0.0	+	77	noun	list	3	1	match	boîtier	5	1	p	0.75475
732.7456	0.2	gzxscr	77	noun	list	3	2	match	boîtier	5	1	p	0.75475
732.9455	0.0	+	77	noun	list	3	3	match	boîtier	5	1	p	0.75475
733.3453	0.2	nfzp	77	noun	list	3	4	match	boîtier	5	1	p	0.75475
733.5453	0.0	+	77	noun	list	3	5	match	boîtier	5	1	p	0.75475
733.9451	0.2	mon	77	noun	list	3	6	match	boîtier	5	1	p	0.75475
734.145	0.0	+	77	noun	list	3	7	match	boîtier	5	1	p	0.75475
734.5448	0.2	trop	77	noun	list	3	8	match	boîtier	5	1	p	0.75475
734.7447	0.0	+	77	noun	list	3	9	match	boîtier	5	1	p	0.75475
735.1445	0.2	boîtier	77	noun	list	3	10	match	boîtier	5	1	p	0.75475
735.3445	0.0	+	77	noun	list	3	11	match	boîtier	5	1	p	0.75475
735.7443	0.0	+	77	noun	list	3	12	match	boîtier	5	1	p	0.75475
737.7434	0.0	BOÎTIER	77	noun	list	3	13	match	boîtier	5	1	p	0.75475
738.5597	0.0	+	77	noun	list	3	14	match	boîtier	5	1	p	0.75475
738.4981000000001	0.0	[response]	77	noun	list	3	15	match	boîtier	5	1	p	0.75475
740.1423	0.0	+	78	verb	phrase	1	1	nomatch	blanc	-1	1	y	0.48304
740.6921	0.2	rmktgs	78	verb	phrase	1	2	nomatch	blanc	-1	1	y	0.48304
740.892	0.0	+	78	verb	phrase	1	3	nomatch	blanc	-1	1	y	0.48304
741.2918	0.2	dkcf	78	verb	phrase	1	4	nomatch	blanc	-1	1	y	0.48304
741.4917	0.0	+	78	verb	phrase	1	5	nomatch	blanc	-1	1	y	0.48304
741.8915	0.2	vcpx	78	verb	phrase	1	6	nomatch	blanc	-1	1	y	0.48304
742.0914	0.0	+	78	verb	phrase	1	7	nomatch	blanc	-1	1	y	0.48304
742.4913	0.2	sbldhkp	78	verb	phrase	1	8	nomatch	blanc	-1	1	y	0.48304
742.6912	0.0	+	78	verb	phrase	1	9	nomatch	blanc	-1	1	y	0.48304
743.091	0.2	tôt	78	verb	phrase	1	10	nomatch	blanc	-1	1	y	0.48304
743.2909	0.0	+	78	verb	phrase	1	11	nomatch	blanc	-1	1	y	0.48304
743.6907	0.0	+	78	verb	phrase	1	12	nomatch	blanc	-1	1	y	0.48304
745.6898	0.0	BLANC	78	verb	phrase	1	13	nomatch	blanc	-1	1	y	0.48304
746.2396	0.0	+	78	verb	phrase	1	14	nomatch	blanc	-1	1	y	0.48304
746.1729	0.0	[response]	78	verb	phrase	1	15	nomatch	blanc	-1	1	y	0.48304
748.0888	0.0	+	79	noun	list	1	1	match	voilier	5	1	p	0.41366
748.6385	0.2	dshbnw	79	noun	list	1	2	match	voilier	5	1	p	0.41366
748.8384	0.0	+	79	noun	list	1	3	match	voilier	5	1	p	0.41366
749.2384	0.2	cqx	79	noun	list	1	4	match	voilier	5	1	p	0.41366
749.4382	0.0	+	79	noun	list	1	5	match	voilier	5	1	p	0.41366
749.838	0.2	wbn	79	noun	list	1	6	match	voilier	5	1	p	0.41366
750.0379	0.0	+	79	noun	list	1	7	match	voilier	5	1	p	0.41366
750.4377	0.2	wsrl	79	noun	list	1	8	match	voilier	5	1	p	0.41366
750.6376	0.0	+	79	noun	list	1	9	match	voilier	5	1	p	0.41366
751.0374	0.2	voilier	79	noun	list	1	10	match	voilier	5	1	p	0.41366
751.2373	0.0	+	79	noun	list	1	11	match	voilier	5	1	p	0.41366
751.6372	0.0	+	79	noun	list	1	12	match	voilier	5	1	p	0.41366
753.6363	0.0	VOILIER	79	noun	list	1	13	match	voilier	5	1	p	0.41366
754.1027	0.0	+	79	noun	list	1	14	match	voilier	5	1	p	0.41366
754.05	0.0	[response]	79	noun	list	1	15	match	voilier	5	1	p	0.41366
756.0352	0.0	+	80	verb	list	4	1	match	voyager	4	1	p	0.3923
756.585	0.2	bqfhg	80	verb	list	4	2	match	voyager	4	1	p	0.3923
756.7849	0.0	+	80	verb	list	4	3	match	voyager	4	1	p	0.3923
757.1847	0.2	marc	80	verb	list	4	4	match	voyager	4	1	p	0.3923
757.3846	0.0	+	80	verb	list	4	5	match	voyager	4	1	p	0.3923
757.7846	0.2	son	80	verb	list	4	6	match	voyager	4	1	p	0.3923
757.9843	0.0	+	80	verb	list	4	7	match	voyager	4	1	p	0.3923
758.3842	0.2	voyager	80	verb	list	4	8	match	voyager	4	1	p	0.3923
758.5841	0.0	+	80	verb	list	4	9	match	voyager	4	1	p	0.3923
758.9839	0.2	bleu	80	verb	list	4	10	match	voyager	4	1	p	0.3923
759.1838	0.0	+	80	verb	list	4	11	match	voyager	4	1	p	0.3923
759.5836	0.0	+	80	verb	list	4	12	match	voyager	4	1	p	0.3923
761.5994000000001	0.0	VOYAGER	80	verb	list	4	13	match	voyager	4	1	p	0.3923
762.0492	0.0	+	80	verb	list	4	14	match	voyager	4	1	p	0.3923
763.9983	0.0	+	80	verb	list	4	15	match	voyager	4	1	p	0.3923
786.7049	0.0	+	80	verb	list	4	16	match	voyager	4	1	p	0.3923
761.9917	0.0	[response]	80	verb	list	4	17	match	voyager	4	1	p	0.3923
