onset	duration	stim	trial_number	trial_type	trial_structure	trial_length	sequential_position	probe_type	probe	probe_position	response_correct	response_key	response_time
0.06530000000000058	0.0	+	1	noun	phrase	2	1	match	panier	4	1	y	0.48934
0.5484000000000009	0.2	dpbkj	1	noun	phrase	2	2	match	panier	4	1	y	0.48934
0.7483000000000004	0.0	+	1	noun	phrase	2	3	match	panier	4	1	y	0.48934
1.1480999999999995	0.2	mkg	1	noun	phrase	2	4	match	panier	4	1	y	0.48934
1.347999999999999	0.0	+	1	noun	phrase	2	5	match	panier	4	1	y	0.48934
1.7479000000000013	0.2	dmf	1	noun	phrase	2	6	match	panier	4	1	y	0.48934
1.9478000000000009	0.0	+	1	noun	phrase	2	7	match	panier	4	1	y	0.48934
2.3476	0.2	panier	1	noun	phrase	2	8	match	panier	4	1	y	0.48934
2.5474999999999994	0.0	+	1	noun	phrase	2	9	match	panier	4	1	y	0.48934
2.9472999999999985	0.2	blanc	1	noun	phrase	2	10	match	panier	4	1	y	0.48934
3.1473000000000013	0.0	+	1	noun	phrase	2	11	match	panier	4	1	y	0.48934
3.5471000000000004	0.0	+	1	noun	phrase	2	12	match	panier	4	1	y	0.48934
5.546199999999999	0.0	PANIER	1	noun	phrase	2	13	match	panier	4	1	y	0.48934
6.0959	0.0	+	1	noun	phrase	2	14	match	panier	4	1	y	0.48934
6.035499999999999	0.0	[response]	1	noun	phrase	2	15	match	panier	4	1	y	0.48934
7.9450999999999965	0.0	+	2	noun	list	4	1	nomatch	peut	-1	1	p	0.5884300000000001
8.494900000000001	0.2	wqds	2	noun	list	4	2	nomatch	peut	-1	1	p	0.5884300000000001
8.6948	0.0	+	2	noun	list	4	3	nomatch	peut	-1	1	p	0.5884300000000001
9.0946	0.2	marc	2	noun	list	4	4	nomatch	peut	-1	1	p	0.5884300000000001
9.2945	0.0	+	2	noun	list	4	5	nomatch	peut	-1	1	p	0.5884300000000001
9.694399999999995	0.2	leur	2	noun	list	4	6	nomatch	peut	-1	1	p	0.5884300000000001
9.894300000000001	0.0	+	2	noun	list	4	7	nomatch	peut	-1	1	p	0.5884300000000001
10.2941	0.2	moins	2	noun	list	4	8	nomatch	peut	-1	1	p	0.5884300000000001
10.494499999999995	0.0	+	2	noun	list	4	9	nomatch	peut	-1	1	p	0.5884300000000001
10.893799999999999	0.2	rocher	2	noun	list	4	10	nomatch	peut	-1	1	p	0.5884300000000001
11.093799999999995	0.0	+	2	noun	list	4	11	nomatch	peut	-1	1	p	0.5884300000000001
11.4936	0.0	+	2	noun	list	4	12	nomatch	peut	-1	1	p	0.5884300000000001
13.4927	0.0	PEUT	2	noun	list	4	13	nomatch	peut	-1	1	p	0.5884300000000001
14.142399999999995	0.0	+	2	noun	list	4	14	nomatch	peut	-1	1	p	0.5884300000000001
14.081099999999992	0.0	[response]	2	noun	list	4	15	nomatch	peut	-1	1	p	0.5884300000000001
15.891599999999997	0.0	+	3	noun	list	2	1	match	panier	4	1	y	0.5785
16.4414	0.2	cvd	3	noun	list	2	2	match	panier	4	1	y	0.5785
16.6413	0.0	+	3	noun	list	2	3	match	panier	4	1	y	0.5785
17.0411	0.2	pcms	3	noun	list	2	4	match	panier	4	1	y	0.5785
17.241	0.0	+	3	noun	list	2	5	match	panier	4	1	y	0.5785
17.640900000000002	0.2	px	3	noun	list	2	6	match	panier	4	1	y	0.5785
17.8408	0.0	+	3	noun	list	2	7	match	panier	4	1	y	0.5785
18.2406	0.2	panier	3	noun	list	2	8	match	panier	4	1	y	0.5785
18.4405	0.0	+	3	noun	list	2	9	match	panier	4	1	y	0.5785
18.8403	0.2	ainsi	3	noun	list	2	10	match	panier	4	1	y	0.5785
19.040300000000002	0.0	+	3	noun	list	2	11	match	panier	4	1	y	0.5785
19.4401	0.0	+	3	noun	list	2	12	match	panier	4	1	y	0.5785
21.4392	0.0	PANIER	3	noun	list	2	13	match	panier	4	1	y	0.5785
22.0723	0.0	+	3	noun	list	2	14	match	panier	4	1	y	0.5785
22.017700000000005	0.0	[response]	3	noun	list	2	15	match	panier	4	1	y	0.5785
23.8382	0.0	+	4	noun	phrase	3	1	nomatch	jongler	-1	1	p	0.53914
24.387900000000002	0.2	vrw	4	noun	phrase	3	2	nomatch	jongler	-1	1	p	0.53914
24.5878	0.0	+	4	noun	phrase	3	3	nomatch	jongler	-1	1	p	0.53914
24.9876	0.2	fqnb	4	noun	phrase	3	4	nomatch	jongler	-1	1	p	0.53914
25.1875	0.0	+	4	noun	phrase	3	5	nomatch	jongler	-1	1	p	0.53914
25.587400000000002	0.2	son	4	noun	phrase	3	6	nomatch	jongler	-1	1	p	0.53914
25.787300000000002	0.0	+	4	noun	phrase	3	7	nomatch	jongler	-1	1	p	0.53914
26.1871	0.2	casier	4	noun	phrase	3	8	nomatch	jongler	-1	1	p	0.53914
26.387	0.0	+	4	noun	phrase	3	9	nomatch	jongler	-1	1	p	0.53914
26.7868	0.2	rouge	4	noun	phrase	3	10	nomatch	jongler	-1	1	p	0.53914
26.986800000000002	0.0	+	4	noun	phrase	3	11	nomatch	jongler	-1	1	p	0.53914
27.3866	0.0	+	4	noun	phrase	3	12	nomatch	jongler	-1	1	p	0.53914
29.3857	0.0	JONGLER	4	noun	phrase	3	13	nomatch	jongler	-1	1	p	0.53914
29.9854	0.0	+	4	noun	phrase	3	14	nomatch	jongler	-1	1	p	0.53914
29.924899999999994	0.0	[response]	4	noun	phrase	3	15	nomatch	jongler	-1	1	p	0.53914
31.7847	0.0	+	5	verb	list	1	1	nomatch	peut	-1	1	p	0.6253
32.3344	0.2	qkw	5	verb	list	1	2	nomatch	peut	-1	1	p	0.6253
32.5343	0.0	+	5	verb	list	1	3	nomatch	peut	-1	1	p	0.6253
32.9341	0.2	mkg	5	verb	list	1	4	nomatch	peut	-1	1	p	0.6253
33.134100000000004	0.0	+	5	verb	list	1	5	nomatch	peut	-1	1	p	0.6253
33.5339	0.2	px	5	verb	list	1	6	nomatch	peut	-1	1	p	0.6253
33.7338	0.0	+	5	verb	list	1	7	nomatch	peut	-1	1	p	0.6253
34.1336	0.2	khlmr	5	verb	list	1	8	nomatch	peut	-1	1	p	0.6253
34.333600000000004	0.0	+	5	verb	list	1	9	nomatch	peut	-1	1	p	0.6253
34.75	0.2	chasser	5	verb	list	1	10	nomatch	peut	-1	1	p	0.6253
34.9499	0.0	+	5	verb	list	1	11	nomatch	peut	-1	1	p	0.6253
35.3497	0.0	+	5	verb	list	1	12	nomatch	peut	-1	1	p	0.6253
37.3489	0.0	PEUT	5	verb	list	1	13	nomatch	peut	-1	1	p	0.6253
38.03189999999999	0.0	+	5	verb	list	1	14	nomatch	peut	-1	1	p	0.6253
37.974199999999996	0.0	[response]	5	verb	list	1	15	nomatch	peut	-1	1	p	0.6253
39.7478	0.0	+	6	verb	phrase	1	1	match	moins	5	1	y	0.46977
40.2976	0.2	bvj	6	verb	phrase	1	2	match	moins	5	1	y	0.46977
40.4975	0.0	+	6	verb	phrase	1	3	match	moins	5	1	y	0.46977
40.8973	0.2	qnpz	6	verb	phrase	1	4	match	moins	5	1	y	0.46977
41.0972	0.0	+	6	verb	phrase	1	5	match	moins	5	1	y	0.46977
41.497	0.2	drzp	6	verb	phrase	1	6	match	moins	5	1	y	0.46977
41.6969	0.0	+	6	verb	phrase	1	7	match	moins	5	1	y	0.46977
42.0968	0.2	cpwvrdq	6	verb	phrase	1	8	match	moins	5	1	y	0.46977
42.2967	0.0	+	6	verb	phrase	1	9	match	moins	5	1	y	0.46977
42.6965	0.2	moins	6	verb	phrase	1	10	match	moins	5	1	y	0.46977
42.8964	0.0	+	6	verb	phrase	1	11	match	moins	5	1	y	0.46977
43.2962	0.0	+	6	verb	phrase	1	12	match	moins	5	1	y	0.46977
45.2954	0.0	MOINS	6	verb	phrase	1	13	match	moins	5	1	y	0.46977
45.82849999999999	0.0	+	6	verb	phrase	1	14	match	moins	5	1	y	0.46977
45.765100000000004	0.0	[response]	6	verb	phrase	1	15	match	moins	5	1	y	0.46977
55.690799999999996	0.0	+	7	noun	phrase	2	1	nomatch	vert	-1	1	p	0.52959
56.2405	0.2	spfbmhz	7	noun	phrase	2	2	nomatch	vert	-1	1	p	0.52959
56.4405	0.0	+	7	noun	phrase	2	3	nomatch	vert	-1	1	p	0.52959
56.8403	0.2	prkz	7	noun	phrase	2	4	nomatch	vert	-1	1	p	0.52959
57.0402	0.0	+	7	noun	phrase	2	5	nomatch	vert	-1	1	p	0.52959
57.44	0.2	dmf	7	noun	phrase	2	6	nomatch	vert	-1	1	p	0.52959
57.6399	0.0	+	7	noun	phrase	2	7	nomatch	vert	-1	1	p	0.52959
58.0398	0.2	rocher	7	noun	phrase	2	8	nomatch	vert	-1	1	p	0.52959
58.2397	0.0	+	7	noun	phrase	2	9	nomatch	vert	-1	1	p	0.52959
58.6395	0.2	noir	7	noun	phrase	2	10	nomatch	vert	-1	1	p	0.52959
58.8394	0.0	+	7	noun	phrase	2	11	nomatch	vert	-1	1	p	0.52959
59.2392	0.0	+	7	noun	phrase	2	12	nomatch	vert	-1	1	p	0.52959
61.2384	0.0	VERT	7	noun	phrase	2	13	nomatch	vert	-1	1	p	0.52959
61.8214	0.0	+	7	noun	phrase	2	14	nomatch	vert	-1	1	p	0.52959
61.7679	0.0	[response]	7	noun	phrase	2	15	nomatch	vert	-1	1	p	0.52959
63.637299999999996	0.0	+	8	verb	phrase	4	1	match	voyager	5	1	y	0.65231
64.1871	0.2	fcqdt	8	verb	phrase	4	2	match	voyager	5	1	y	0.65231
64.387	0.0	+	8	verb	phrase	4	3	match	voyager	5	1	y	0.65231
64.7868	0.2	marc	8	verb	phrase	4	4	match	voyager	5	1	y	0.65231
64.9867	0.0	+	8	verb	phrase	4	5	match	voyager	5	1	y	0.65231
65.3865	0.2	peut	8	verb	phrase	4	6	match	voyager	5	1	y	0.65231
65.5864	0.0	+	8	verb	phrase	4	7	match	voyager	5	1	y	0.65231
65.9863	0.2	moins	8	verb	phrase	4	8	match	voyager	5	1	y	0.65231
66.1862	0.0	+	8	verb	phrase	4	9	match	voyager	5	1	y	0.65231
66.586	0.2	voyager	8	verb	phrase	4	10	match	voyager	5	1	y	0.65231
66.7859	0.0	+	8	verb	phrase	4	11	match	voyager	5	1	y	0.65231
67.1857	0.0	+	8	verb	phrase	4	12	match	voyager	5	1	y	0.65231
69.1849	0.0	VOYAGER	8	verb	phrase	4	13	match	voyager	5	1	y	0.65231
69.9012	0.0	+	8	verb	phrase	4	14	match	voyager	5	1	y	0.65231
69.8372	0.0	[response]	8	verb	phrase	4	15	match	voyager	5	1	y	0.65231
79.59689999999999	0.0	+	9	verb	list	1	1	match	plonger	5	1	y	0.462
80.1467	0.2	dhtsjm	9	verb	list	1	2	match	plonger	5	1	y	0.462
80.34660000000001	0.0	+	9	verb	list	1	3	match	plonger	5	1	y	0.462
80.74640000000001	0.2	qnpz	9	verb	list	1	4	match	plonger	5	1	y	0.462
80.9464	0.0	+	9	verb	list	1	5	match	plonger	5	1	y	0.462
81.3462	0.2	hls	9	verb	list	1	6	match	plonger	5	1	y	0.462
81.54610000000001	0.0	+	9	verb	list	1	7	match	plonger	5	1	y	0.462
81.94590000000001	0.2	qzjs	9	verb	list	1	8	match	plonger	5	1	y	0.462
82.1458	0.0	+	9	verb	list	1	9	match	plonger	5	1	y	0.462
82.5456	0.2	plonger	9	verb	list	1	10	match	plonger	5	1	y	0.462
82.74560000000001	0.0	+	9	verb	list	1	11	match	plonger	5	1	y	0.462
83.14540000000001	0.0	+	9	verb	list	1	12	match	plonger	5	1	y	0.462
85.14450000000001	0.0	PLONGER	9	verb	list	1	13	match	plonger	5	1	y	0.462
85.66089999999998	0.0	+	9	verb	list	1	14	match	plonger	5	1	y	0.462
85.6065	0.0	[response]	9	verb	list	1	15	match	plonger	5	1	y	0.462
87.54350000000001	0.0	+	10	noun	phrase	2	1	match	vert	5	1	y	0.46974000000000005
88.09320000000001	0.2	pwk	10	noun	phrase	2	2	match	vert	5	1	y	0.46974000000000005
88.2931	0.0	+	10	noun	phrase	2	3	match	vert	5	1	y	0.46974000000000005
88.6929	0.2	wksm	10	noun	phrase	2	4	match	vert	5	1	y	0.46974000000000005
88.89290000000001	0.0	+	10	noun	phrase	2	5	match	vert	5	1	y	0.46974000000000005
89.29270000000001	0.2	gzps	10	noun	phrase	2	6	match	vert	5	1	y	0.46974000000000005
89.4926	0.0	+	10	noun	phrase	2	7	match	vert	5	1	y	0.46974000000000005
89.8924	0.2	grenier	10	noun	phrase	2	8	match	vert	5	1	y	0.46974000000000005
90.09230000000001	0.0	+	10	noun	phrase	2	9	match	vert	5	1	y	0.46974000000000005
90.49210000000001	0.2	vert	10	noun	phrase	2	10	match	vert	5	1	y	0.46974000000000005
90.6921	0.0	+	10	noun	phrase	2	11	match	vert	5	1	y	0.46974000000000005
91.0919	0.0	+	10	noun	phrase	2	12	match	vert	5	1	y	0.46974000000000005
93.091	0.0	VERT	10	noun	phrase	2	13	match	vert	5	1	y	0.46974000000000005
93.62409999999998	0.0	+	10	noun	phrase	2	14	match	vert	5	1	y	0.46974000000000005
93.56079999999999	0.0	[response]	10	noun	phrase	2	15	match	vert	5	1	y	0.46974000000000005
95.48989999999999	0.0	+	11	noun	phrase	1	1	nomatch	grand	-1	1	p	0.52264
96.0397	0.2	gqrv	11	noun	phrase	1	2	nomatch	grand	-1	1	p	0.52264
96.23960000000001	0.0	+	11	noun	phrase	1	3	nomatch	grand	-1	1	p	0.52264
96.63940000000001	0.2	gbph	11	noun	phrase	1	4	nomatch	grand	-1	1	p	0.52264
96.8394	0.0	+	11	noun	phrase	1	5	nomatch	grand	-1	1	p	0.52264
97.2392	0.2	hls	11	noun	phrase	1	6	nomatch	grand	-1	1	p	0.52264
97.43910000000001	0.0	+	11	noun	phrase	1	7	nomatch	grand	-1	1	p	0.52264
97.83890000000001	0.2	jdfbnzg	11	noun	phrase	1	8	nomatch	grand	-1	1	p	0.52264
98.0388	0.0	+	11	noun	phrase	1	9	nomatch	grand	-1	1	p	0.52264
98.4387	0.2	nouveau	11	noun	phrase	1	10	nomatch	grand	-1	1	p	0.52264
98.63860000000001	0.0	+	11	noun	phrase	1	11	nomatch	grand	-1	1	p	0.52264
99.03840000000001	0.0	+	11	noun	phrase	1	12	nomatch	grand	-1	1	p	0.52264
101.03750000000001	0.0	GRAND	11	noun	phrase	1	13	nomatch	grand	-1	1	p	0.52264
101.62060000000001	0.0	+	11	noun	phrase	1	14	nomatch	grand	-1	1	p	0.52264
101.56009999999999	0.0	[response]	11	noun	phrase	1	15	nomatch	grand	-1	1	p	0.52264
103.43650000000001	0.0	+	12	noun	list	3	1	nomatch	mon	-1	1	p	0.95739
103.98620000000001	0.2	lmgn	12	noun	list	3	2	nomatch	mon	-1	1	p	0.95739
104.1861	0.0	+	12	noun	list	3	3	nomatch	mon	-1	1	p	0.95739
104.5859	0.2	sbgt	12	noun	list	3	4	nomatch	mon	-1	1	p	0.95739
104.78580000000001	0.0	+	12	noun	list	3	5	nomatch	mon	-1	1	p	0.95739
105.18570000000001	0.2	leur	12	noun	list	3	6	nomatch	mon	-1	1	p	0.95739
105.3856	0.0	+	12	noun	list	3	7	nomatch	mon	-1	1	p	0.95739
105.7854	0.2	trop	12	noun	list	3	8	nomatch	mon	-1	1	p	0.95739
105.98530000000001	0.0	+	12	noun	list	3	9	nomatch	mon	-1	1	p	0.95739
106.38520000000001	0.2	panier	12	noun	list	3	10	nomatch	mon	-1	1	p	0.95739
106.5851	0.0	+	12	noun	list	3	11	nomatch	mon	-1	1	p	0.95739
106.9849	0.0	+	12	noun	list	3	12	nomatch	mon	-1	1	p	0.95739
108.984	0.0	MON	12	noun	list	3	13	nomatch	mon	-1	1	p	0.95739
110.00019999999999	0.0	+	12	noun	list	3	14	nomatch	mon	-1	1	p	0.95739
109.9414	0.0	[response]	12	noun	list	3	15	nomatch	mon	-1	1	p	0.95739
111.3996	0.0	+	13	noun	phrase	2	1	match	rocher	5	1	y	0.46086000000000005
111.94940000000001	0.2	gztfcv	13	noun	phrase	2	2	match	rocher	5	1	y	0.46086000000000005
112.1493	0.0	+	13	noun	phrase	2	3	match	rocher	5	1	y	0.46086000000000005
112.5491	0.2	wksm	13	noun	phrase	2	4	match	rocher	5	1	y	0.46086000000000005
112.74900000000001	0.0	+	13	noun	phrase	2	5	match	rocher	5	1	y	0.46086000000000005
113.14880000000001	0.2	gzps	13	noun	phrase	2	6	match	rocher	5	1	y	0.46086000000000005
113.3488	0.0	+	13	noun	phrase	2	7	match	rocher	5	1	y	0.46086000000000005
113.7486	0.2	nouveau	13	noun	phrase	2	8	match	rocher	5	1	y	0.46086000000000005
113.94850000000001	0.0	+	13	noun	phrase	2	9	match	rocher	5	1	y	0.46086000000000005
114.34830000000001	0.2	rocher	13	noun	phrase	2	10	match	rocher	5	1	y	0.46086000000000005
114.5482	0.0	+	13	noun	phrase	2	11	match	rocher	5	1	y	0.46086000000000005
114.9481	0.0	+	13	noun	phrase	2	12	match	rocher	5	1	y	0.46086000000000005
116.9472	0.0	ROCHER	13	noun	phrase	2	13	match	rocher	5	1	y	0.46086000000000005
117.4636	0.0	+	13	noun	phrase	2	14	match	rocher	5	1	y	0.46086000000000005
117.40800000000003	0.0	[response]	13	noun	phrase	2	15	match	rocher	5	1	y	0.46086000000000005
119.34609999999999	0.0	+	14	noun	list	1	1	nomatch	leur	-1	1	p	0.5963400000000001
119.8959	0.2	sndh	14	noun	list	1	2	nomatch	leur	-1	1	p	0.5963400000000001
120.09580000000001	0.0	+	14	noun	list	1	3	nomatch	leur	-1	1	p	0.5963400000000001
120.49560000000001	0.2	fqnb	14	noun	list	1	4	nomatch	leur	-1	1	p	0.5963400000000001
120.6955	0.0	+	14	noun	list	1	5	nomatch	leur	-1	1	p	0.5963400000000001
121.0954	0.2	xlrj	14	noun	list	1	6	nomatch	leur	-1	1	p	0.5963400000000001
121.29530000000001	0.0	+	14	noun	list	1	7	nomatch	leur	-1	1	p	0.5963400000000001
121.69510000000001	0.2	rtkdmh	14	noun	list	1	8	nomatch	leur	-1	1	p	0.5963400000000001
121.895	0.0	+	14	noun	list	1	9	nomatch	leur	-1	1	p	0.5963400000000001
122.2948	0.2	vite	14	noun	list	1	10	nomatch	leur	-1	1	p	0.5963400000000001
122.49470000000001	0.0	+	14	noun	list	1	11	nomatch	leur	-1	1	p	0.5963400000000001
122.89460000000001	0.0	+	14	noun	list	1	12	nomatch	leur	-1	1	p	0.5963400000000001
124.89370000000001	0.0	LEUR	14	noun	list	1	13	nomatch	leur	-1	1	p	0.5963400000000001
125.5434	0.0	+	14	noun	list	1	14	nomatch	leur	-1	1	p	0.5963400000000001
125.49	0.0	[response]	14	noun	list	1	15	nomatch	leur	-1	1	p	0.5963400000000001
127.29260000000001	0.0	+	15	noun	list	3	1	match	tard	5	1	y	0.49463
127.84240000000001	0.2	jmvrx	15	noun	list	3	2	match	tard	5	1	y	0.49463
128.0423	0.0	+	15	noun	list	3	3	match	tard	5	1	y	0.49463
128.44209999999998	0.2	nrlk	15	noun	list	3	4	match	tard	5	1	y	0.49463
128.642	0.0	+	15	noun	list	3	5	match	tard	5	1	y	0.49463
129.04180000000002	0.2	va	15	noun	list	3	6	match	tard	5	1	y	0.49463
129.2418	0.0	+	15	noun	list	3	7	match	tard	5	1	y	0.49463
129.64159999999998	0.2	grenier	15	noun	list	3	8	match	tard	5	1	y	0.49463
129.8415	0.0	+	15	noun	list	3	9	match	tard	5	1	y	0.49463
130.24130000000002	0.2	tard	15	noun	list	3	10	match	tard	5	1	y	0.49463
130.44119999999998	0.0	+	15	noun	list	3	11	match	tard	5	1	y	0.49463
130.84109999999998	0.0	+	15	noun	list	3	12	match	tard	5	1	y	0.49463
132.84019999999998	0.0	TARD	15	noun	list	3	13	match	tard	5	1	y	0.49463
133.39	0.0	+	15	noun	list	3	14	match	tard	5	1	y	0.49463
133.33479999999997	0.0	[response]	15	noun	list	3	15	match	tard	5	1	y	0.49463
135.2391	0.0	+	16	verb	list	2	1	nomatch	peut	-1	1	p	0.6110700000000001
135.7889	0.2	rmbs	16	verb	list	2	2	nomatch	peut	-1	1	p	0.6110700000000001
135.98880000000003	0.0	+	16	verb	list	2	3	nomatch	peut	-1	1	p	0.6110700000000001
136.3886	0.2	prkz	16	verb	list	2	4	nomatch	peut	-1	1	p	0.6110700000000001
136.5885	0.0	+	16	verb	list	2	5	nomatch	peut	-1	1	p	0.6110700000000001
136.9884	0.2	drzp	16	verb	list	2	6	nomatch	peut	-1	1	p	0.6110700000000001
137.18829999999997	0.0	+	16	verb	list	2	7	nomatch	peut	-1	1	p	0.6110700000000001
137.5881	0.2	nouveau	16	verb	list	2	8	nomatch	peut	-1	1	p	0.6110700000000001
137.788	0.0	+	16	verb	list	2	9	nomatch	peut	-1	1	p	0.6110700000000001
138.18779999999998	0.2	chasser	16	verb	list	2	10	nomatch	peut	-1	1	p	0.6110700000000001
138.3877	0.0	+	16	verb	list	2	11	nomatch	peut	-1	1	p	0.6110700000000001
138.7876	0.0	+	16	verb	list	2	12	nomatch	peut	-1	1	p	0.6110700000000001
140.7867	0.0	PEUT	16	verb	list	2	13	nomatch	peut	-1	1	p	0.6110700000000001
141.4531	0.0	+	16	verb	list	2	14	nomatch	peut	-1	1	p	0.6110700000000001
141.39780000000002	0.0	[response]	16	verb	list	2	15	nomatch	peut	-1	1	p	0.6110700000000001
143.18560000000002	0.0	+	17	noun	list	1	1	nomatch	vite	-1	1	p	0.55216
143.73539999999997	0.2	xpm	17	noun	list	1	2	nomatch	vite	-1	1	p	0.55216
143.93529999999998	0.0	+	17	noun	list	1	3	nomatch	vite	-1	1	p	0.55216
144.3351	0.2	qxvn	17	noun	list	1	4	nomatch	vite	-1	1	p	0.55216
144.53500000000003	0.0	+	17	noun	list	1	5	nomatch	vite	-1	1	p	0.55216
144.93489999999997	0.2	dmf	17	noun	list	1	6	nomatch	vite	-1	1	p	0.55216
145.13479999999998	0.0	+	17	noun	list	1	7	nomatch	vite	-1	1	p	0.55216
145.5346	0.2	mzvpqdcl	17	noun	list	1	8	nomatch	vite	-1	1	p	0.55216
145.73450000000003	0.0	+	17	noun	list	1	9	nomatch	vite	-1	1	p	0.55216
146.1343	0.2	grenier	17	noun	list	1	10	nomatch	vite	-1	1	p	0.55216
146.33429999999998	0.0	+	17	noun	list	1	11	nomatch	vite	-1	1	p	0.55216
146.7341	0.0	+	17	noun	list	1	12	nomatch	vite	-1	1	p	0.55216
148.74990000000003	0.0	VITE	17	noun	list	1	13	nomatch	vite	-1	1	p	0.55216
149.3662	0.0	+	17	noun	list	1	14	nomatch	vite	-1	1	p	0.55216
149.30200000000002	0.0	[response]	17	noun	list	1	15	nomatch	vite	-1	1	p	0.55216
151.1488	0.0	+	18	noun	list	4	1	match	sablier	5	1	y	0.57623
151.69850000000002	0.2	qhkjsp	18	noun	list	4	2	match	sablier	5	1	y	0.57623
151.8985	0.0	+	18	noun	list	4	3	match	sablier	5	1	y	0.57623
152.29829999999998	0.2	marc	18	noun	list	4	4	match	sablier	5	1	y	0.57623
152.4982	0.0	+	18	noun	list	4	5	match	sablier	5	1	y	0.57623
152.89800000000002	0.2	leur	18	noun	list	4	6	match	sablier	5	1	y	0.57623
153.09789999999998	0.0	+	18	noun	list	4	7	match	sablier	5	1	y	0.57623
153.49779999999998	0.2	mieux	18	noun	list	4	8	match	sablier	5	1	y	0.57623
153.6977	0.0	+	18	noun	list	4	9	match	sablier	5	1	y	0.57623
154.09750000000003	0.2	sablier	18	noun	list	4	10	match	sablier	5	1	y	0.57623
154.29739999999998	0.0	+	18	noun	list	4	11	match	sablier	5	1	y	0.57623
154.6972	0.0	+	18	noun	list	4	12	match	sablier	5	1	y	0.57623
156.69639999999998	0.0	SABLIER	18	noun	list	4	13	match	sablier	5	1	y	0.57623
157.32940000000002	0.0	+	18	noun	list	4	14	match	sablier	5	1	y	0.57623
157.2726	0.0	[response]	18	noun	list	4	15	match	sablier	5	1	y	0.57623
159.0953	0.0	+	19	verb	phrase	2	1	nomatch	tard	-1	1	p	0.63676
159.6451	0.2	jhwv	19	verb	phrase	2	2	nomatch	tard	-1	1	p	0.63676
159.84499999999997	0.0	+	19	verb	phrase	2	3	nomatch	tard	-1	1	p	0.63676
160.2448	0.2	dzlw	19	verb	phrase	2	4	nomatch	tard	-1	1	p	0.63676
160.4447	0.0	+	19	verb	phrase	2	5	nomatch	tard	-1	1	p	0.63676
160.84449999999998	0.2	px	19	verb	phrase	2	6	nomatch	tard	-1	1	p	0.63676
161.0444	0.0	+	19	verb	phrase	2	7	nomatch	tard	-1	1	p	0.63676
161.4443	0.2	plonger	19	verb	phrase	2	8	nomatch	tard	-1	1	p	0.63676
161.6442	0.0	+	19	verb	phrase	2	9	nomatch	tard	-1	1	p	0.63676
162.04399999999998	0.2	loin	19	verb	phrase	2	10	nomatch	tard	-1	1	p	0.63676
162.2439	0.0	+	19	verb	phrase	2	11	nomatch	tard	-1	1	p	0.63676
162.64370000000002	0.0	+	19	verb	phrase	2	12	nomatch	tard	-1	1	p	0.63676
164.64280000000002	0.0	TARD	19	verb	phrase	2	13	nomatch	tard	-1	1	p	0.63676
165.34249999999997	0.0	+	19	verb	phrase	2	14	nomatch	tard	-1	1	p	0.63676
165.27960000000002	0.0	[response]	19	verb	phrase	2	15	nomatch	tard	-1	1	p	0.63676
167.04180000000002	0.0	+	20	noun	list	2	1	nomatch	trop	-1	1	p	0.57048
167.59159999999997	0.2	znk	20	noun	list	2	2	nomatch	trop	-1	1	p	0.57048
167.79149999999998	0.0	+	20	noun	list	2	3	nomatch	trop	-1	1	p	0.57048
168.1913	0.2	bml	20	noun	list	2	4	nomatch	trop	-1	1	p	0.57048
168.39120000000003	0.0	+	20	noun	list	2	5	nomatch	trop	-1	1	p	0.57048
168.791	0.2	hls	20	noun	list	2	6	nomatch	trop	-1	1	p	0.57048
168.9909	0.0	+	20	noun	list	2	7	nomatch	trop	-1	1	p	0.57048
169.3908	0.2	moins	20	noun	list	2	8	nomatch	trop	-1	1	p	0.57048
169.59069999999997	0.0	+	20	noun	list	2	9	nomatch	trop	-1	1	p	0.57048
169.9905	0.2	panier	20	noun	list	2	10	nomatch	trop	-1	1	p	0.57048
170.1904	0.0	+	20	noun	list	2	11	nomatch	trop	-1	1	p	0.57048
170.59019999999998	0.0	+	20	noun	list	2	12	nomatch	trop	-1	1	p	0.57048
172.5894	0.0	TROP	20	noun	list	2	13	nomatch	trop	-1	1	p	0.57048
173.2224	0.0	+	20	noun	list	2	14	nomatch	trop	-1	1	p	0.57048
173.15980000000002	0.0	[response]	20	noun	list	2	15	nomatch	trop	-1	1	p	0.57048
174.98829999999998	0.0	+	21	noun	phrase	1	1	match	voilier	5	1	y	0.56655
175.5381	0.2	pbqrlfn	21	noun	phrase	1	2	match	voilier	5	1	y	0.56655
175.7552	0.0	+	21	noun	phrase	1	3	match	voilier	5	1	y	0.56655
176.13779999999997	0.2	mkg	21	noun	phrase	1	4	match	voilier	5	1	y	0.56655
176.33769999999998	0.0	+	21	noun	phrase	1	5	match	voilier	5	1	y	0.56655
176.7375	0.2	gzps	21	noun	phrase	1	6	match	voilier	5	1	y	0.56655
176.93740000000003	0.0	+	21	noun	phrase	1	7	match	voilier	5	1	y	0.56655
177.33729999999997	0.2	bgkvn	21	noun	phrase	1	8	match	voilier	5	1	y	0.56655
177.53719999999998	0.0	+	21	noun	phrase	1	9	match	voilier	5	1	y	0.56655
177.937	0.2	voilier	21	noun	phrase	1	10	match	voilier	5	1	y	0.56655
178.13690000000003	0.0	+	21	noun	phrase	1	11	match	voilier	5	1	y	0.56655
178.5367	0.0	+	21	noun	phrase	1	12	match	voilier	5	1	y	0.56655
180.53589999999997	0.0	VOILIER	21	noun	phrase	1	13	match	voilier	5	1	y	0.56655
181.1689	0.0	+	21	noun	phrase	1	14	match	voilier	5	1	y	0.56655
181.1024	0.0	[response]	21	noun	phrase	1	15	match	voilier	5	1	y	0.56655
182.9348	0.0	+	22	noun	list	1	1	match	tard	5	1	y	0.58804
183.4846	0.2	qltdhbz	22	noun	list	1	2	match	tard	5	1	y	0.58804
183.6845	0.0	+	22	noun	list	1	3	match	tard	5	1	y	0.58804
184.08429999999998	0.2	prkz	22	noun	list	1	4	match	tard	5	1	y	0.58804
184.2842	0.0	+	22	noun	list	1	5	match	tard	5	1	y	0.58804
184.68400000000003	0.2	drzp	22	noun	list	1	6	match	tard	5	1	y	0.58804
184.88389999999998	0.0	+	22	noun	list	1	7	match	tard	5	1	y	0.58804
185.28379999999999	0.2	qxdtsvzr	22	noun	list	1	8	match	tard	5	1	y	0.58804
185.4837	0.0	+	22	noun	list	1	9	match	tard	5	1	y	0.58804
185.8836	0.2	tard	22	noun	list	1	10	match	tard	5	1	y	0.58804
186.1001	0.0	+	22	noun	list	1	11	match	tard	5	1	y	0.58804
186.5005	0.0	+	22	noun	list	1	12	match	tard	5	1	y	0.58804
188.49970000000002	0.0	TARD	22	noun	list	1	13	match	tard	5	1	y	0.58804
189.14870000000002	0.0	+	22	noun	list	1	14	match	tard	5	1	y	0.58804
189.08769999999998	0.0	[response]	22	noun	list	1	15	match	tard	5	1	y	0.58804
198.8945	0.0	+	23	verb	list	1	1	nomatch	blanc	-1	1	p	0.70942
199.44420000000002	0.2	wmqrbsh	23	verb	list	1	2	nomatch	blanc	-1	1	p	0.70942
199.64409999999998	0.0	+	23	verb	list	1	3	nomatch	blanc	-1	1	p	0.70942
200.0439	0.2	qxrj	23	verb	list	1	4	nomatch	blanc	-1	1	p	0.70942
200.2439	0.0	+	23	verb	list	1	5	nomatch	blanc	-1	1	p	0.70942
200.64370000000002	0.2	dmf	23	verb	list	1	6	nomatch	blanc	-1	1	p	0.70942
200.84359999999998	0.0	+	23	verb	list	1	7	nomatch	blanc	-1	1	p	0.70942
201.2434	0.2	cpwvrdq	23	verb	list	1	8	nomatch	blanc	-1	1	p	0.70942
201.44330000000002	0.0	+	23	verb	list	1	9	nomatch	blanc	-1	1	p	0.70942
201.84320000000002	0.2	vert	23	verb	list	1	10	nomatch	blanc	-1	1	p	0.70942
202.04309999999998	0.0	+	23	verb	list	1	11	nomatch	blanc	-1	1	p	0.70942
202.4429	0.0	+	23	verb	list	1	12	nomatch	blanc	-1	1	p	0.70942
204.442	0.0	BLANC	23	verb	list	1	13	nomatch	blanc	-1	1	p	0.70942
205.2083	0.0	+	23	verb	list	1	14	nomatch	blanc	-1	1	p	0.70942
205.15140000000002	0.0	[response]	23	verb	list	1	15	nomatch	blanc	-1	1	p	0.70942
206.841	0.0	+	24	noun	list	2	1	nomatch	bleu	-1	1	p	2.33
207.39070000000004	0.2	mztj	24	noun	list	2	2	nomatch	bleu	-1	1	p	2.33
207.5906	0.0	+	24	noun	list	2	3	nomatch	bleu	-1	1	p	2.33
207.9905	0.2	gbph	24	noun	list	2	4	nomatch	bleu	-1	1	p	2.33
208.1904	0.0	+	24	noun	list	2	5	nomatch	bleu	-1	1	p	2.33
208.59020000000004	0.2	drzp	24	noun	list	2	6	nomatch	bleu	-1	1	p	2.33
208.7901	0.0	+	24	noun	list	2	7	nomatch	bleu	-1	1	p	2.33
209.18990000000002	0.2	rocher	24	noun	list	2	8	nomatch	bleu	-1	1	p	2.33
209.38980000000004	0.0	+	24	noun	list	2	9	nomatch	bleu	-1	1	p	2.33
209.7896	0.2	tôt	24	noun	list	2	10	nomatch	bleu	-1	1	p	2.33
209.9896	0.0	+	24	noun	list	2	11	nomatch	bleu	-1	1	p	2.33
210.38940000000002	0.0	+	24	noun	list	2	12	nomatch	bleu	-1	1	p	2.33
212.38850000000002	0.0	BLEU	24	noun	list	2	13	nomatch	bleu	-1	1	p	2.33
214.7708	0.0	+	24	noun	list	2	14	nomatch	bleu	-1	1	p	2.33
214.7185	0.0	[response]	24	noun	list	2	15	nomatch	bleu	-1	1	p	2.33
214.8374	0.0	+	25	verb	phrase	4	1	nomatch	panier	-1	1	p	0.53544
215.3372	0.2	fpkm	25	verb	phrase	4	2	nomatch	panier	-1	1	p	0.53544
215.5371	0.0	+	25	verb	phrase	4	3	nomatch	panier	-1	1	p	0.53544
215.93690000000004	0.2	luc	25	verb	phrase	4	4	nomatch	panier	-1	1	p	0.53544
216.13690000000003	0.0	+	25	verb	phrase	4	5	nomatch	panier	-1	1	p	0.53544
216.5367	0.2	va	25	verb	phrase	4	6	nomatch	panier	-1	1	p	0.53544
216.7366	0.0	+	25	verb	phrase	4	7	nomatch	panier	-1	1	p	0.53544
217.13640000000004	0.2	mieux	25	verb	phrase	4	8	nomatch	panier	-1	1	p	0.53544
217.3363	0.0	+	25	verb	phrase	4	9	nomatch	panier	-1	1	p	0.53544
217.7362	0.2	galoper	25	verb	phrase	4	10	nomatch	panier	-1	1	p	0.53544
217.9361	0.0	+	25	verb	phrase	4	11	nomatch	panier	-1	1	p	0.53544
218.33590000000004	0.0	+	25	verb	phrase	4	12	nomatch	panier	-1	1	p	0.53544
220.33500000000004	0.0	PANIER	25	verb	phrase	4	13	nomatch	panier	-1	1	p	0.53544
220.9348	0.0	+	25	verb	phrase	4	14	nomatch	panier	-1	1	p	0.53544
220.8705	0.0	[response]	25	verb	phrase	4	15	nomatch	panier	-1	1	p	0.53544
222.73400000000004	0.0	+	26	noun	list	1	1	nomatch	peut	-1	1	p	0.55085
223.2837	0.2	xbtpnv	26	noun	list	1	2	nomatch	peut	-1	1	p	0.55085
223.48360000000002	0.0	+	26	noun	list	1	3	nomatch	peut	-1	1	p	0.55085
223.9001	0.2	gbph	26	noun	list	1	4	nomatch	peut	-1	1	p	0.55085
224.10000000000002	0.0	+	26	noun	list	1	5	nomatch	peut	-1	1	p	0.55085
224.49990000000003	0.2	px	26	noun	list	1	6	nomatch	peut	-1	1	p	0.55085
224.69980000000004	0.0	+	26	noun	list	1	7	nomatch	peut	-1	1	p	0.55085
225.0996	0.2	dmkf	26	noun	list	1	8	nomatch	peut	-1	1	p	0.55085
225.29950000000002	0.0	+	26	noun	list	1	9	nomatch	peut	-1	1	p	0.55085
225.6993	0.2	sablier	26	noun	list	1	10	nomatch	peut	-1	1	p	0.55085
225.8992	0.0	+	26	noun	list	1	11	nomatch	peut	-1	1	p	0.55085
226.2991	0.0	+	26	noun	list	1	12	nomatch	peut	-1	1	p	0.55085
228.2982	0.0	PEUT	26	noun	list	1	13	nomatch	peut	-1	1	p	0.55085
228.9146	0.0	+	26	noun	list	1	14	nomatch	peut	-1	1	p	0.55085
228.849	0.0	[response]	26	noun	list	1	15	nomatch	peut	-1	1	p	0.55085
238.6936	0.0	+	27	noun	list	4	1	match	son	3	1	y	0.65988
239.2434	0.2	njrkb	27	noun	list	4	2	match	son	3	1	y	0.65988
239.44330000000002	0.0	+	27	noun	list	4	3	match	son	3	1	y	0.65988
239.8431	0.2	yves	27	noun	list	4	4	match	son	3	1	y	0.65988
240.043	0.0	+	27	noun	list	4	5	match	son	3	1	y	0.65988
240.44280000000003	0.2	son	27	noun	list	4	6	match	son	3	1	y	0.65988
240.64280000000002	0.0	+	27	noun	list	4	7	match	son	3	1	y	0.65988
241.0426	0.2	moins	27	noun	list	4	8	match	son	3	1	y	0.65988
241.2425	0.0	+	27	noun	list	4	9	match	son	3	1	y	0.65988
241.64230000000003	0.2	cendrier	27	noun	list	4	10	match	son	3	1	y	0.65988
241.8422	0.0	+	27	noun	list	4	11	match	son	3	1	y	0.65988
242.24200000000002	0.0	+	27	noun	list	4	12	match	son	3	1	y	0.65988
244.2412	0.0	SON	27	noun	list	4	13	match	son	3	1	y	0.65988
244.95750000000004	0.0	+	27	noun	list	4	14	match	son	3	1	y	0.65988
244.901	0.0	[response]	27	noun	list	4	15	match	son	3	1	y	0.65988
246.64010000000002	0.0	+	28	noun	phrase	3	1	match	beau	4	1	y	0.96231
247.18990000000002	0.2	rtqdpb	28	noun	phrase	3	2	match	beau	4	1	y	0.96231
247.38980000000004	0.0	+	28	noun	phrase	3	3	match	beau	4	1	y	0.96231
247.7896	0.2	mkg	28	noun	phrase	3	4	match	beau	4	1	y	0.96231
247.98950000000002	0.0	+	28	noun	phrase	3	5	match	beau	4	1	y	0.96231
248.3893	0.2	mon	28	noun	phrase	3	6	match	beau	4	1	y	0.96231
248.5892	0.0	+	28	noun	phrase	3	7	match	beau	4	1	y	0.96231
248.9891	0.2	beau	28	noun	phrase	3	8	match	beau	4	1	y	0.96231
249.18900000000002	0.0	+	28	noun	phrase	3	9	match	beau	4	1	y	0.96231
249.5888	0.2	casier	28	noun	phrase	3	10	match	beau	4	1	y	0.96231
249.7887	0.0	+	28	noun	phrase	3	11	match	beau	4	1	y	0.96231
250.18850000000003	0.0	+	28	noun	phrase	3	12	match	beau	4	1	y	0.96231
252.1877	0.0	BEAU	28	noun	phrase	3	13	match	beau	4	1	y	0.96231
253.20390000000003	0.0	+	28	noun	phrase	3	14	match	beau	4	1	y	0.96231
253.1500000000001	0.0	[response]	28	noun	phrase	3	15	match	beau	4	1	y	0.96231
254.58660000000003	0.0	+	29	verb	list	3	1	nomatch	sur	-1	1	p	0.91448
255.13640000000004	0.2	ctxgk	29	verb	list	3	2	nomatch	sur	-1	1	p	0.91448
255.3363	0.0	+	29	verb	list	3	3	nomatch	sur	-1	1	p	0.91448
255.73610000000002	0.2	bml	29	verb	list	3	4	nomatch	sur	-1	1	p	0.91448
255.93600000000004	0.0	+	29	verb	list	3	5	nomatch	sur	-1	1	p	0.91448
256.33590000000004	0.2	leur	29	verb	list	3	6	nomatch	sur	-1	1	p	0.91448
256.5358	0.0	+	29	verb	list	3	7	nomatch	sur	-1	1	p	0.91448
256.9356	0.2	voyager	29	verb	list	3	8	nomatch	sur	-1	1	p	0.91448
257.13550000000004	0.0	+	29	verb	list	3	9	nomatch	sur	-1	1	p	0.91448
257.5353	0.2	bleu	29	verb	list	3	10	nomatch	sur	-1	1	p	0.91448
257.7352	0.0	+	29	verb	list	3	11	nomatch	sur	-1	1	p	0.91448
258.1351	0.0	+	29	verb	list	3	12	nomatch	sur	-1	1	p	0.91448
260.1342	0.0	SUR	29	verb	list	3	13	nomatch	sur	-1	1	p	0.91448
261.10040000000004	0.0	+	29	verb	list	3	14	nomatch	sur	-1	1	p	0.91448
261.0487	0.0	[response]	29	verb	list	3	15	nomatch	sur	-1	1	p	0.91448
262.5498	0.0	+	30	noun	list	3	1	match	tôt	5	1	y	0.71168
263.09950000000003	0.2	vhrmwt	30	noun	list	3	2	match	tôt	5	1	y	0.71168
263.2994	0.0	+	30	noun	list	3	3	match	tôt	5	1	y	0.71168
263.6993	0.2	fqnb	30	noun	list	3	4	match	tôt	5	1	y	0.71168
263.8992	0.0	+	30	noun	list	3	5	match	tôt	5	1	y	0.71168
264.29900000000004	0.2	doit	30	noun	list	3	6	match	tôt	5	1	y	0.71168
264.4989	0.0	+	30	noun	list	3	7	match	tôt	5	1	y	0.71168
264.8987	0.2	tablier	30	noun	list	3	8	match	tôt	5	1	y	0.71168
265.0987	0.0	+	30	noun	list	3	9	match	tôt	5	1	y	0.71168
265.4986	0.2	tôt	30	noun	list	3	10	match	tôt	5	1	y	0.71168
265.6984	0.0	+	30	noun	list	3	11	match	tôt	5	1	y	0.71168
266.0982	0.0	+	30	noun	list	3	12	match	tôt	5	1	y	0.71168
268.0973	0.0	TÔT	30	noun	list	3	13	match	tôt	5	1	y	0.71168
268.8637	0.0	+	30	noun	list	3	14	match	tôt	5	1	y	0.71168
268.809	0.0	[response]	30	noun	list	3	15	match	tôt	5	1	y	0.71168
270.4963	0.0	+	31	noun	phrase	4	1	nomatch	dans	-1	1	p	1.1869
271.046	0.2	lhs	31	noun	phrase	4	2	nomatch	dans	-1	1	p	1.1869
271.2462	0.0	+	31	noun	phrase	4	3	nomatch	dans	-1	1	p	1.1869
271.6458	0.2	vers	31	noun	phrase	4	4	nomatch	dans	-1	1	p	1.1869
271.8457	0.0	+	31	noun	phrase	4	5	nomatch	dans	-1	1	p	1.1869
272.2455	0.2	leur	31	noun	phrase	4	6	nomatch	dans	-1	1	p	1.1869
272.4454	0.0	+	31	noun	phrase	4	7	nomatch	dans	-1	1	p	1.1869
272.84520000000003	0.2	beau	31	noun	phrase	4	8	nomatch	dans	-1	1	p	1.1869
273.0451	0.0	+	31	noun	phrase	4	9	nomatch	dans	-1	1	p	1.1869
273.445	0.2	cendrier	31	noun	phrase	4	10	nomatch	dans	-1	1	p	1.1869
273.6449	0.0	+	31	noun	phrase	4	11	nomatch	dans	-1	1	p	1.1869
274.04470000000003	0.0	+	31	noun	phrase	4	12	nomatch	dans	-1	1	p	1.1869
276.04380000000003	0.0	DANS	31	noun	phrase	4	13	nomatch	dans	-1	1	p	1.1869
277.2933	0.0	+	31	noun	phrase	4	14	nomatch	dans	-1	1	p	1.1869
277.2307	0.0	[response]	31	noun	phrase	4	15	nomatch	dans	-1	1	p	1.1869
278.44280000000003	0.0	+	32	verb	list	3	1	nomatch	mon	-1	1	p	0.83049
278.9927	0.2	qcw	32	verb	list	3	2	nomatch	mon	-1	1	p	0.83049
279.1925	0.0	+	32	verb	list	3	3	nomatch	mon	-1	1	p	0.83049
279.5923	0.2	qxvn	32	verb	list	3	4	nomatch	mon	-1	1	p	0.83049
279.79220000000004	0.0	+	32	verb	list	3	5	nomatch	mon	-1	1	p	0.83049
280.192	0.2	son	32	verb	list	3	6	nomatch	mon	-1	1	p	0.83049
280.3919	0.0	+	32	verb	list	3	7	nomatch	mon	-1	1	p	0.83049
280.7917	0.2	danser	32	verb	list	3	8	nomatch	mon	-1	1	p	0.83049
280.99170000000004	0.0	+	32	verb	list	3	9	nomatch	mon	-1	1	p	0.83049
281.3915	0.2	vert	32	verb	list	3	10	nomatch	mon	-1	1	p	0.83049
281.5914	0.0	+	32	verb	list	3	11	nomatch	mon	-1	1	p	0.83049
281.9912	0.0	+	32	verb	list	3	12	nomatch	mon	-1	1	p	0.83049
283.9903	0.0	MON	32	verb	list	3	13	nomatch	mon	-1	1	p	0.83049
284.87330000000003	0.0	+	32	verb	list	3	14	nomatch	mon	-1	1	p	0.83049
284.8208000000001	0.0	[response]	32	verb	list	3	15	nomatch	mon	-1	1	p	0.83049
286.3893	0.0	+	33	noun	list	4	1	nomatch	grand	-1	1	p	0.93914
286.939	0.2	fkwlbn	33	noun	list	4	2	nomatch	grand	-1	1	p	0.93914
287.139	0.0	+	33	noun	list	4	3	nomatch	grand	-1	1	p	0.93914
287.53880000000004	0.2	dans	33	noun	list	4	4	nomatch	grand	-1	1	p	0.93914
287.7387	0.0	+	33	noun	list	4	5	nomatch	grand	-1	1	p	0.93914
288.1385	0.2	doit	33	noun	list	4	6	nomatch	grand	-1	1	p	0.93914
288.33840000000004	0.0	+	33	noun	list	4	7	nomatch	grand	-1	1	p	0.93914
288.73830000000004	0.2	casier	33	noun	list	4	8	nomatch	grand	-1	1	p	0.93914
288.9382	0.0	+	33	noun	list	4	9	nomatch	grand	-1	1	p	0.93914
289.338	0.2	tard	33	noun	list	4	10	nomatch	grand	-1	1	p	0.93914
289.53790000000004	0.0	+	33	noun	list	4	11	nomatch	grand	-1	1	p	0.93914
289.9377	0.0	+	33	noun	list	4	12	nomatch	grand	-1	1	p	0.93914
291.9368	0.0	GRAND	33	noun	list	4	13	nomatch	grand	-1	1	p	0.93914
292.9364	0.0	+	33	noun	list	4	14	nomatch	grand	-1	1	p	0.93914
292.8760000000001	0.0	[response]	33	noun	list	4	15	nomatch	grand	-1	1	p	0.93914
294.3358	0.0	+	34	verb	list	4	1	match	rouge	5	1	y	0.661
294.8856	0.2	qtvrlg	34	verb	list	4	2	match	rouge	5	1	y	0.661
295.0855	0.0	+	34	verb	list	4	3	match	rouge	5	1	y	0.661
295.4853	0.2	adam	34	verb	list	4	4	match	rouge	5	1	y	0.661
295.6852	0.0	+	34	verb	list	4	5	match	rouge	5	1	y	0.661
296.08500000000004	0.2	son	34	verb	list	4	6	match	rouge	5	1	y	0.661
296.2849	0.0	+	34	verb	list	4	7	match	rouge	5	1	y	0.661
296.6847	0.2	voyager	34	verb	list	4	8	match	rouge	5	1	y	0.661
296.8847	0.0	+	34	verb	list	4	9	match	rouge	5	1	y	0.661
297.28450000000004	0.2	rouge	34	verb	list	4	10	match	rouge	5	1	y	0.661
297.4844	0.0	+	34	verb	list	4	11	match	rouge	5	1	y	0.661
297.8842	0.0	+	34	verb	list	4	12	match	rouge	5	1	y	0.661
299.90000000000003	0.0	ROUGE	34	verb	list	4	13	match	rouge	5	1	y	0.661
300.6164	0.0	+	34	verb	list	4	14	match	rouge	5	1	y	0.661
300.5610000000001	0.0	[response]	34	verb	list	4	15	match	rouge	5	1	y	0.661
302.2989	0.0	+	35	noun	phrase	4	1	nomatch	blanc	-1	1	p	0.71221
302.8487	0.2	kfpbvxj	35	noun	phrase	4	2	nomatch	blanc	-1	1	p	0.71221
303.0486	0.0	+	35	noun	phrase	4	3	nomatch	blanc	-1	1	p	0.71221
303.4484	0.2	vers	35	noun	phrase	4	4	nomatch	blanc	-1	1	p	0.71221
303.64840000000004	0.0	+	35	noun	phrase	4	5	nomatch	blanc	-1	1	p	0.71221
304.0482	0.2	leur	35	noun	phrase	4	6	nomatch	blanc	-1	1	p	0.71221
304.2481	0.0	+	35	noun	phrase	4	7	nomatch	blanc	-1	1	p	0.71221
304.6479	0.2	grenier	35	noun	phrase	4	8	nomatch	blanc	-1	1	p	0.71221
304.8478	0.0	+	35	noun	phrase	4	9	nomatch	blanc	-1	1	p	0.71221
305.2477	0.2	bleu	35	noun	phrase	4	10	nomatch	blanc	-1	1	p	0.71221
305.4476	0.0	+	35	noun	phrase	4	11	nomatch	blanc	-1	1	p	0.71221
305.8474	0.0	+	35	noun	phrase	4	12	nomatch	blanc	-1	1	p	0.71221
307.8465	0.0	BLANC	35	noun	phrase	4	13	nomatch	blanc	-1	1	p	0.71221
308.6128	0.0	+	35	noun	phrase	4	14	nomatch	blanc	-1	1	p	0.71221
308.55870000000004	0.0	[response]	35	noun	phrase	4	15	nomatch	blanc	-1	1	p	0.71221
318.2419	0.0	+	36	noun	list	1	1	nomatch	moins	-1	1	p	0.75829
318.7917	0.2	klj	36	noun	list	1	2	nomatch	moins	-1	1	p	0.75829
318.9916	0.0	+	36	noun	list	1	3	nomatch	moins	-1	1	p	0.75829
319.39140000000003	0.2	xmfn	36	noun	list	1	4	nomatch	moins	-1	1	p	0.75829
319.5913	0.0	+	36	noun	list	1	5	nomatch	moins	-1	1	p	0.75829
319.9912	0.2	gzps	36	noun	list	1	6	nomatch	moins	-1	1	p	0.75829
320.1911	0.0	+	36	noun	list	1	7	nomatch	moins	-1	1	p	0.75829
320.59090000000003	0.2	dqcvwpn	36	noun	list	1	8	nomatch	moins	-1	1	p	0.75829
320.7908	0.0	+	36	noun	list	1	9	nomatch	moins	-1	1	p	0.75829
321.1906	0.2	mieux	36	noun	list	1	10	nomatch	moins	-1	1	p	0.75829
321.3906	0.0	+	36	noun	list	1	11	nomatch	moins	-1	1	p	0.75829
321.79040000000003	0.0	+	36	noun	list	1	12	nomatch	moins	-1	1	p	0.75829
323.78950000000003	0.0	MOINS	36	noun	list	1	13	nomatch	moins	-1	1	p	0.75829
324.6058	0.0	+	36	noun	list	1	14	nomatch	moins	-1	1	p	0.75829
324.5478	0.0	[response]	36	noun	list	1	15	nomatch	moins	-1	1	p	0.75829
326.1884	0.0	+	37	noun	phrase	4	1	nomatch	leur	-1	1	p	1.2935
326.7382	0.2	kxsmhzt	37	noun	phrase	4	2	nomatch	leur	-1	1	p	1.2935
326.9381	0.0	+	37	noun	phrase	4	3	nomatch	leur	-1	1	p	1.2935
327.3379	0.2	sur	37	noun	phrase	4	4	nomatch	leur	-1	1	p	1.2935
327.53790000000004	0.0	+	37	noun	phrase	4	5	nomatch	leur	-1	1	p	1.2935
327.9377	0.2	son	37	noun	phrase	4	6	nomatch	leur	-1	1	p	1.2935
328.1376	0.0	+	37	noun	phrase	4	7	nomatch	leur	-1	1	p	1.2935
328.5374	0.2	beau	37	noun	phrase	4	8	nomatch	leur	-1	1	p	1.2935
328.7373	0.0	+	37	noun	phrase	4	9	nomatch	leur	-1	1	p	1.2935
329.13710000000003	0.2	panier	37	noun	phrase	4	10	nomatch	leur	-1	1	p	1.2935
329.337	0.0	+	37	noun	phrase	4	11	nomatch	leur	-1	1	p	1.2935
329.7369	0.0	+	37	noun	phrase	4	12	nomatch	leur	-1	1	p	1.2935
331.736	0.0	LEUR	37	noun	phrase	4	13	nomatch	leur	-1	1	p	1.2935
333.0854	0.0	+	37	noun	phrase	4	14	nomatch	leur	-1	1	p	1.2935
333.0295	0.0	[response]	37	noun	phrase	4	15	nomatch	leur	-1	1	p	1.2935
334.1349	0.0	+	38	verb	phrase	4	1	nomatch	sans	-1	1	p	0.59302
334.6847	0.2	hvcs	38	verb	phrase	4	2	nomatch	sans	-1	1	p	0.59302
334.88460000000003	0.0	+	38	verb	phrase	4	3	nomatch	sans	-1	1	p	0.59302
335.2844	0.2	jean	38	verb	phrase	4	4	nomatch	sans	-1	1	p	0.59302
335.4844	0.0	+	38	verb	phrase	4	5	nomatch	sans	-1	1	p	0.59302
335.8842	0.2	doit	38	verb	phrase	4	6	nomatch	sans	-1	1	p	0.59302
336.08410000000003	0.0	+	38	verb	phrase	4	7	nomatch	sans	-1	1	p	0.59302
336.4839	0.2	parader	38	verb	phrase	4	8	nomatch	sans	-1	1	p	0.59302
336.6838	0.0	+	38	verb	phrase	4	9	nomatch	sans	-1	1	p	0.59302
337.0837	0.2	vite	38	verb	phrase	4	10	nomatch	sans	-1	1	p	0.59302
337.28360000000004	0.0	+	38	verb	phrase	4	11	nomatch	sans	-1	1	p	0.59302
337.7	0.0	+	38	verb	phrase	4	12	nomatch	sans	-1	1	p	0.59302
339.6992	0.0	SANS	38	verb	phrase	4	13	nomatch	sans	-1	1	p	0.59302
340.3489	0.0	+	38	verb	phrase	4	14	nomatch	sans	-1	1	p	0.59302
340.29220000000004	0.0	[response]	38	verb	phrase	4	15	nomatch	sans	-1	1	p	0.59302
342.0981	0.0	+	39	noun	phrase	1	1	nomatch	sablier	-1	1	p	0.63625
342.6479	0.2	fcwjh	39	noun	phrase	1	2	nomatch	sablier	-1	1	p	0.63625
342.8478	0.0	+	39	noun	phrase	1	3	nomatch	sablier	-1	1	p	0.63625
343.24760000000003	0.2	mkg	39	noun	phrase	1	4	nomatch	sablier	-1	1	p	0.63625
343.4475	0.0	+	39	noun	phrase	1	5	nomatch	sablier	-1	1	p	0.63625
343.8473	0.2	gzps	39	noun	phrase	1	6	nomatch	sablier	-1	1	p	0.63625
344.0473	0.0	+	39	noun	phrase	1	7	nomatch	sablier	-1	1	p	0.63625
344.44710000000003	0.2	kjhb	39	noun	phrase	1	8	nomatch	sablier	-1	1	p	0.63625
344.647	0.0	+	39	noun	phrase	1	9	nomatch	sablier	-1	1	p	0.63625
345.0468	0.2	rocher	39	noun	phrase	1	10	nomatch	sablier	-1	1	p	0.63625
345.24670000000003	0.0	+	39	noun	phrase	1	11	nomatch	sablier	-1	1	p	0.63625
345.6465	0.0	+	39	noun	phrase	1	12	nomatch	sablier	-1	1	p	0.63625
347.64570000000003	0.0	SABLIER	39	noun	phrase	1	13	nomatch	sablier	-1	1	p	0.63625
348.3454	0.0	+	39	noun	phrase	1	14	nomatch	sablier	-1	1	p	0.63625
348.2819	0.0	[response]	39	noun	phrase	1	15	nomatch	sablier	-1	1	p	0.63625
350.0446	0.0	+	40	verb	list	1	1	match	grand	5	1	y	0.5748800000000001
350.5944	0.2	nlzmbx	40	verb	list	1	2	match	grand	5	1	y	0.5748800000000001
350.7943	0.0	+	40	verb	list	1	3	match	grand	5	1	y	0.5748800000000001
351.1941	0.2	wksm	40	verb	list	1	4	match	grand	5	1	y	0.5748800000000001
351.394	0.0	+	40	verb	list	1	5	match	grand	5	1	y	0.5748800000000001
351.79380000000003	0.2	drzp	40	verb	list	1	6	match	grand	5	1	y	0.5748800000000001
351.9937	0.0	+	40	verb	list	1	7	match	grand	5	1	y	0.5748800000000001
352.3936	0.2	cpsqfjd	40	verb	list	1	8	match	grand	5	1	y	0.5748800000000001
352.5935	0.0	+	40	verb	list	1	9	match	grand	5	1	y	0.5748800000000001
352.99330000000003	0.2	grand	40	verb	list	1	10	match	grand	5	1	y	0.5748800000000001
353.1932	0.0	+	40	verb	list	1	11	match	grand	5	1	y	0.5748800000000001
353.593	0.0	+	40	verb	list	1	12	match	grand	5	1	y	0.5748800000000001
355.5922	0.0	GRAND	40	verb	list	1	13	match	grand	5	1	y	0.5748800000000001
356.22520000000003	0.0	+	40	verb	list	1	14	match	grand	5	1	y	0.5748800000000001
356.1671	0.0	[response]	40	verb	list	1	15	match	grand	5	1	y	0.5748800000000001
357.9911	0.0	+	41	noun	list	1	1	match	moins	5	1	y	0.65219
358.5409	0.2	kzxj	41	noun	list	1	2	match	moins	5	1	y	0.65219
358.74080000000004	0.0	+	41	noun	list	1	3	match	moins	5	1	y	0.65219
359.1406	0.2	sbgt	41	noun	list	1	4	match	moins	5	1	y	0.65219
359.3405	0.0	+	41	noun	list	1	5	match	moins	5	1	y	0.65219
359.7403	0.2	gzps	41	noun	list	1	6	match	moins	5	1	y	0.65219
359.9402	0.0	+	41	noun	list	1	7	match	moins	5	1	y	0.65219
360.3401	0.2	phkctnl	41	noun	list	1	8	match	moins	5	1	y	0.65219
360.54	0.0	+	41	noun	list	1	9	match	moins	5	1	y	0.65219
360.9398	0.2	moins	41	noun	list	1	10	match	moins	5	1	y	0.65219
361.1397	0.0	+	41	noun	list	1	11	match	moins	5	1	y	0.65219
361.5396	0.0	+	41	noun	list	1	12	match	moins	5	1	y	0.65219
363.5387	0.0	MOINS	41	noun	list	1	13	match	moins	5	1	y	0.65219
364.255	0.0	+	41	noun	list	1	14	match	moins	5	1	y	0.65219
364.19090000000006	0.0	[response]	41	noun	list	1	15	match	moins	5	1	y	0.65219
365.93760000000003	0.0	+	42	verb	list	3	1	nomatch	loin	-1	1	p	1.4166
366.48740000000004	0.2	jkx	42	verb	list	3	2	nomatch	loin	-1	1	p	1.4166
366.6873	0.0	+	42	verb	list	3	3	nomatch	loin	-1	1	p	1.4166
367.0871	0.2	pcms	42	verb	list	3	4	nomatch	loin	-1	1	p	1.4166
367.28700000000003	0.0	+	42	verb	list	3	5	nomatch	loin	-1	1	p	1.4166
367.68690000000004	0.2	doit	42	verb	list	3	6	nomatch	loin	-1	1	p	1.4166
367.8867	0.0	+	42	verb	list	3	7	nomatch	loin	-1	1	p	1.4166
368.2866	0.2	vieux	42	verb	list	3	8	nomatch	loin	-1	1	p	1.4166
368.48650000000004	0.0	+	42	verb	list	3	9	nomatch	loin	-1	1	p	1.4166
368.8863	0.2	chasser	42	verb	list	3	10	nomatch	loin	-1	1	p	1.4166
369.0862	0.0	+	42	verb	list	3	11	nomatch	loin	-1	1	p	1.4166
369.486	0.0	+	42	verb	list	3	12	nomatch	loin	-1	1	p	1.4166
371.4852	0.0	LOIN	42	verb	list	3	13	nomatch	loin	-1	1	p	1.4166
372.9678	0.0	+	42	verb	list	3	14	nomatch	loin	-1	1	p	1.4166
372.9017	0.0	[response]	42	verb	list	3	15	nomatch	loin	-1	1	p	1.4166
381.89730000000003	0.0	+	43	verb	phrase	1	1	match	danser	5	1	y	0.5680000000000001
382.447	0.2	cxtqw	43	verb	phrase	1	2	match	danser	5	1	y	0.5680000000000001
382.6469	0.0	+	43	verb	phrase	1	3	match	danser	5	1	y	0.5680000000000001
383.0467	0.2	qnpz	43	verb	phrase	1	4	match	danser	5	1	y	0.5680000000000001
383.24690000000004	0.0	+	43	verb	phrase	1	5	match	danser	5	1	y	0.5680000000000001
383.6465	0.2	xlrj	43	verb	phrase	1	6	match	danser	5	1	y	0.5680000000000001
383.8464	0.0	+	43	verb	phrase	1	7	match	danser	5	1	y	0.5680000000000001
384.2462	0.2	pznhq	43	verb	phrase	1	8	match	danser	5	1	y	0.5680000000000001
384.4461	0.0	+	43	verb	phrase	1	9	match	danser	5	1	y	0.5680000000000001
384.846	0.2	danser	43	verb	phrase	1	10	match	danser	5	1	y	0.5680000000000001
385.0459	0.0	+	43	verb	phrase	1	11	match	danser	5	1	y	0.5680000000000001
385.4457	0.0	+	43	verb	phrase	1	12	match	danser	5	1	y	0.5680000000000001
387.4448	0.0	DANSER	43	verb	phrase	1	13	match	danser	5	1	y	0.5680000000000001
388.0779	0.0	+	43	verb	phrase	1	14	match	danser	5	1	y	0.5680000000000001
388.0128000000001	0.0	[response]	43	verb	phrase	1	15	match	danser	5	1	y	0.5680000000000001
389.8438	0.0	+	44	noun	list	2	1	match	casier	5	1	y	0.77295
390.3935	0.2	scwbgv	44	noun	list	2	2	match	casier	5	1	y	0.77295
390.59340000000003	0.0	+	44	noun	list	2	3	match	casier	5	1	y	0.77295
390.9932	0.2	sbgt	44	noun	list	2	4	match	casier	5	1	y	0.77295
391.1932	0.0	+	44	noun	list	2	5	match	casier	5	1	y	0.77295
391.593	0.2	dmf	44	noun	list	2	6	match	casier	5	1	y	0.77295
391.79290000000003	0.0	+	44	noun	list	2	7	match	casier	5	1	y	0.77295
392.1927	0.2	moins	44	noun	list	2	8	match	casier	5	1	y	0.77295
392.3927	0.0	+	44	noun	list	2	9	match	casier	5	1	y	0.77295
392.7925	0.2	casier	44	noun	list	2	10	match	casier	5	1	y	0.77295
392.99240000000003	0.0	+	44	noun	list	2	11	match	casier	5	1	y	0.77295
393.3922	0.0	+	44	noun	list	2	12	match	casier	5	1	y	0.77295
395.3913	0.0	CASIER	44	noun	list	2	13	match	casier	5	1	y	0.77295
396.2243	0.0	+	44	noun	list	2	14	match	casier	5	1	y	0.77295
396.1643000000001	0.0	[response]	44	noun	list	2	15	match	casier	5	1	y	0.77295
397.7903	0.0	+	45	noun	list	1	1	nomatch	tard	-1	1	p	0.68782
398.34000000000003	0.2	xgnhr	45	noun	list	1	2	nomatch	tard	-1	1	p	0.68782
398.5399	0.0	+	45	noun	list	1	3	nomatch	tard	-1	1	p	0.68782
398.9398	0.2	gbph	45	noun	list	1	4	nomatch	tard	-1	1	p	0.68782
399.1397	0.0	+	45	noun	list	1	5	nomatch	tard	-1	1	p	0.68782
399.53950000000003	0.2	xlrj	45	noun	list	1	6	nomatch	tard	-1	1	p	0.68782
399.7394	0.0	+	45	noun	list	1	7	nomatch	tard	-1	1	p	0.68782
400.1392	0.2	qgvp	45	noun	list	1	8	nomatch	tard	-1	1	p	0.68782
400.33910000000003	0.0	+	45	noun	list	1	9	nomatch	tard	-1	1	p	0.68782
400.73900000000003	0.2	panier	45	noun	list	1	10	nomatch	tard	-1	1	p	0.68782
400.9389	0.0	+	45	noun	list	1	11	nomatch	tard	-1	1	p	0.68782
401.3387	0.0	+	45	noun	list	1	12	nomatch	tard	-1	1	p	0.68782
403.3378	0.0	TARD	45	noun	list	1	13	nomatch	tard	-1	1	p	0.68782
404.08750000000003	0.0	+	45	noun	list	1	14	nomatch	tard	-1	1	p	0.68782
404.0256	0.0	[response]	45	noun	list	1	15	nomatch	tard	-1	1	p	0.68782
405.7368	0.0	+	46	noun	phrase	1	1	match	vert	5	1	y	0.47583
406.2865	0.2	ndj	46	noun	phrase	1	2	match	vert	5	1	y	0.47583
406.4864	0.0	+	46	noun	phrase	1	3	match	vert	5	1	y	0.47583
406.8863	0.2	mkg	46	noun	phrase	1	4	match	vert	5	1	y	0.47583
407.0862	0.0	+	46	noun	phrase	1	5	match	vert	5	1	y	0.47583
407.486	0.2	dmf	46	noun	phrase	1	6	match	vert	5	1	y	0.47583
407.6859	0.0	+	46	noun	phrase	1	7	match	vert	5	1	y	0.47583
408.08570000000003	0.2	xzjdfvh	46	noun	phrase	1	8	match	vert	5	1	y	0.47583
408.2856	0.0	+	46	noun	phrase	1	9	match	vert	5	1	y	0.47583
408.6855	0.2	vert	46	noun	phrase	1	10	match	vert	5	1	y	0.47583
408.88550000000004	0.0	+	46	noun	phrase	1	11	match	vert	5	1	y	0.47583
409.28520000000003	0.0	+	46	noun	phrase	1	12	match	vert	5	1	y	0.47583
411.28430000000003	0.0	VERT	46	noun	phrase	1	13	match	vert	5	1	y	0.47583
411.8174	0.0	+	46	noun	phrase	1	14	match	vert	5	1	y	0.47583
411.7602	0.0	[response]	46	noun	phrase	1	15	match	vert	5	1	y	0.47583
413.6999	0.0	+	47	verb	list	3	1	nomatch	avec	-1	1	p	0.56808
414.2497	0.2	bkjzp	47	verb	list	3	2	nomatch	avec	-1	1	p	0.56808
414.44960000000003	0.0	+	47	verb	list	3	3	nomatch	avec	-1	1	p	0.56808
414.8494	0.2	qnpz	47	verb	list	3	4	nomatch	avec	-1	1	p	0.56808
415.0493	0.0	+	47	verb	list	3	5	nomatch	avec	-1	1	p	0.56808
415.4492	0.2	mon	47	verb	list	3	6	nomatch	avec	-1	1	p	0.56808
415.64910000000003	0.0	+	47	verb	list	3	7	nomatch	avec	-1	1	p	0.56808
416.0489	0.2	galoper	47	verb	list	3	8	nomatch	avec	-1	1	p	0.56808
416.2488	0.0	+	47	verb	list	3	9	nomatch	avec	-1	1	p	0.56808
416.6486	0.2	rouge	47	verb	list	3	10	nomatch	avec	-1	1	p	0.56808
416.8485	0.0	+	47	verb	list	3	11	nomatch	avec	-1	1	p	0.56808
417.2484	0.0	+	47	verb	list	3	12	nomatch	avec	-1	1	p	0.56808
419.2475	0.0	AVEC	47	verb	list	3	13	nomatch	avec	-1	1	p	0.56808
419.88050000000004	0.0	+	47	verb	list	3	14	nomatch	avec	-1	1	p	0.56808
419.8156	0.0	[response]	47	verb	list	3	15	nomatch	avec	-1	1	p	0.56808
421.6464	0.0	+	48	noun	phrase	1	1	nomatch	tard	-1	1	p	0.72474
422.19620000000003	0.2	wzt	48	noun	phrase	1	2	nomatch	tard	-1	1	p	0.72474
422.3961	0.0	+	48	noun	phrase	1	3	nomatch	tard	-1	1	p	0.72474
422.7959	0.2	pcms	48	noun	phrase	1	4	nomatch	tard	-1	1	p	0.72474
422.99580000000003	0.0	+	48	noun	phrase	1	5	nomatch	tard	-1	1	p	0.72474
423.39570000000003	0.2	dmf	48	noun	phrase	1	6	nomatch	tard	-1	1	p	0.72474
423.5956	0.0	+	48	noun	phrase	1	7	nomatch	tard	-1	1	p	0.72474
423.9954	0.2	dhnx	48	noun	phrase	1	8	nomatch	tard	-1	1	p	0.72474
424.19530000000003	0.0	+	48	noun	phrase	1	9	nomatch	tard	-1	1	p	0.72474
424.5951	0.2	tablier	48	noun	phrase	1	10	nomatch	tard	-1	1	p	0.72474
424.795	0.0	+	48	noun	phrase	1	11	nomatch	tard	-1	1	p	0.72474
425.1949	0.0	+	48	noun	phrase	1	12	nomatch	tard	-1	1	p	0.72474
427.194	0.0	TARD	48	noun	phrase	1	13	nomatch	tard	-1	1	p	0.72474
427.97700000000003	0.0	+	48	noun	phrase	1	14	nomatch	tard	-1	1	p	0.72474
427.9187	0.0	[response]	48	noun	phrase	1	15	nomatch	tard	-1	1	p	0.72474
437.5894	0.0	+	49	noun	list	1	1	nomatch	vert	-1	1	p	0.64033
438.1392	0.2	whfxlqv	49	noun	list	1	2	nomatch	vert	-1	1	p	0.64033
438.33910000000003	0.0	+	49	noun	list	1	3	nomatch	vert	-1	1	p	0.64033
438.7389	0.2	xmfn	49	noun	list	1	4	nomatch	vert	-1	1	p	0.64033
438.9388	0.0	+	49	noun	list	1	5	nomatch	vert	-1	1	p	0.64033
439.3386	0.2	gzps	49	noun	list	1	6	nomatch	vert	-1	1	p	0.64033
439.53860000000003	0.0	+	49	noun	list	1	7	nomatch	vert	-1	1	p	0.64033
439.9384	0.2	pznhq	49	noun	list	1	8	nomatch	vert	-1	1	p	0.64033
440.1383	0.0	+	49	noun	list	1	9	nomatch	vert	-1	1	p	0.64033
440.5381	0.2	casier	49	noun	list	1	10	nomatch	vert	-1	1	p	0.64033
440.738	0.0	+	49	noun	list	1	11	nomatch	vert	-1	1	p	0.64033
441.1379	0.0	+	49	noun	list	1	12	nomatch	vert	-1	1	p	0.64033
443.137	0.0	VERT	49	noun	list	1	13	nomatch	vert	-1	1	p	0.64033
443.8367	0.0	+	49	noun	list	1	14	nomatch	vert	-1	1	p	0.64033
443.7773000000001	0.0	[response]	49	noun	list	1	15	nomatch	vert	-1	1	p	0.64033
445.5359	0.0	+	50	verb	phrase	2	1	match	danser	5	1	y	0.60514
446.08570000000003	0.2	xkl	50	verb	phrase	2	2	match	danser	5	1	y	0.60514
446.2856	0.0	+	50	verb	phrase	2	3	match	danser	5	1	y	0.60514
446.6854	0.2	qxrj	50	verb	phrase	2	4	match	danser	5	1	y	0.60514
446.88530000000003	0.0	+	50	verb	phrase	2	5	match	danser	5	1	y	0.60514
447.28520000000003	0.2	px	50	verb	phrase	2	6	match	danser	5	1	y	0.60514
447.4851	0.0	+	50	verb	phrase	2	7	match	danser	5	1	y	0.60514
447.8849	0.2	plus	50	verb	phrase	2	8	match	danser	5	1	y	0.60514
448.08480000000003	0.0	+	50	verb	phrase	2	9	match	danser	5	1	y	0.60514
448.4846	0.2	danser	50	verb	phrase	2	10	match	danser	5	1	y	0.60514
448.6845	0.0	+	50	verb	phrase	2	11	match	danser	5	1	y	0.60514
449.0844	0.0	+	50	verb	phrase	2	12	match	danser	5	1	y	0.60514
451.1001	0.0	DANSER	50	verb	phrase	2	13	match	danser	5	1	y	0.60514
451.7665	0.0	+	50	verb	phrase	2	14	match	danser	5	1	y	0.60514
451.7053000000001	0.0	[response]	50	verb	phrase	2	15	match	danser	5	1	y	0.60514
453.4991	0.0	+	51	verb	list	1	1	match	patiner	5	1	y	0.75319
454.0488	0.2	lvbt	51	verb	list	1	2	match	patiner	5	1	y	0.75319
454.2487	0.0	+	51	verb	list	1	3	match	patiner	5	1	y	0.75319
454.6486	0.2	sbgt	51	verb	list	1	4	match	patiner	5	1	y	0.75319
454.8485	0.0	+	51	verb	list	1	5	match	patiner	5	1	y	0.75319
455.24830000000003	0.2	dmf	51	verb	list	1	6	match	patiner	5	1	y	0.75319
455.4482	0.0	+	51	verb	list	1	7	match	patiner	5	1	y	0.75319
455.8481	0.2	mwfqg	51	verb	list	1	8	match	patiner	5	1	y	0.75319
456.048	0.0	+	51	verb	list	1	9	match	patiner	5	1	y	0.75319
456.44780000000003	0.2	patiner	51	verb	list	1	10	match	patiner	5	1	y	0.75319
456.6477	0.0	+	51	verb	list	1	11	match	patiner	5	1	y	0.75319
457.0475	0.0	+	51	verb	list	1	12	match	patiner	5	1	y	0.75319
459.0466	0.0	PATINER	51	verb	list	1	13	match	patiner	5	1	y	0.75319
459.863	0.0	+	51	verb	list	1	14	match	patiner	5	1	y	0.75319
459.7998	0.0	[response]	51	verb	list	1	15	match	patiner	5	1	y	0.75319
469.44210000000004	0.0	+	52	noun	phrase	3	1	match	son	3	1	y	0.68576
469.99180000000007	0.2	nprb	52	noun	phrase	3	2	match	son	3	1	y	0.68576
470.1917	0.0	+	52	noun	phrase	3	3	match	son	3	1	y	0.68576
470.59150000000005	0.2	wksm	52	noun	phrase	3	4	match	son	3	1	y	0.68576
470.7915	0.0	+	52	noun	phrase	3	5	match	son	3	1	y	0.68576
471.1913	0.2	son	52	noun	phrase	3	6	match	son	3	1	y	0.68576
471.39119999999997	0.0	+	52	noun	phrase	3	7	match	son	3	1	y	0.68576
471.791	0.2	sablier	52	noun	phrase	3	8	match	son	3	1	y	0.68576
471.99090000000007	0.0	+	52	noun	phrase	3	9	match	son	3	1	y	0.68576
472.39079999999996	0.2	bleu	52	noun	phrase	3	10	match	son	3	1	y	0.68576
472.5907	0.0	+	52	noun	phrase	3	11	match	son	3	1	y	0.68576
472.99050000000005	0.0	+	52	noun	phrase	3	12	match	son	3	1	y	0.68576
474.98960000000005	0.0	SON	52	noun	phrase	3	13	match	son	3	1	y	0.68576
475.7393	0.0	+	52	noun	phrase	3	14	match	son	3	1	y	0.68576
475.67540000000014	0.0	[response]	52	noun	phrase	3	15	match	son	3	1	y	0.68576
477.38860000000005	0.0	+	53	verb	list	2	1	match	petit	4	1	y	0.56931
477.93829999999997	0.2	htwnc	53	verb	list	2	2	match	petit	4	1	y	0.56931
478.13820000000004	0.0	+	53	verb	list	2	3	match	petit	4	1	y	0.56931
478.53810000000004	0.2	mkg	53	verb	list	2	4	match	petit	4	1	y	0.56931
478.738	0.0	+	53	verb	list	2	5	match	petit	4	1	y	0.56931
479.1378	0.2	px	53	verb	list	2	6	match	petit	4	1	y	0.56931
479.3377	0.0	+	53	verb	list	2	7	match	petit	4	1	y	0.56931
479.7375	0.2	petit	53	verb	list	2	8	match	petit	4	1	y	0.56931
479.93739999999997	0.0	+	53	verb	list	2	9	match	petit	4	1	y	0.56931
480.33729999999997	0.2	danser	53	verb	list	2	10	match	petit	4	1	y	0.56931
480.53720000000004	0.0	+	53	verb	list	2	11	match	petit	4	1	y	0.56931
480.93700000000007	0.0	+	53	verb	list	2	12	match	petit	4	1	y	0.56931
482.93610000000007	0.0	PETIT	53	verb	list	2	13	match	petit	4	1	y	0.56931
483.56919999999997	0.0	+	53	verb	list	2	14	match	petit	4	1	y	0.56931
483.50540000000007	0.0	[response]	53	verb	list	2	15	match	petit	4	1	y	0.56931
485.33510000000007	0.0	+	54	noun	phrase	1	1	match	rouge	5	1	y	0.66067
485.8848	0.2	mwrz	54	noun	phrase	1	2	match	rouge	5	1	y	0.66067
486.08470000000005	0.0	+	54	noun	phrase	1	3	match	rouge	5	1	y	0.66067
486.48460000000006	0.2	nrlk	54	noun	phrase	1	4	match	rouge	5	1	y	0.66067
486.6845	0.0	+	54	noun	phrase	1	5	match	rouge	5	1	y	0.66067
487.08430000000004	0.2	gzps	54	noun	phrase	1	6	match	rouge	5	1	y	0.66067
487.2842	0.0	+	54	noun	phrase	1	7	match	rouge	5	1	y	0.66067
487.684	0.2	phkctnl	54	noun	phrase	1	8	match	rouge	5	1	y	0.66067
487.8839	0.0	+	54	noun	phrase	1	9	match	rouge	5	1	y	0.66067
488.2838	0.2	rouge	54	noun	phrase	1	10	match	rouge	5	1	y	0.66067
488.48370000000006	0.0	+	54	noun	phrase	1	11	match	rouge	5	1	y	0.66067
488.9002	0.0	+	54	noun	phrase	1	12	match	rouge	5	1	y	0.66067
490.8993	0.0	ROUGE	54	noun	phrase	1	13	match	rouge	5	1	y	0.66067
491.61560000000003	0.0	+	54	noun	phrase	1	14	match	rouge	5	1	y	0.66067
491.5600000000001	0.0	[response]	54	noun	phrase	1	15	match	rouge	5	1	y	0.66067
493.2982	0.0	+	55	verb	list	4	1	match	jade	2	1	y	0.78713
493.848	0.2	zkrv	55	verb	list	4	2	match	jade	2	1	y	0.78713
494.04789999999997	0.0	+	55	verb	list	4	3	match	jade	2	1	y	0.78713
494.4477	0.2	jade	55	verb	list	4	4	match	jade	2	1	y	0.78713
494.64760000000007	0.0	+	55	verb	list	4	5	match	jade	2	1	y	0.78713
495.04749999999996	0.2	mon	55	verb	list	4	6	match	jade	2	1	y	0.78713
495.2476	0.0	+	55	verb	list	4	7	match	jade	2	1	y	0.78713
495.64720000000005	0.2	jongler	55	verb	list	4	8	match	jade	2	1	y	0.78713
495.8471	0.0	+	55	verb	list	4	9	match	jade	2	1	y	0.78713
496.24690000000004	0.2	bleu	55	verb	list	4	10	match	jade	2	1	y	0.78713
496.4468	0.0	+	55	verb	list	4	11	match	jade	2	1	y	0.78713
496.8467	0.0	+	55	verb	list	4	12	match	jade	2	1	y	0.78713
498.8458	0.0	JADE	55	verb	list	4	13	match	jade	2	1	y	0.78713
499.6954	0.0	+	55	verb	list	4	14	match	jade	2	1	y	0.78713
499.6329	0.0	[response]	55	verb	list	4	15	match	jade	2	1	y	0.78713
525.2342	0.0	+	56	noun	list	3	1	nomatch	voilier	-1	1	p	0.61402
525.7838999999999	0.2	chlqfvg	56	noun	list	3	2	nomatch	voilier	-1	1	p	0.61402
525.9838	0.0	+	56	noun	list	3	3	nomatch	voilier	-1	1	p	0.61402
526.3837	0.2	dzlw	56	noun	list	3	4	nomatch	voilier	-1	1	p	0.61402
526.5836999999999	0.0	+	56	noun	list	3	5	nomatch	voilier	-1	1	p	0.61402
527.0001	0.2	son	56	noun	list	3	6	nomatch	voilier	-1	1	p	0.61402
527.1999999999999	0.0	+	56	noun	list	3	7	nomatch	voilier	-1	1	p	0.61402
527.5998	0.2	moins	56	noun	list	3	8	nomatch	voilier	-1	1	p	0.61402
527.7996999999999	0.0	+	56	noun	list	3	9	nomatch	voilier	-1	1	p	0.61402
528.1995	0.2	casier	56	noun	list	3	10	nomatch	voilier	-1	1	p	0.61402
528.3995	0.0	+	56	noun	list	3	11	nomatch	voilier	-1	1	p	0.61402
528.7992999999999	0.0	+	56	noun	list	3	12	nomatch	voilier	-1	1	p	0.61402
530.7983999999999	0.0	VOILIER	56	noun	list	3	13	nomatch	voilier	-1	1	p	0.61402
531.4648	0.0	+	56	noun	list	3	14	nomatch	voilier	-1	1	p	0.61402
531.4123999999999	0.0	[response]	56	noun	list	3	15	nomatch	voilier	-1	1	p	0.61402
533.1972999999999	0.0	+	57	verb	list	1	1	match	jongler	5	1	y	0.58651
533.7470999999999	0.2	vcznt	57	verb	list	1	2	match	jongler	5	1	y	0.58651
533.9472	0.0	+	57	verb	list	1	3	match	jongler	5	1	y	0.58651
534.3467999999999	0.2	mkg	57	verb	list	1	4	match	jongler	5	1	y	0.58651
534.5468	0.0	+	57	verb	list	1	5	match	jongler	5	1	y	0.58651
534.9466	0.2	px	57	verb	list	1	6	match	jongler	5	1	y	0.58651
535.1465	0.0	+	57	verb	list	1	7	match	jongler	5	1	y	0.58651
535.5463	0.2	zjxkn	57	verb	list	1	8	match	jongler	5	1	y	0.58651
535.7461999999999	0.0	+	57	verb	list	1	9	match	jongler	5	1	y	0.58651
536.146	0.2	jongler	57	verb	list	1	10	match	jongler	5	1	y	0.58651
536.3458999999999	0.0	+	57	verb	list	1	11	match	jongler	5	1	y	0.58651
536.7457999999999	0.0	+	57	verb	list	1	12	match	jongler	5	1	y	0.58651
538.7448999999999	0.0	JONGLER	57	verb	list	1	13	match	jongler	5	1	y	0.58651
539.3946	0.0	+	57	verb	list	1	14	match	jongler	5	1	y	0.58651
539.3313999999999	0.0	[response]	57	verb	list	1	15	match	jongler	5	1	y	0.58651
541.1437999999999	0.0	+	58	verb	list	1	1	match	voyager	5	1	y	0.79211
541.6936	0.2	fwsmt	58	verb	list	1	2	match	voyager	5	1	y	0.79211
541.8934999999999	0.0	+	58	verb	list	1	3	match	voyager	5	1	y	0.79211
542.2932999999999	0.2	qxvn	58	verb	list	1	4	match	voyager	5	1	y	0.79211
542.4933	0.0	+	58	verb	list	1	5	match	voyager	5	1	y	0.79211
542.8931	0.2	hls	58	verb	list	1	6	match	voyager	5	1	y	0.79211
543.093	0.0	+	58	verb	list	1	7	match	voyager	5	1	y	0.79211
543.4928	0.2	kjhb	58	verb	list	1	8	match	voyager	5	1	y	0.79211
543.6927999999999	0.0	+	58	verb	list	1	9	match	voyager	5	1	y	0.79211
544.0925	0.2	voyager	58	verb	list	1	10	match	voyager	5	1	y	0.79211
544.2924999999999	0.0	+	58	verb	list	1	11	match	voyager	5	1	y	0.79211
544.6922999999999	0.0	+	58	verb	list	1	12	match	voyager	5	1	y	0.79211
546.6913999999999	0.0	VOYAGER	58	verb	list	1	13	match	voyager	5	1	y	0.79211
547.5409999999999	0.0	+	58	verb	list	1	14	match	voyager	5	1	y	0.79211
547.4834999999999	0.0	[response]	58	verb	list	1	15	match	voyager	5	1	y	0.79211
549.0903	0.0	+	59	verb	list	2	1	match	patiner	5	1	y	0.74294
549.6401	0.2	pdf	59	verb	list	2	2	match	patiner	5	1	y	0.74294
549.8399999999999	0.0	+	59	verb	list	2	3	match	patiner	5	1	y	0.74294
550.2398	0.2	wksm	59	verb	list	2	4	match	patiner	5	1	y	0.74294
550.4398	0.0	+	59	verb	list	2	5	match	patiner	5	1	y	0.74294
550.8395999999999	0.2	drzp	59	verb	list	2	6	match	patiner	5	1	y	0.74294
551.0395	0.0	+	59	verb	list	2	7	match	patiner	5	1	y	0.74294
551.4393	0.2	grand	59	verb	list	2	8	match	patiner	5	1	y	0.74294
551.6392	0.0	+	59	verb	list	2	9	match	patiner	5	1	y	0.74294
552.039	0.2	patiner	59	verb	list	2	10	match	patiner	5	1	y	0.74294
552.2389999999999	0.0	+	59	verb	list	2	11	match	patiner	5	1	y	0.74294
552.6388	0.0	+	59	verb	list	2	12	match	patiner	5	1	y	0.74294
554.6379	0.0	PATINER	59	verb	list	2	13	match	patiner	5	1	y	0.74294
555.4376	0.0	+	59	verb	list	2	14	match	patiner	5	1	y	0.74294
555.3807999999999	0.0	[response]	59	verb	list	2	15	match	patiner	5	1	y	0.74294
557.0368	0.0	+	60	verb	list	2	1	nomatch	danser	-1	1	p	0.7785
557.5866	0.2	xrcgpw	60	verb	list	2	2	nomatch	danser	-1	1	p	0.7785
557.7864999999999	0.0	+	60	verb	list	2	3	nomatch	danser	-1	1	p	0.7785
558.1863	0.2	pcms	60	verb	list	2	4	nomatch	danser	-1	1	p	0.7785
558.3861999999999	0.0	+	60	verb	list	2	5	nomatch	danser	-1	1	p	0.7785
558.7860999999999	0.2	px	60	verb	list	2	6	nomatch	danser	-1	1	p	0.7785
558.986	0.0	+	60	verb	list	2	7	nomatch	danser	-1	1	p	0.7785
559.3857999999999	0.2	vieux	60	verb	list	2	8	nomatch	danser	-1	1	p	0.7785
559.5857	0.0	+	60	verb	list	2	9	nomatch	danser	-1	1	p	0.7785
559.9855	0.2	plonger	60	verb	list	2	10	nomatch	danser	-1	1	p	0.7785
560.1854999999999	0.0	+	60	verb	list	2	11	nomatch	danser	-1	1	p	0.7785
560.5853	0.0	+	60	verb	list	2	12	nomatch	danser	-1	1	p	0.7785
562.5844	0.0	DANSER	60	verb	list	2	13	nomatch	danser	-1	1	p	0.7785
563.4173999999999	0.0	+	60	verb	list	2	14	nomatch	danser	-1	1	p	0.7785
563.3629000000001	0.0	[response]	60	verb	list	2	15	nomatch	danser	-1	1	p	0.7785
572.9965	0.0	+	61	verb	phrase	1	1	nomatch	voyager	-1	1	p	0.61378
573.5462	0.2	ltqczvm	61	verb	phrase	1	2	nomatch	voyager	-1	1	p	0.61378
573.7461999999999	0.0	+	61	verb	phrase	1	3	nomatch	voyager	-1	1	p	0.61378
574.146	0.2	bml	61	verb	phrase	1	4	nomatch	voyager	-1	1	p	0.61378
574.3458999999999	0.0	+	61	verb	phrase	1	5	nomatch	voyager	-1	1	p	0.61378
574.7456999999999	0.2	xlrj	61	verb	phrase	1	6	nomatch	voyager	-1	1	p	0.61378
574.9455999999999	0.0	+	61	verb	phrase	1	7	nomatch	voyager	-1	1	p	0.61378
575.3453999999999	0.2	sxp	61	verb	phrase	1	8	nomatch	voyager	-1	1	p	0.61378
575.5454	0.0	+	61	verb	phrase	1	9	nomatch	voyager	-1	1	p	0.61378
575.9452	0.2	parader	61	verb	phrase	1	10	nomatch	voyager	-1	1	p	0.61378
576.1451	0.0	+	61	verb	phrase	1	11	nomatch	voyager	-1	1	p	0.61378
576.5449	0.0	+	61	verb	phrase	1	12	nomatch	voyager	-1	1	p	0.61378
578.5441	0.0	VOYAGER	61	verb	phrase	1	13	nomatch	voyager	-1	1	p	0.61378
579.2103999999999	0.0	+	61	verb	phrase	1	14	nomatch	voyager	-1	1	p	0.61378
579.1578	0.0	[response]	61	verb	phrase	1	15	nomatch	voyager	-1	1	p	0.61378
588.9395	0.0	+	62	verb	list	4	1	nomatch	peut	-1	1	p	0.71318
589.4892	0.2	slwhf	62	verb	list	4	2	nomatch	peut	-1	1	p	0.71318
589.6890999999999	0.0	+	62	verb	list	4	3	nomatch	peut	-1	1	p	0.71318
590.0889999999999	0.2	sur	62	verb	list	4	4	nomatch	peut	-1	1	p	0.71318
590.2888999999999	0.0	+	62	verb	list	4	5	nomatch	peut	-1	1	p	0.71318
590.6886999999999	0.2	va	62	verb	list	4	6	nomatch	peut	-1	1	p	0.71318
590.8886	0.0	+	62	verb	list	4	7	nomatch	peut	-1	1	p	0.71318
591.2883999999999	0.2	beau	62	verb	list	4	8	nomatch	peut	-1	1	p	0.71318
591.4883	0.0	+	62	verb	list	4	9	nomatch	peut	-1	1	p	0.71318
591.8882	0.2	galoper	62	verb	list	4	10	nomatch	peut	-1	1	p	0.71318
592.0880999999999	0.0	+	62	verb	list	4	11	nomatch	peut	-1	1	p	0.71318
592.4879	0.0	+	62	verb	list	4	12	nomatch	peut	-1	1	p	0.71318
594.487	0.0	PEUT	62	verb	list	4	13	nomatch	peut	-1	1	p	0.71318
595.2533999999999	0.0	+	62	verb	list	4	14	nomatch	peut	-1	1	p	0.71318
595.2002	0.0	[response]	62	verb	list	4	15	nomatch	peut	-1	1	p	0.71318
596.886	0.0	+	63	verb	list	1	1	match	bleu	5	1	y	0.6287100000000001
597.4357	0.2	gfvlmw	63	verb	list	1	2	match	bleu	5	1	y	0.6287100000000001
597.6356	0.0	+	63	verb	list	1	3	match	bleu	5	1	y	0.6287100000000001
598.0355	0.2	qnpz	63	verb	list	1	4	match	bleu	5	1	y	0.6287100000000001
598.2353999999999	0.0	+	63	verb	list	1	5	match	bleu	5	1	y	0.6287100000000001
598.6351999999999	0.2	dmf	63	verb	list	1	6	match	bleu	5	1	y	0.6287100000000001
598.8351	0.0	+	63	verb	list	1	7	match	bleu	5	1	y	0.6287100000000001
599.2348999999999	0.2	qfjplbr	63	verb	list	1	8	match	bleu	5	1	y	0.6287100000000001
599.4349	0.0	+	63	verb	list	1	9	match	bleu	5	1	y	0.6287100000000001
599.8347	0.2	bleu	63	verb	list	1	10	match	bleu	5	1	y	0.6287100000000001
600.0346	0.0	+	63	verb	list	1	11	match	bleu	5	1	y	0.6287100000000001
600.4344	0.0	+	63	verb	list	1	12	match	bleu	5	1	y	0.6287100000000001
602.4336	0.0	BLEU	63	verb	list	1	13	match	bleu	5	1	y	0.6287100000000001
603.1166	0.0	+	63	verb	list	1	14	match	bleu	5	1	y	0.6287100000000001
603.0622999999999	0.0	[response]	63	verb	list	1	15	match	bleu	5	1	y	0.6287100000000001
604.8490999999999	0.0	+	64	noun	phrase	3	1	nomatch	voilier	-1	1	p	0.67923
605.3988999999999	0.2	lxfrwph	64	noun	phrase	3	2	nomatch	voilier	-1	1	p	0.67923
605.5988	0.0	+	64	noun	phrase	3	3	nomatch	voilier	-1	1	p	0.67923
605.9988999999999	0.2	pcms	64	noun	phrase	3	4	nomatch	voilier	-1	1	p	0.67923
606.1985	0.0	+	64	noun	phrase	3	5	nomatch	voilier	-1	1	p	0.67923
606.5984	0.2	mon	64	noun	phrase	3	6	nomatch	voilier	-1	1	p	0.67923
606.7982999999999	0.0	+	64	noun	phrase	3	7	nomatch	voilier	-1	1	p	0.67923
607.1981	0.2	nouveau	64	noun	phrase	3	8	nomatch	voilier	-1	1	p	0.67923
607.3979999999999	0.0	+	64	noun	phrase	3	9	nomatch	voilier	-1	1	p	0.67923
607.7977999999999	0.2	panier	64	noun	phrase	3	10	nomatch	voilier	-1	1	p	0.67923
607.9977	0.0	+	64	noun	phrase	3	11	nomatch	voilier	-1	1	p	0.67923
608.3976	0.0	+	64	noun	phrase	3	12	nomatch	voilier	-1	1	p	0.67923
610.3967	0.0	VOILIER	64	noun	phrase	3	13	nomatch	voilier	-1	1	p	0.67923
611.1297	0.0	+	64	noun	phrase	3	14	nomatch	voilier	-1	1	p	0.67923
611.0758999999999	0.0	[response]	64	noun	phrase	3	15	nomatch	voilier	-1	1	p	0.67923
612.7955999999999	0.0	+	65	verb	phrase	3	1	nomatch	beaucoup	-1	1	p	0.62655
613.3453999999999	0.2	lbjq	65	verb	phrase	3	2	nomatch	beaucoup	-1	1	p	0.62655
613.5453	0.0	+	65	verb	phrase	3	3	nomatch	beaucoup	-1	1	p	0.62655
613.9450999999999	0.2	qnpz	65	verb	phrase	3	4	nomatch	beaucoup	-1	1	p	0.62655
614.145	0.0	+	65	verb	phrase	3	5	nomatch	beaucoup	-1	1	p	0.62655
614.5449	0.2	doit	65	verb	phrase	3	6	nomatch	beaucoup	-1	1	p	0.62655
614.7447999999999	0.0	+	65	verb	phrase	3	7	nomatch	beaucoup	-1	1	p	0.62655
615.1446	0.2	galoper	65	verb	phrase	3	8	nomatch	beaucoup	-1	1	p	0.62655
615.3444999999999	0.0	+	65	verb	phrase	3	9	nomatch	beaucoup	-1	1	p	0.62655
615.7443	0.2	vite	65	verb	phrase	3	10	nomatch	beaucoup	-1	1	p	0.62655
615.9443	0.0	+	65	verb	phrase	3	11	nomatch	beaucoup	-1	1	p	0.62655
616.3440999999999	0.0	+	65	verb	phrase	3	12	nomatch	beaucoup	-1	1	p	0.62655
618.3431999999999	0.0	BEAUCOUP	65	verb	phrase	3	13	nomatch	beaucoup	-1	1	p	0.62655
619.0261999999999	0.0	+	65	verb	phrase	3	14	nomatch	beaucoup	-1	1	p	0.62655
618.9698	0.0	[response]	65	verb	phrase	3	15	nomatch	beaucoup	-1	1	p	0.62655
620.7420999999999	0.0	+	66	verb	list	4	1	match	peut	3	1	y	0.83052
621.2918999999999	0.2	ghx	66	verb	list	4	2	match	peut	3	1	y	0.83052
621.4918	0.0	+	66	verb	list	4	3	match	peut	3	1	y	0.83052
621.8915999999999	0.2	pour	66	verb	list	4	4	match	peut	3	1	y	0.83052
622.0915	0.0	+	66	verb	list	4	5	match	peut	3	1	y	0.83052
622.4914	0.2	peut	66	verb	list	4	6	match	peut	3	1	y	0.83052
622.6913	0.0	+	66	verb	list	4	7	match	peut	3	1	y	0.83052
623.0911	0.2	grand	66	verb	list	4	8	match	peut	3	1	y	0.83052
623.2909999999999	0.0	+	66	verb	list	4	9	match	peut	3	1	y	0.83052
623.6908	0.2	chasser	66	verb	list	4	10	match	peut	3	1	y	0.83052
623.8907999999999	0.0	+	66	verb	list	4	11	match	peut	3	1	y	0.83052
624.2905999999999	0.0	+	66	verb	list	4	12	match	peut	3	1	y	0.83052
626.2896999999999	0.0	PEUT	66	verb	list	4	13	match	peut	3	1	y	0.83052
627.1726	0.0	+	66	verb	list	4	14	match	peut	3	1	y	0.83052
627.1202	0.0	[response]	66	verb	list	4	15	match	peut	3	1	y	0.83052
628.6886	0.0	+	67	verb	phrase	1	1	match	voyager	5	1	y	0.46171000000000006
629.2384	0.2	qtgvhc	67	verb	phrase	1	2	match	voyager	5	1	y	0.46171000000000006
629.4382999999999	0.0	+	67	verb	phrase	1	3	match	voyager	5	1	y	0.46171000000000006
629.8380999999999	0.2	sbgt	67	verb	phrase	1	4	match	voyager	5	1	y	0.46171000000000006
630.0381	0.0	+	67	verb	phrase	1	5	match	voyager	5	1	y	0.46171000000000006
630.4378999999999	0.2	px	67	verb	phrase	1	6	match	voyager	5	1	y	0.46171000000000006
630.6378	0.0	+	67	verb	phrase	1	7	match	voyager	5	1	y	0.46171000000000006
631.0376	0.2	mzvpqdcl	67	verb	phrase	1	8	match	voyager	5	1	y	0.46171000000000006
631.2375	0.0	+	67	verb	phrase	1	9	match	voyager	5	1	y	0.46171000000000006
631.6373	0.2	voyager	67	verb	phrase	1	10	match	voyager	5	1	y	0.46171000000000006
631.8372999999999	0.0	+	67	verb	phrase	1	11	match	voyager	5	1	y	0.46171000000000006
632.2370999999999	0.0	+	67	verb	phrase	1	12	match	voyager	5	1	y	0.46171000000000006
634.2361999999999	0.0	VOYAGER	67	verb	phrase	1	13	match	voyager	5	1	y	0.46171000000000006
634.7527	0.0	+	67	verb	phrase	1	14	match	voyager	5	1	y	0.46171000000000006
634.6979	0.0	[response]	67	verb	phrase	1	15	match	voyager	5	1	y	0.46171000000000006
636.6351	0.0	+	68	verb	phrase	4	1	match	va	3	1	y	0.74284
637.1849	0.2	xkh	68	verb	phrase	4	2	match	va	3	1	y	0.74284
637.3847999999999	0.0	+	68	verb	phrase	4	3	match	va	3	1	y	0.74284
637.7846	0.2	marc	68	verb	phrase	4	4	match	va	3	1	y	0.74284
637.9844999999999	0.0	+	68	verb	phrase	4	5	match	va	3	1	y	0.74284
638.3843999999999	0.2	va	68	verb	phrase	4	6	match	va	3	1	y	0.74284
638.5843	0.0	+	68	verb	phrase	4	7	match	va	3	1	y	0.74284
638.9840999999999	0.2	moins	68	verb	phrase	4	8	match	va	3	1	y	0.74284
639.184	0.0	+	68	verb	phrase	4	9	match	va	3	1	y	0.74284
639.5839	0.2	danser	68	verb	phrase	4	10	match	va	3	1	y	0.74284
639.7837999999999	0.0	+	68	verb	phrase	4	11	match	va	3	1	y	0.74284
640.1836	0.0	+	68	verb	phrase	4	12	match	va	3	1	y	0.74284
642.1994	0.0	VA	68	verb	phrase	4	13	match	va	3	1	y	0.74284
642.9989999999999	0.0	+	68	verb	phrase	4	14	match	va	3	1	y	0.74284
642.9422	0.0	[response]	68	verb	phrase	4	15	match	va	3	1	y	0.74284
644.5983	0.0	+	69	verb	phrase	2	1	match	mieux	4	1	y	0.72849
645.1481	0.2	qpwrbvs	69	verb	phrase	2	2	match	mieux	4	1	y	0.72849
645.348	0.0	+	69	verb	phrase	2	3	match	mieux	4	1	y	0.72849
645.7478	0.2	dzlw	69	verb	phrase	2	4	match	mieux	4	1	y	0.72849
645.9476999999999	0.0	+	69	verb	phrase	2	5	match	mieux	4	1	y	0.72849
646.3475	0.2	drzp	69	verb	phrase	2	6	match	mieux	4	1	y	0.72849
646.5473999999999	0.0	+	69	verb	phrase	2	7	match	mieux	4	1	y	0.72849
646.9472999999999	0.2	mieux	69	verb	phrase	2	8	match	mieux	4	1	y	0.72849
647.1472	0.0	+	69	verb	phrase	2	9	match	mieux	4	1	y	0.72849
647.5469999999999	0.2	voyager	69	verb	phrase	2	10	match	mieux	4	1	y	0.72849
647.7469	0.0	+	69	verb	phrase	2	11	match	mieux	4	1	y	0.72849
648.1468	0.0	+	69	verb	phrase	2	12	match	mieux	4	1	y	0.72849
650.1459	0.0	MIEUX	69	verb	phrase	2	13	match	mieux	4	1	y	0.72849
650.9289	0.0	+	69	verb	phrase	2	14	match	mieux	4	1	y	0.72849
650.8743999999999	0.0	[response]	69	verb	phrase	2	15	match	mieux	4	1	y	0.72849
652.5448	0.0	+	70	verb	phrase	2	1	match	beaucoup	4	1	y	0.54515
653.0945999999999	0.2	gkvxswt	70	verb	phrase	2	2	match	beaucoup	4	1	y	0.54515
653.2945	0.0	+	70	verb	phrase	2	3	match	beaucoup	4	1	y	0.54515
653.6943	0.2	bml	70	verb	phrase	2	4	match	beaucoup	4	1	y	0.54515
653.8942	0.0	+	70	verb	phrase	2	5	match	beaucoup	4	1	y	0.54515
654.294	0.2	xlrj	70	verb	phrase	2	6	match	beaucoup	4	1	y	0.54515
654.4938999999999	0.0	+	70	verb	phrase	2	7	match	beaucoup	4	1	y	0.54515
654.8937999999999	0.2	beaucoup	70	verb	phrase	2	8	match	beaucoup	4	1	y	0.54515
655.0936999999999	0.0	+	70	verb	phrase	2	9	match	beaucoup	4	1	y	0.54515
655.4934999999999	0.2	chasser	70	verb	phrase	2	10	match	beaucoup	4	1	y	0.54515
655.6934	0.0	+	70	verb	phrase	2	11	match	beaucoup	4	1	y	0.54515
656.0933	0.0	+	70	verb	phrase	2	12	match	beaucoup	4	1	y	0.54515
658.0924	0.0	BEAUCOUP	70	verb	phrase	2	13	match	beaucoup	4	1	y	0.54515
658.6921	0.0	+	70	verb	phrase	2	14	match	beaucoup	4	1	y	0.54515
658.6374999999999	0.0	[response]	70	verb	phrase	2	15	match	beaucoup	4	1	y	0.54515
676.4843	0.0	+	71	noun	phrase	1	1	match	beau	5	1	y	0.69902
677.034	0.2	hztsgrk	71	noun	phrase	1	2	match	beau	5	1	y	0.69902
677.2339999999999	0.0	+	71	noun	phrase	1	3	match	beau	5	1	y	0.69902
677.6338	0.2	fqnb	71	noun	phrase	1	4	match	beau	5	1	y	0.69902
677.8336999999999	0.0	+	71	noun	phrase	1	5	match	beau	5	1	y	0.69902
678.2335999999999	0.2	hls	71	noun	phrase	1	6	match	beau	5	1	y	0.69902
678.4500999999999	0.0	+	71	noun	phrase	1	7	match	beau	5	1	y	0.69902
678.8498999999999	0.2	rpgzlc	71	noun	phrase	1	8	match	beau	5	1	y	0.69902
679.0498	0.0	+	71	noun	phrase	1	9	match	beau	5	1	y	0.69902
679.4495999999999	0.2	beau	71	noun	phrase	1	10	match	beau	5	1	y	0.69902
679.6495	0.0	+	71	noun	phrase	1	11	match	beau	5	1	y	0.69902
680.0494	0.0	+	71	noun	phrase	1	12	match	beau	5	1	y	0.69902
682.0485	0.0	BEAU	71	noun	phrase	1	13	match	beau	5	1	y	0.69902
682.8148	0.0	+	71	noun	phrase	1	14	match	beau	5	1	y	0.69902
682.7475000000001	0.0	[response]	71	noun	phrase	1	15	match	beau	5	1	y	0.69902
684.4473999999999	0.0	+	72	verb	phrase	1	1	nomatch	danser	-1	1	p	0.62045
684.9971999999999	0.2	txr	72	verb	phrase	1	2	nomatch	danser	-1	1	p	0.62045
685.1971	0.0	+	72	verb	phrase	1	3	nomatch	danser	-1	1	p	0.62045
685.5969	0.2	qnpz	72	verb	phrase	1	4	nomatch	danser	-1	1	p	0.62045
685.7968	0.0	+	72	verb	phrase	1	5	nomatch	danser	-1	1	p	0.62045
686.1967	0.2	px	72	verb	phrase	1	6	nomatch	danser	-1	1	p	0.62045
686.3965999999999	0.0	+	72	verb	phrase	1	7	nomatch	danser	-1	1	p	0.62045
686.7964	0.2	cpwvrdq	72	verb	phrase	1	8	nomatch	danser	-1	1	p	0.62045
686.9962999999999	0.0	+	72	verb	phrase	1	9	nomatch	danser	-1	1	p	0.62045
687.3960999999999	0.2	ainsi	72	verb	phrase	1	10	nomatch	danser	-1	1	p	0.62045
687.5961	0.0	+	72	verb	phrase	1	11	nomatch	danser	-1	1	p	0.62045
687.9959	0.0	+	72	verb	phrase	1	12	nomatch	danser	-1	1	p	0.62045
689.995	0.0	DANSER	72	verb	phrase	1	13	nomatch	danser	-1	1	p	0.62045
690.678	0.0	+	72	verb	phrase	1	14	nomatch	danser	-1	1	p	0.62045
690.6155	0.0	[response]	72	verb	phrase	1	15	nomatch	danser	-1	1	p	0.62045
692.394	0.0	+	73	verb	phrase	1	1	nomatch	jongler	-1	1	p	0.64388
692.9436999999999	0.2	pkr	73	verb	phrase	1	2	nomatch	jongler	-1	1	p	0.64388
693.1436	0.0	+	73	verb	phrase	1	3	nomatch	jongler	-1	1	p	0.64388
693.5433999999999	0.2	bml	73	verb	phrase	1	4	nomatch	jongler	-1	1	p	0.64388
693.7433	0.0	+	73	verb	phrase	1	5	nomatch	jongler	-1	1	p	0.64388
694.1432	0.2	xlrj	73	verb	phrase	1	6	nomatch	jongler	-1	1	p	0.64388
694.3430999999999	0.0	+	73	verb	phrase	1	7	nomatch	jongler	-1	1	p	0.64388
694.7429	0.2	bpqhz	73	verb	phrase	1	8	nomatch	jongler	-1	1	p	0.64388
694.9427999999999	0.0	+	73	verb	phrase	1	9	nomatch	jongler	-1	1	p	0.64388
695.3426	0.2	chasser	73	verb	phrase	1	10	nomatch	jongler	-1	1	p	0.64388
695.5426	0.0	+	73	verb	phrase	1	11	nomatch	jongler	-1	1	p	0.64388
695.9423999999999	0.0	+	73	verb	phrase	1	12	nomatch	jongler	-1	1	p	0.64388
697.9414999999999	0.0	JONGLER	73	verb	phrase	1	13	nomatch	jongler	-1	1	p	0.64388
698.6411999999999	0.0	+	73	verb	phrase	1	14	nomatch	jongler	-1	1	p	0.64388
698.5853999999999	0.0	[response]	73	verb	phrase	1	15	nomatch	jongler	-1	1	p	0.64388
700.3403999999999	0.0	+	74	verb	phrase	3	1	match	loin	5	1	y	0.67113
700.8901999999999	0.2	flkz	74	verb	phrase	3	2	match	loin	5	1	y	0.67113
701.0901	0.0	+	74	verb	phrase	3	3	match	loin	5	1	y	0.67113
701.4898999999999	0.2	qnpz	74	verb	phrase	3	4	match	loin	5	1	y	0.67113
701.6898	0.0	+	74	verb	phrase	3	5	match	loin	5	1	y	0.67113
702.0897	0.2	peut	74	verb	phrase	3	6	match	loin	5	1	y	0.67113
702.2896	0.0	+	74	verb	phrase	3	7	match	loin	5	1	y	0.67113
702.6894	0.2	patiner	74	verb	phrase	3	8	match	loin	5	1	y	0.67113
702.8892999999999	0.0	+	74	verb	phrase	3	9	match	loin	5	1	y	0.67113
703.2891	0.2	loin	74	verb	phrase	3	10	match	loin	5	1	y	0.67113
703.4891	0.0	+	74	verb	phrase	3	11	match	loin	5	1	y	0.67113
703.8888999999999	0.0	+	74	verb	phrase	3	12	match	loin	5	1	y	0.67113
705.8879999999999	0.0	LOIN	74	verb	phrase	3	13	match	loin	5	1	y	0.67113
706.621	0.0	+	74	verb	phrase	3	14	match	loin	5	1	y	0.67113
706.5591	0.0	[response]	74	verb	phrase	3	15	match	loin	5	1	y	0.67113
716.3000999999999	0.0	+	75	noun	phrase	1	1	nomatch	vert	-1	1	p	0.57187
716.8498	0.2	tjf	75	noun	phrase	1	2	nomatch	vert	-1	1	p	0.57187
717.0496999999999	0.0	+	75	noun	phrase	1	3	nomatch	vert	-1	1	p	0.57187
717.4495999999999	0.2	prkz	75	noun	phrase	1	4	nomatch	vert	-1	1	p	0.57187
717.6495	0.0	+	75	noun	phrase	1	5	nomatch	vert	-1	1	p	0.57187
718.0492999999999	0.2	hls	75	noun	phrase	1	6	nomatch	vert	-1	1	p	0.57187
718.2492	0.0	+	75	noun	phrase	1	7	nomatch	vert	-1	1	p	0.57187
718.649	0.2	zjxkn	75	noun	phrase	1	8	nomatch	vert	-1	1	p	0.57187
718.8489999999999	0.0	+	75	noun	phrase	1	9	nomatch	vert	-1	1	p	0.57187
719.2489999999999	0.2	rocher	75	noun	phrase	1	10	nomatch	vert	-1	1	p	0.57187
719.4486999999999	0.0	+	75	noun	phrase	1	11	nomatch	vert	-1	1	p	0.57187
719.8485	0.0	+	75	noun	phrase	1	12	nomatch	vert	-1	1	p	0.57187
721.8475999999999	0.0	VERT	75	noun	phrase	1	13	nomatch	vert	-1	1	p	0.57187
722.4807	0.0	+	75	noun	phrase	1	14	nomatch	vert	-1	1	p	0.57187
722.4195	0.0	[response]	75	noun	phrase	1	15	nomatch	vert	-1	1	p	0.57187
724.2466	0.0	+	76	verb	phrase	1	1	match	voyager	5	1	y	0.65183
724.7963	0.2	mkvqg	76	verb	phrase	1	2	match	voyager	5	1	y	0.65183
724.9962999999999	0.0	+	76	verb	phrase	1	3	match	voyager	5	1	y	0.65183
725.3960999999999	0.2	dzlw	76	verb	phrase	1	4	match	voyager	5	1	y	0.65183
725.596	0.0	+	76	verb	phrase	1	5	match	voyager	5	1	y	0.65183
725.9957999999999	0.2	xlrj	76	verb	phrase	1	6	match	voyager	5	1	y	0.65183
726.1957	0.0	+	76	verb	phrase	1	7	match	voyager	5	1	y	0.65183
726.5954999999999	0.2	vhnj	76	verb	phrase	1	8	match	voyager	5	1	y	0.65183
726.7955	0.0	+	76	verb	phrase	1	9	match	voyager	5	1	y	0.65183
727.1953	0.2	voyager	76	verb	phrase	1	10	match	voyager	5	1	y	0.65183
727.3951999999999	0.0	+	76	verb	phrase	1	11	match	voyager	5	1	y	0.65183
727.795	0.0	+	76	verb	phrase	1	12	match	voyager	5	1	y	0.65183
729.7941	0.0	VOYAGER	76	verb	phrase	1	13	match	voyager	5	1	y	0.65183
730.5105	0.0	+	76	verb	phrase	1	14	match	voyager	5	1	y	0.65183
730.4459999999999	0.0	[response]	76	verb	phrase	1	15	match	voyager	5	1	y	0.65183
732.1931	0.0	+	77	verb	phrase	3	1	nomatch	moins	-1	1	p	0.66808
732.7428	0.2	szbnm	77	verb	phrase	3	2	nomatch	moins	-1	1	p	0.66808
732.9427999999999	0.0	+	77	verb	phrase	3	3	nomatch	moins	-1	1	p	0.66808
733.3426	0.2	sbgt	77	verb	phrase	3	4	nomatch	moins	-1	1	p	0.66808
733.5424999999999	0.0	+	77	verb	phrase	3	5	nomatch	moins	-1	1	p	0.66808
733.9422999999999	0.2	va	77	verb	phrase	3	6	nomatch	moins	-1	1	p	0.66808
734.1422	0.0	+	77	verb	phrase	3	7	nomatch	moins	-1	1	p	0.66808
734.5421	0.2	mieux	77	verb	phrase	3	8	nomatch	moins	-1	1	p	0.66808
734.742	0.0	+	77	verb	phrase	3	9	nomatch	moins	-1	1	p	0.66808
735.1418	0.2	galoper	77	verb	phrase	3	10	nomatch	moins	-1	1	p	0.66808
735.3417	0.0	+	77	verb	phrase	3	11	nomatch	moins	-1	1	p	0.66808
735.7415	0.0	+	77	verb	phrase	3	12	nomatch	moins	-1	1	p	0.66808
737.7407	0.0	MOINS	77	verb	phrase	3	13	nomatch	moins	-1	1	p	0.66808
738.4737	0.0	+	77	verb	phrase	3	14	nomatch	moins	-1	1	p	0.66808
738.4087	0.0	[response]	77	verb	phrase	3	15	nomatch	moins	-1	1	p	0.66808
740.1396	0.0	+	78	noun	phrase	4	1	match	vieux	4	1	y	0.6726900000000001
740.6893	0.2	rbln	78	noun	phrase	4	2	match	vieux	4	1	y	0.6726900000000001
740.8892999999999	0.0	+	78	noun	phrase	4	3	match	vieux	4	1	y	0.6726900000000001
741.2891	0.2	pour	78	noun	phrase	4	4	match	vieux	4	1	y	0.6726900000000001
741.4889999999999	0.0	+	78	noun	phrase	4	5	match	vieux	4	1	y	0.6726900000000001
741.8888	0.2	son	78	noun	phrase	4	6	match	vieux	4	1	y	0.6726900000000001
742.0886999999999	0.0	+	78	noun	phrase	4	7	match	vieux	4	1	y	0.6726900000000001
742.4885999999999	0.2	vieux	78	noun	phrase	4	8	match	vieux	4	1	y	0.6726900000000001
742.6885	0.0	+	78	noun	phrase	4	9	match	vieux	4	1	y	0.6726900000000001
743.0883	0.2	casier	78	noun	phrase	4	10	match	vieux	4	1	y	0.6726900000000001
743.2882	0.0	+	78	noun	phrase	4	11	match	vieux	4	1	y	0.6726900000000001
743.688	0.0	+	78	noun	phrase	4	12	match	vieux	4	1	y	0.6726900000000001
745.6871	0.0	VIEUX	78	noun	phrase	4	13	match	vieux	4	1	y	0.6726900000000001
746.4201999999999	0.0	+	78	noun	phrase	4	14	match	vieux	4	1	y	0.6726900000000001
746.3598	0.0	[response]	78	noun	phrase	4	15	match	vieux	4	1	y	0.6726900000000001
748.0861	0.0	+	79	verb	phrase	3	1	match	moins	4	1	y	0.9452
748.6359	0.2	vdbhzr	79	verb	phrase	3	2	match	moins	4	1	y	0.9452
748.8358	0.0	+	79	verb	phrase	3	3	match	moins	4	1	y	0.9452
749.2356	0.2	bml	79	verb	phrase	3	4	match	moins	4	1	y	0.9452
749.4354999999999	0.0	+	79	verb	phrase	3	5	match	moins	4	1	y	0.9452
749.8353	0.2	peut	79	verb	phrase	3	6	match	moins	4	1	y	0.9452
750.0351999999999	0.0	+	79	verb	phrase	3	7	match	moins	4	1	y	0.9452
750.4350999999999	0.2	moins	79	verb	phrase	3	8	match	moins	4	1	y	0.9452
750.635	0.0	+	79	verb	phrase	3	9	match	moins	4	1	y	0.9452
751.0347999999999	0.2	patiner	79	verb	phrase	3	10	match	moins	4	1	y	0.9452
751.2347	0.0	+	79	verb	phrase	3	11	match	moins	4	1	y	0.9452
751.6345	0.0	+	79	verb	phrase	3	12	match	moins	4	1	y	0.9452
753.6337	0.0	MOINS	79	verb	phrase	3	13	match	moins	4	1	y	0.9452
754.6332	0.0	+	79	verb	phrase	3	14	match	moins	4	1	y	0.9452
754.5789000000001	0.0	[response]	79	verb	phrase	3	15	match	moins	4	1	y	0.9452
756.0492999999999	0.0	+	80	verb	phrase	1	1	nomatch	beaucoup	-1	1	p	0.9657600000000001
756.5989999999999	0.2	qwd	80	verb	phrase	1	2	nomatch	beaucoup	-1	1	p	0.9657600000000001
756.7989	0.0	+	80	verb	phrase	1	3	nomatch	beaucoup	-1	1	p	0.9657600000000001
757.1986999999999	0.2	sbgt	80	verb	phrase	1	4	nomatch	beaucoup	-1	1	p	0.9657600000000001
757.3987	0.0	+	80	verb	phrase	1	5	nomatch	beaucoup	-1	1	p	0.9657600000000001
757.7985	0.2	px	80	verb	phrase	1	6	nomatch	beaucoup	-1	1	p	0.9657600000000001
757.9984	0.0	+	80	verb	phrase	1	7	nomatch	beaucoup	-1	1	p	0.9657600000000001
758.3982	0.2	qgvp	80	verb	phrase	1	8	nomatch	beaucoup	-1	1	p	0.9657600000000001
758.5980999999999	0.0	+	80	verb	phrase	1	9	nomatch	beaucoup	-1	1	p	0.9657600000000001
758.9979999999999	0.2	danser	80	verb	phrase	1	10	nomatch	beaucoup	-1	1	p	0.9657600000000001
759.1979	0.0	+	80	verb	phrase	1	11	nomatch	beaucoup	-1	1	p	0.9657600000000001
759.5976999999999	0.0	+	80	verb	phrase	1	12	nomatch	beaucoup	-1	1	p	0.9657600000000001
761.5967999999999	0.0	BEAUCOUP	80	verb	phrase	1	13	nomatch	beaucoup	-1	1	p	0.9657600000000001
762.6297	0.0	+	80	verb	phrase	1	14	nomatch	beaucoup	-1	1	p	0.9657600000000001
763.9957999999999	0.0	+	80	verb	phrase	1	15	nomatch	beaucoup	-1	1	p	0.9657600000000001
765.012	0.0	+	80	verb	phrase	1	16	nomatch	beaucoup	-1	1	p	0.9657600000000001
765.1119	0.0	+	80	verb	phrase	1	17	nomatch	beaucoup	-1	1	p	0.9657600000000001
766.5113	0.0	+	80	verb	phrase	1	18	nomatch	beaucoup	-1	1	p	0.9657600000000001
766.6112999999999	0.0	+	80	verb	phrase	1	19	nomatch	beaucoup	-1	1	p	0.9657600000000001
768.0106999999999	0.0	+	80	verb	phrase	1	20	nomatch	beaucoup	-1	1	p	0.9657600000000001
768.1106	0.0	+	80	verb	phrase	1	21	nomatch	beaucoup	-1	1	p	0.9657600000000001
769.51	0.0	+	80	verb	phrase	1	22	nomatch	beaucoup	-1	1	p	0.9657600000000001
769.6099999999999	0.0	+	80	verb	phrase	1	23	nomatch	beaucoup	-1	1	p	0.9657600000000001
771.0092999999999	0.0	+	80	verb	phrase	1	24	nomatch	beaucoup	-1	1	p	0.9657600000000001
771.1093	0.0	+	80	verb	phrase	1	25	nomatch	beaucoup	-1	1	p	0.9657600000000001
772.5087	0.0	+	80	verb	phrase	1	26	nomatch	beaucoup	-1	1	p	0.9657600000000001
772.6085999999999	0.0	+	80	verb	phrase	1	27	nomatch	beaucoup	-1	1	p	0.9657600000000001
774.0079999999999	0.0	+	80	verb	phrase	1	28	nomatch	beaucoup	-1	1	p	0.9657600000000001
774.108	0.0	+	80	verb	phrase	1	29	nomatch	beaucoup	-1	1	p	0.9657600000000001
775.5074	0.0	+	80	verb	phrase	1	30	nomatch	beaucoup	-1	1	p	0.9657600000000001
775.6073	0.0	+	80	verb	phrase	1	31	nomatch	beaucoup	-1	1	p	0.9657600000000001
777.0233999999999	0.0	+	80	verb	phrase	1	32	nomatch	beaucoup	-1	1	p	0.9657600000000001
777.1233	0.0	+	80	verb	phrase	1	33	nomatch	beaucoup	-1	1	p	0.9657600000000001
778.5227	0.0	+	80	verb	phrase	1	34	nomatch	beaucoup	-1	1	p	0.9657600000000001
778.6227	0.0	+	80	verb	phrase	1	35	nomatch	beaucoup	-1	1	p	0.9657600000000001
783.1872999999999	0.0	+	80	verb	phrase	1	36	nomatch	beaucoup	-1	1	p	0.9657600000000001
762.5626	0.0	[response]	80	verb	phrase	1	37	nomatch	beaucoup	-1	1	p	0.9657600000000001
