onset	duration	stim	trial_number	trial_type	trial_structure	trial_length	sequential_position	probe_type	probe	probe_position	response_correct	response_key	response_time
0.06689999999998975	0.0	+	1	noun	list	3	1	nomatch	danser	-1	1	p	0.5581200000000001
0.5501000000000005	0.2	hcgjqtm	1	noun	list	3	2	nomatch	danser	-1	1	p	0.5581200000000001
0.75	0.0	+	1	noun	list	3	3	nomatch	danser	-1	1	p	0.5581200000000001
1.149799999999999	0.2	prkz	1	noun	list	3	4	nomatch	danser	-1	1	p	0.5581200000000001
1.3496999999999986	0.0	+	1	noun	list	3	5	nomatch	danser	-1	1	p	0.5581200000000001
1.7494999999999976	0.2	peut	1	noun	list	3	6	nomatch	danser	-1	1	p	0.5581200000000001
1.9495000000000005	0.0	+	1	noun	list	3	7	nomatch	danser	-1	1	p	0.5581200000000001
2.3492999999999995	0.2	rocher	1	noun	list	3	8	nomatch	danser	-1	1	p	0.5581200000000001
2.549199999999999	0.0	+	1	noun	list	3	9	nomatch	danser	-1	1	p	0.5581200000000001
2.948999999999998	0.2	loin	1	noun	list	3	10	nomatch	danser	-1	1	p	0.5581200000000001
3.1488999999999976	0.0	+	1	noun	list	3	11	nomatch	danser	-1	1	p	0.5581200000000001
3.5488	0.0	+	1	noun	list	3	12	nomatch	danser	-1	1	p	0.5581200000000001
5.5478999999999985	0.0	DANSER	1	noun	list	3	13	nomatch	danser	-1	1	p	0.5581200000000001
6.164299999999997	0.0	+	1	noun	list	3	14	nomatch	danser	-1	1	p	0.5581200000000001
6.1059999999999945	0.0	[response]	1	noun	list	3	15	nomatch	danser	-1	1	p	0.5581200000000001
7.946799999999996	0.0	+	2	noun	list	2	1	nomatch	grenier	-1	1	p	1.1144
8.4966	0.2	bmhpw	2	noun	list	2	2	nomatch	grenier	-1	1	p	1.1144
8.6965	0.0	+	2	noun	list	2	3	nomatch	grenier	-1	1	p	1.1144
9.0963	0.2	fqnb	2	noun	list	2	4	nomatch	grenier	-1	1	p	1.1144
9.296199999999999	0.0	+	2	noun	list	2	5	nomatch	grenier	-1	1	p	1.1144
9.695999999999998	0.2	xlrj	2	noun	list	2	6	nomatch	grenier	-1	1	p	1.1144
9.895899999999997	0.0	+	2	noun	list	2	7	nomatch	grenier	-1	1	p	1.1144
10.2958	0.2	casier	2	noun	list	2	8	nomatch	grenier	-1	1	p	1.1144
10.4957	0.0	+	2	noun	list	2	9	nomatch	grenier	-1	1	p	1.1144
10.895499999999998	0.2	tard	2	noun	list	2	10	nomatch	grenier	-1	1	p	1.1144
11.095399999999998	0.0	+	2	noun	list	2	11	nomatch	grenier	-1	1	p	1.1144
11.495199999999997	0.0	+	2	noun	list	2	12	nomatch	grenier	-1	1	p	1.1144
13.494399999999999	0.0	GRENIER	2	noun	list	2	13	nomatch	grenier	-1	1	p	1.1144
14.660499999999999	0.0	+	2	noun	list	2	14	nomatch	grenier	-1	1	p	1.1144
14.608799999999988	0.0	[response]	2	noun	list	2	15	nomatch	grenier	-1	1	p	1.1144
15.893299999999996	0.0	+	3	noun	phrase	1	1	match	cendrier	5	1	y	0.5647
16.4431	0.2	phjf	3	noun	phrase	1	2	match	cendrier	5	1	y	0.5647
16.643	0.0	+	3	noun	phrase	1	3	match	cendrier	5	1	y	0.5647
17.0428	0.2	pcms	3	noun	phrase	1	4	match	cendrier	5	1	y	0.5647
17.2427	0.0	+	3	noun	phrase	1	5	match	cendrier	5	1	y	0.5647
17.6425	0.2	hls	3	noun	phrase	1	6	match	cendrier	5	1	y	0.5647
17.8425	0.0	+	3	noun	phrase	1	7	match	cendrier	5	1	y	0.5647
18.2423	0.2	jpqb	3	noun	phrase	1	8	match	cendrier	5	1	y	0.5647
18.4422	0.0	+	3	noun	phrase	1	9	match	cendrier	5	1	y	0.5647
18.842	0.2	cendrier	3	noun	phrase	1	10	match	cendrier	5	1	y	0.5647
19.0419	0.0	+	3	noun	phrase	1	11	match	cendrier	5	1	y	0.5647
19.4418	0.0	+	3	noun	phrase	1	12	match	cendrier	5	1	y	0.5647
21.4409	0.0	CENDRIER	3	noun	phrase	1	13	match	cendrier	5	1	y	0.5647
22.057299999999998	0.0	+	3	noun	phrase	1	14	match	cendrier	5	1	y	0.5647
22.0056	0.0	[response]	3	noun	phrase	1	15	match	cendrier	5	1	y	0.5647
23.839799999999997	0.0	+	4	noun	phrase	2	1	match	grand	4	1	y	0.65297
24.3896	0.2	qtvjdsb	4	noun	phrase	2	2	match	grand	4	1	y	0.65297
24.5895	0.0	+	4	noun	phrase	2	3	match	grand	4	1	y	0.65297
24.9893	0.2	nrlk	4	noun	phrase	2	4	match	grand	4	1	y	0.65297
25.1892	0.0	+	4	noun	phrase	2	5	match	grand	4	1	y	0.65297
25.589	0.2	dmf	4	noun	phrase	2	6	match	grand	4	1	y	0.65297
25.789	0.0	+	4	noun	phrase	2	7	match	grand	4	1	y	0.65297
26.1888	0.2	grand	4	noun	phrase	2	8	match	grand	4	1	y	0.65297
26.3887	0.0	+	4	noun	phrase	2	9	match	grand	4	1	y	0.65297
26.7885	0.2	grenier	4	noun	phrase	2	10	match	grand	4	1	y	0.65297
26.9884	0.0	+	4	noun	phrase	2	11	match	grand	4	1	y	0.65297
27.3883	0.0	+	4	noun	phrase	2	12	match	grand	4	1	y	0.65297
29.3874	0.0	GRAND	4	noun	phrase	2	13	match	grand	4	1	y	0.65297
30.10369999999999	0.0	+	4	noun	phrase	2	14	match	grand	4	1	y	0.65297
30.040299999999988	0.0	[response]	4	noun	phrase	2	15	match	grand	4	1	y	0.65297
31.786299999999997	0.0	+	5	verb	phrase	1	1	match	plonger	5	1	y	0.57263
32.3361	0.2	vnc	5	verb	phrase	1	2	match	plonger	5	1	y	0.57263
32.536	0.0	+	5	verb	phrase	1	3	match	plonger	5	1	y	0.57263
32.9358	0.2	dzlw	5	verb	phrase	1	4	match	plonger	5	1	y	0.57263
33.1357	0.0	+	5	verb	phrase	1	5	match	plonger	5	1	y	0.57263
33.53559999999999	0.2	px	5	verb	phrase	1	6	match	plonger	5	1	y	0.57263
33.7355	0.0	+	5	verb	phrase	1	7	match	plonger	5	1	y	0.57263
34.1353	0.2	pznhq	5	verb	phrase	1	8	match	plonger	5	1	y	0.57263
34.3352	0.0	+	5	verb	phrase	1	9	match	plonger	5	1	y	0.57263
34.735	0.2	plonger	5	verb	phrase	1	10	match	plonger	5	1	y	0.57263
34.9349	0.0	+	5	verb	phrase	1	11	match	plonger	5	1	y	0.57263
35.3348	0.0	+	5	verb	phrase	1	12	match	plonger	5	1	y	0.57263
37.3339	0.0	PLONGER	5	verb	phrase	1	13	match	plonger	5	1	y	0.57263
37.966899999999995	0.0	+	5	verb	phrase	1	14	match	plonger	5	1	y	0.57263
37.906499999999994	0.0	[response]	5	verb	phrase	1	15	match	plonger	5	1	y	0.57263
39.7495	0.0	+	6	noun	list	1	1	nomatch	adam	-1	1	p	0.77752
40.2992	0.2	qgcnkp	6	noun	list	1	2	nomatch	adam	-1	1	p	0.77752
40.4991	0.0	+	6	noun	list	1	3	nomatch	adam	-1	1	p	0.77752
40.899	0.2	wksm	6	noun	list	1	4	nomatch	adam	-1	1	p	0.77752
41.0989	0.0	+	6	noun	list	1	5	nomatch	adam	-1	1	p	0.77752
41.4987	0.2	xlrj	6	noun	list	1	6	nomatch	adam	-1	1	p	0.77752
41.6986	0.0	+	6	noun	list	1	7	nomatch	adam	-1	1	p	0.77752
42.0985	0.2	sxp	6	noun	list	1	8	nomatch	adam	-1	1	p	0.77752
42.2983	0.0	+	6	noun	list	1	9	nomatch	adam	-1	1	p	0.77752
42.6982	0.2	grenier	6	noun	list	1	10	nomatch	adam	-1	1	p	0.77752
42.8981	0.0	+	6	noun	list	1	11	nomatch	adam	-1	1	p	0.77752
43.2979	0.0	+	6	noun	list	1	12	nomatch	adam	-1	1	p	0.77752
45.297	0.0	ADAM	6	noun	list	1	13	nomatch	adam	-1	1	p	0.77752
46.129999999999995	0.0	+	6	noun	list	1	14	nomatch	adam	-1	1	p	0.77752
46.07459999999999	0.0	[response]	6	noun	list	1	15	nomatch	adam	-1	1	p	0.77752
47.696	0.0	+	7	noun	list	1	1	match	sablier	5	1	y	0.54129
48.2457	0.2	sqrw	7	noun	list	1	2	match	sablier	5	1	y	0.54129
48.44569999999999	0.0	+	7	noun	list	1	3	match	sablier	5	1	y	0.54129
48.8455	0.2	qxvn	7	noun	list	1	4	match	sablier	5	1	y	0.54129
49.0454	0.0	+	7	noun	list	1	5	match	sablier	5	1	y	0.54129
49.4452	0.2	hls	7	noun	list	1	6	match	sablier	5	1	y	0.54129
49.6451	0.0	+	7	noun	list	1	7	match	sablier	5	1	y	0.54129
50.045	0.2	pxhm	7	noun	list	1	8	match	sablier	5	1	y	0.54129
50.2449	0.0	+	7	noun	list	1	9	match	sablier	5	1	y	0.54129
50.6447	0.2	sablier	7	noun	list	1	10	match	sablier	5	1	y	0.54129
50.8446	0.0	+	7	noun	list	1	11	match	sablier	5	1	y	0.54129
51.2444	0.0	+	7	noun	list	1	12	match	sablier	5	1	y	0.54129
53.2435	0.0	SABLIER	7	noun	list	1	13	match	sablier	5	1	y	0.54129
53.8433	0.0	+	7	noun	list	1	14	match	sablier	5	1	y	0.54129
53.78479999999999	0.0	[response]	7	noun	list	1	15	match	sablier	5	1	y	0.54129
55.6425	0.0	+	8	noun	phrase	3	1	match	rouge	5	1	y	0.53816
56.1922	0.2	lxchrz	8	noun	phrase	3	2	match	rouge	5	1	y	0.53816
56.3921	0.0	+	8	noun	phrase	3	3	match	rouge	5	1	y	0.53816
56.792	0.2	wksm	8	noun	phrase	3	4	match	rouge	5	1	y	0.53816
56.9919	0.0	+	8	noun	phrase	3	5	match	rouge	5	1	y	0.53816
57.3917	0.2	leur	8	noun	phrase	3	6	match	rouge	5	1	y	0.53816
57.5916	0.0	+	8	noun	phrase	3	7	match	rouge	5	1	y	0.53816
57.99149999999999	0.2	grenier	8	noun	phrase	3	8	match	rouge	5	1	y	0.53816
58.1914	0.0	+	8	noun	phrase	3	9	match	rouge	5	1	y	0.53816
58.5912	0.2	rouge	8	noun	phrase	3	10	match	rouge	5	1	y	0.53816
58.7911	0.0	+	8	noun	phrase	3	11	match	rouge	5	1	y	0.53816
59.1909	0.0	+	8	noun	phrase	3	12	match	rouge	5	1	y	0.53816
61.19	0.0	ROUGE	8	noun	phrase	3	13	match	rouge	5	1	y	0.53816
61.7898	0.0	+	8	noun	phrase	3	14	match	rouge	5	1	y	0.53816
61.7282	0.0	[response]	8	noun	phrase	3	15	match	rouge	5	1	y	0.53816
71.58549999999998	0.0	+	9	noun	list	1	1	nomatch	rocher	-1	1	p	1.0458
72.13519999999998	0.2	pcx	9	noun	list	1	2	nomatch	rocher	-1	1	p	1.0458
72.3351	0.0	+	9	noun	list	1	3	nomatch	rocher	-1	1	p	1.0458
72.735	0.2	prkz	9	noun	list	1	4	nomatch	rocher	-1	1	p	1.0458
72.93489999999998	0.0	+	9	noun	list	1	5	nomatch	rocher	-1	1	p	1.0458
73.33469999999998	0.2	xlrj	9	noun	list	1	6	nomatch	rocher	-1	1	p	1.0458
73.5346	0.0	+	9	noun	list	1	7	nomatch	rocher	-1	1	p	1.0458
73.9344	0.2	jxhzl	9	noun	list	1	8	nomatch	rocher	-1	1	p	1.0458
74.13429999999998	0.0	+	9	noun	list	1	9	nomatch	rocher	-1	1	p	1.0458
74.53419999999998	0.2	tablier	9	noun	list	1	10	nomatch	rocher	-1	1	p	1.0458
74.7341	0.0	+	9	noun	list	1	11	nomatch	rocher	-1	1	p	1.0458
75.1339	0.0	+	9	noun	list	1	12	nomatch	rocher	-1	1	p	1.0458
77.14969999999998	0.0	ROCHER	9	noun	list	1	13	nomatch	rocher	-1	1	p	1.0458
78.24919999999999	0.0	+	9	noun	list	1	14	nomatch	rocher	-1	1	p	1.0458
78.1955	0.0	[response]	9	noun	list	1	15	nomatch	rocher	-1	1	p	1.0458
79.54860000000001	0.0	+	10	verb	phrase	3	1	match	trop	4	1	y	0.71398
80.09839999999998	0.2	jmd	10	verb	phrase	3	2	match	trop	4	1	y	0.71398
80.2983	0.0	+	10	verb	phrase	3	3	match	trop	4	1	y	0.71398
80.6981	0.2	qxvn	10	verb	phrase	3	4	match	trop	4	1	y	0.71398
80.89799999999998	0.0	+	10	verb	phrase	3	5	match	trop	4	1	y	0.71398
81.29789999999998	0.2	peut	10	verb	phrase	3	6	match	trop	4	1	y	0.71398
81.4978	0.0	+	10	verb	phrase	3	7	match	trop	4	1	y	0.71398
81.8976	0.2	trop	10	verb	phrase	3	8	match	trop	4	1	y	0.71398
82.09749999999998	0.0	+	10	verb	phrase	3	9	match	trop	4	1	y	0.71398
82.49759999999999	0.2	parader	10	verb	phrase	3	10	match	trop	4	1	y	0.71398
82.6973	0.0	+	10	verb	phrase	3	11	match	trop	4	1	y	0.71398
83.0971	0.0	+	10	verb	phrase	3	12	match	trop	4	1	y	0.71398
85.0962	0.0	TROP	10	verb	phrase	3	13	match	trop	4	1	y	0.71398
85.8625	0.0	+	10	verb	phrase	3	14	match	trop	4	1	y	0.71398
85.81020000000002	0.0	[response]	10	verb	phrase	3	15	match	trop	4	1	y	0.71398
87.4951	0.0	+	11	noun	phrase	3	1	nomatch	panier	-1	1	p	0.62294
88.0449	0.2	schwn	11	noun	phrase	3	2	nomatch	panier	-1	1	p	0.62294
88.24479999999998	0.0	+	11	noun	phrase	3	3	nomatch	panier	-1	1	p	0.62294
88.64459999999998	0.2	prkz	11	noun	phrase	3	4	nomatch	panier	-1	1	p	0.62294
88.8445	0.0	+	11	noun	phrase	3	5	nomatch	panier	-1	1	p	0.62294
89.2444	0.2	son	11	noun	phrase	3	6	nomatch	panier	-1	1	p	0.62294
89.44429999999998	0.0	+	11	noun	phrase	3	7	nomatch	panier	-1	1	p	0.62294
89.84409999999998	0.2	vieux	11	noun	phrase	3	8	nomatch	panier	-1	1	p	0.62294
90.044	0.0	+	11	noun	phrase	3	9	nomatch	panier	-1	1	p	0.62294
90.4438	0.2	rocher	11	noun	phrase	3	10	nomatch	panier	-1	1	p	0.62294
90.64369999999998	0.0	+	11	noun	phrase	3	11	nomatch	panier	-1	1	p	0.62294
91.04359999999998	0.0	+	11	noun	phrase	3	12	nomatch	panier	-1	1	p	0.62294
93.04269999999998	0.0	PANIER	11	noun	phrase	3	13	nomatch	panier	-1	1	p	0.62294
93.7257	0.0	+	11	noun	phrase	3	14	nomatch	panier	-1	1	p	0.62294
93.6656	0.0	[response]	11	noun	phrase	3	15	nomatch	panier	-1	1	p	0.62294
95.44160000000001	0.0	+	12	noun	phrase	2	1	match	bleu	5	1	y	0.6413800000000001
95.99149999999999	0.2	dwq	12	noun	phrase	2	2	match	bleu	5	1	y	0.6413800000000001
96.1913	0.0	+	12	noun	phrase	2	3	match	bleu	5	1	y	0.6413800000000001
96.5911	0.2	fqnb	12	noun	phrase	2	4	match	bleu	5	1	y	0.6413800000000001
96.79099999999998	0.0	+	12	noun	phrase	2	5	match	bleu	5	1	y	0.6413800000000001
97.19089999999998	0.2	hls	12	noun	phrase	2	6	match	bleu	5	1	y	0.6413800000000001
97.3908	0.0	+	12	noun	phrase	2	7	match	bleu	5	1	y	0.6413800000000001
97.7906	0.2	cendrier	12	noun	phrase	2	8	match	bleu	5	1	y	0.6413800000000001
97.99049999999998	0.0	+	12	noun	phrase	2	9	match	bleu	5	1	y	0.6413800000000001
98.39029999999998	0.2	bleu	12	noun	phrase	2	10	match	bleu	5	1	y	0.6413800000000001
98.5903	0.0	+	12	noun	phrase	2	11	match	bleu	5	1	y	0.6413800000000001
98.9901	0.0	+	12	noun	phrase	2	12	match	bleu	5	1	y	0.6413800000000001
100.9892	0.0	BLEU	12	noun	phrase	2	13	match	bleu	5	1	y	0.6413800000000001
101.6889	0.0	+	12	noun	phrase	2	14	match	bleu	5	1	y	0.6413800000000001
101.6306	0.0	[response]	12	noun	phrase	2	15	match	bleu	5	1	y	0.6413800000000001
103.3881	0.0	+	13	noun	phrase	4	1	match	pour	2	1	y	0.78812
103.9379	0.2	vsr	13	noun	phrase	4	2	match	pour	2	1	y	0.78812
104.13779999999998	0.0	+	13	noun	phrase	4	3	match	pour	2	1	y	0.78812
104.53759999999998	0.2	pour	13	noun	phrase	4	4	match	pour	2	1	y	0.78812
104.7375	0.0	+	13	noun	phrase	4	5	match	pour	2	1	y	0.78812
105.1374	0.2	son	13	noun	phrase	4	6	match	pour	2	1	y	0.78812
105.33729999999998	0.0	+	13	noun	phrase	4	7	match	pour	2	1	y	0.78812
105.73709999999998	0.2	petit	13	noun	phrase	4	8	match	pour	2	1	y	0.78812
105.937	0.0	+	13	noun	phrase	4	9	match	pour	2	1	y	0.78812
106.3368	0.2	grenier	13	noun	phrase	4	10	match	pour	2	1	y	0.78812
106.53669999999998	0.0	+	13	noun	phrase	4	11	match	pour	2	1	y	0.78812
106.93659999999998	0.0	+	13	noun	phrase	4	12	match	pour	2	1	y	0.78812
108.93569999999998	0.0	POUR	13	noun	phrase	4	13	match	pour	2	1	y	0.78812
109.78529999999999	0.0	+	13	noun	phrase	4	14	match	pour	2	1	y	0.78812
109.7238	0.0	[response]	13	noun	phrase	4	15	match	pour	2	1	y	0.78812
111.33460000000001	0.0	+	14	noun	phrase	1	1	nomatch	leur	-1	1	p	0.50815
111.88439999999999	0.2	vmlj	14	noun	phrase	1	2	nomatch	leur	-1	1	p	0.50815
112.0843	0.0	+	14	noun	phrase	1	3	nomatch	leur	-1	1	p	0.50815
112.4841	0.2	prkz	14	noun	phrase	1	4	nomatch	leur	-1	1	p	0.50815
112.68399999999998	0.0	+	14	noun	phrase	1	5	nomatch	leur	-1	1	p	0.50815
113.08389999999999	0.2	dmf	14	noun	phrase	1	6	nomatch	leur	-1	1	p	0.50815
113.2838	0.0	+	14	noun	phrase	1	7	nomatch	leur	-1	1	p	0.50815
113.6836	0.2	kjhb	14	noun	phrase	1	8	nomatch	leur	-1	1	p	0.50815
113.88359999999999	0.0	+	14	noun	phrase	1	9	nomatch	leur	-1	1	p	0.50815
114.3	0.2	casier	14	noun	phrase	1	10	nomatch	leur	-1	1	p	0.50815
114.49989999999998	0.0	+	14	noun	phrase	1	11	nomatch	leur	-1	1	p	0.50815
114.89969999999998	0.0	+	14	noun	phrase	1	12	nomatch	leur	-1	1	p	0.50815
116.89889999999998	0.0	LEUR	14	noun	phrase	1	13	nomatch	leur	-1	1	p	0.50815
117.4653	0.0	+	14	noun	phrase	1	14	nomatch	leur	-1	1	p	0.50815
117.407	0.0	[response]	14	noun	phrase	1	15	nomatch	leur	-1	1	p	0.50815
119.29779999999998	0.0	+	15	verb	phrase	1	1	nomatch	loin	-1	1	p	0.66264
119.84759999999999	0.2	ntv	15	verb	phrase	1	2	nomatch	loin	-1	1	p	0.66264
120.0475	0.0	+	15	verb	phrase	1	3	nomatch	loin	-1	1	p	0.66264
120.4473	0.2	qxvn	15	verb	phrase	1	4	nomatch	loin	-1	1	p	0.66264
120.64719999999998	0.0	+	15	verb	phrase	1	5	nomatch	loin	-1	1	p	0.66264
121.04699999999998	0.2	drzp	15	verb	phrase	1	6	nomatch	loin	-1	1	p	0.66264
121.247	0.0	+	15	verb	phrase	1	7	nomatch	loin	-1	1	p	0.66264
121.6468	0.2	qfjplbr	15	verb	phrase	1	8	nomatch	loin	-1	1	p	0.66264
121.84669999999998	0.0	+	15	verb	phrase	1	9	nomatch	loin	-1	1	p	0.66264
122.24649999999998	0.2	tard	15	verb	phrase	1	10	nomatch	loin	-1	1	p	0.66264
122.4464	0.0	+	15	verb	phrase	1	11	nomatch	loin	-1	1	p	0.66264
122.8462	0.0	+	15	verb	phrase	1	12	nomatch	loin	-1	1	p	0.66264
124.8454	0.0	LOIN	15	verb	phrase	1	13	nomatch	loin	-1	1	p	0.66264
125.56169999999999	0.0	+	15	verb	phrase	1	14	nomatch	loin	-1	1	p	0.66264
125.508	0.0	[response]	15	verb	phrase	1	15	nomatch	loin	-1	1	p	0.66264
127.2443	0.0	+	16	noun	phrase	2	1	match	tablier	5	1	y	1.2838
127.7941	0.2	tgprn	16	noun	phrase	2	2	match	tablier	5	1	y	1.2838
127.99399999999999	0.0	+	16	noun	phrase	2	3	match	tablier	5	1	y	1.2838
128.3938	0.2	nrlk	16	noun	phrase	2	4	match	tablier	5	1	y	1.2838
128.5937	0.0	+	16	noun	phrase	2	5	match	tablier	5	1	y	1.2838
128.99349999999998	0.2	gzps	16	noun	phrase	2	6	match	tablier	5	1	y	1.2838
129.19349999999997	0.0	+	16	noun	phrase	2	7	match	tablier	5	1	y	1.2838
129.5933	0.2	grand	16	noun	phrase	2	8	match	tablier	5	1	y	1.2838
129.7932	0.0	+	16	noun	phrase	2	9	match	tablier	5	1	y	1.2838
130.19299999999998	0.2	tablier	16	noun	phrase	2	10	match	tablier	5	1	y	1.2838
130.3929	0.0	+	16	noun	phrase	2	11	match	tablier	5	1	y	1.2838
130.7928	0.0	+	16	noun	phrase	2	12	match	tablier	5	1	y	1.2838
132.7919	0.0	TABLIER	16	noun	phrase	2	13	match	tablier	5	1	y	1.2838
134.1413	0.0	+	16	noun	phrase	2	14	match	tablier	5	1	y	1.2838
134.0756	0.0	[response]	16	noun	phrase	2	15	match	tablier	5	1	y	1.2838
143.1873	0.0	+	17	noun	list	1	1	match	tôt	5	1	y	0.52353
143.7371	0.2	pkf	17	noun	list	1	2	match	tôt	5	1	y	0.52353
143.937	0.0	+	17	noun	list	1	3	match	tôt	5	1	y	0.52353
144.33679999999998	0.2	gbph	17	noun	list	1	4	match	tôt	5	1	y	0.52353
144.5367	0.0	+	17	noun	list	1	5	match	tôt	5	1	y	0.52353
144.93649999999997	0.2	px	17	noun	list	1	6	match	tôt	5	1	y	0.52353
145.13639999999998	0.0	+	17	noun	list	1	7	match	tôt	5	1	y	0.52353
145.53629999999998	0.2	jdfbnzg	17	noun	list	1	8	match	tôt	5	1	y	0.52353
145.7362	0.0	+	17	noun	list	1	9	match	tôt	5	1	y	0.52353
146.13599999999997	0.2	tôt	17	noun	list	1	10	match	tôt	5	1	y	0.52353
146.33589999999998	0.0	+	17	noun	list	1	11	match	tôt	5	1	y	0.52353
146.7357	0.0	+	17	noun	list	1	12	match	tôt	5	1	y	0.52353
148.7348	0.0	TÔT	17	noun	list	1	13	match	tôt	5	1	y	0.52353
149.3179	0.0	+	17	noun	list	1	14	match	tôt	5	1	y	0.52353
149.2584	0.0	[response]	17	noun	list	1	15	match	tôt	5	1	y	0.52353
151.1338	0.0	+	18	noun	phrase	4	1	nomatch	jongler	-1	1	p	0.60537
151.7002	0.2	fdlkr	18	noun	phrase	4	2	nomatch	jongler	-1	1	p	0.60537
151.88369999999998	0.0	+	18	noun	phrase	4	3	nomatch	jongler	-1	1	p	0.60537
152.3	0.2	sous	18	noun	phrase	4	4	nomatch	jongler	-1	1	p	0.60537
152.49989999999997	0.0	+	18	noun	phrase	4	5	nomatch	jongler	-1	1	p	0.60537
152.8997	0.2	mon	18	noun	phrase	4	6	nomatch	jongler	-1	1	p	0.60537
153.0996	0.0	+	18	noun	phrase	4	7	nomatch	jongler	-1	1	p	0.60537
153.49939999999998	0.2	nouveau	18	noun	phrase	4	8	nomatch	jongler	-1	1	p	0.60537
153.6993	0.0	+	18	noun	phrase	4	9	nomatch	jongler	-1	1	p	0.60537
154.0992	0.2	sablier	18	noun	phrase	4	10	nomatch	jongler	-1	1	p	0.60537
154.2991	0.0	+	18	noun	phrase	4	11	nomatch	jongler	-1	1	p	0.60537
154.69889999999998	0.0	+	18	noun	phrase	4	12	nomatch	jongler	-1	1	p	0.60537
156.69799999999998	0.0	JONGLER	18	noun	phrase	4	13	nomatch	jongler	-1	1	p	0.60537
157.3644	0.0	+	18	noun	phrase	4	14	nomatch	jongler	-1	1	p	0.60537
157.3034	0.0	[response]	18	noun	phrase	4	15	nomatch	jongler	-1	1	p	0.60537
159.09699999999998	0.0	+	19	noun	list	1	1	match	tôt	5	1	y	0.45482
159.6467	0.2	jzncxg	19	noun	list	1	2	match	tôt	5	1	y	0.45482
159.84659999999997	0.0	+	19	noun	list	1	3	match	tôt	5	1	y	0.45482
160.2464	0.2	nrlk	19	noun	list	1	4	match	tôt	5	1	y	0.45482
160.44639999999998	0.0	+	19	noun	list	1	5	match	tôt	5	1	y	0.45482
160.8462	0.2	xlrj	19	noun	list	1	6	match	tôt	5	1	y	0.45482
161.04609999999997	0.0	+	19	noun	list	1	7	match	tôt	5	1	y	0.45482
161.4459	0.2	xzjdfvh	19	noun	list	1	8	match	tôt	5	1	y	0.45482
161.6458	0.0	+	19	noun	list	1	9	match	tôt	5	1	y	0.45482
162.0457	0.2	tôt	19	noun	list	1	10	match	tôt	5	1	y	0.45482
162.24559999999997	0.0	+	19	noun	list	1	11	match	tôt	5	1	y	0.45482
162.6454	0.0	+	19	noun	list	1	12	match	tôt	5	1	y	0.45482
164.6445	0.0	TÔT	19	noun	list	1	13	match	tôt	5	1	y	0.45482
165.161	0.0	+	19	noun	list	1	14	match	tôt	5	1	y	0.45482
165.09929999999997	0.0	[response]	19	noun	list	1	15	match	tôt	5	1	y	0.45482
167.04340000000002	0.0	+	20	verb	phrase	1	1	nomatch	blanc	-1	1	p	0.68044
167.59319999999997	0.2	npfcrdk	20	verb	phrase	1	2	nomatch	blanc	-1	1	p	0.68044
167.79309999999998	0.0	+	20	verb	phrase	1	3	nomatch	blanc	-1	1	p	0.68044
168.19299999999998	0.2	qxrj	20	verb	phrase	1	4	nomatch	blanc	-1	1	p	0.68044
168.3929	0.0	+	20	verb	phrase	1	5	nomatch	blanc	-1	1	p	0.68044
168.79269999999997	0.2	drzp	20	verb	phrase	1	6	nomatch	blanc	-1	1	p	0.68044
168.99259999999998	0.0	+	20	verb	phrase	1	7	nomatch	blanc	-1	1	p	0.68044
169.3924	0.2	zqdpfvt	20	verb	phrase	1	8	nomatch	blanc	-1	1	p	0.68044
169.59230000000002	0.0	+	20	verb	phrase	1	9	nomatch	blanc	-1	1	p	0.68044
169.99219999999997	0.2	mieux	20	verb	phrase	1	10	nomatch	blanc	-1	1	p	0.68044
170.19209999999998	0.0	+	20	verb	phrase	1	11	nomatch	blanc	-1	1	p	0.68044
170.5919	0.0	+	20	verb	phrase	1	12	nomatch	blanc	-1	1	p	0.68044
172.591	0.0	BLANC	20	verb	phrase	1	13	nomatch	blanc	-1	1	p	0.68044
173.324	0.0	+	20	verb	phrase	1	14	nomatch	blanc	-1	1	p	0.68044
173.2715	0.0	[response]	20	verb	phrase	1	15	nomatch	blanc	-1	1	p	0.68044
174.99	0.0	+	21	noun	list	4	1	nomatch	parader	-1	1	p	0.8140000000000001
175.53969999999998	0.2	ztdplc	21	noun	list	4	2	nomatch	parader	-1	1	p	0.8140000000000001
175.7396	0.0	+	21	noun	list	4	3	nomatch	parader	-1	1	p	0.8140000000000001
176.13940000000002	0.2	sous	21	noun	list	4	4	nomatch	parader	-1	1	p	0.8140000000000001
176.3394	0.0	+	21	noun	list	4	5	nomatch	parader	-1	1	p	0.8140000000000001
176.73919999999998	0.2	peut	21	noun	list	4	6	nomatch	parader	-1	1	p	0.8140000000000001
176.9391	0.0	+	21	noun	list	4	7	nomatch	parader	-1	1	p	0.8140000000000001
177.33889999999997	0.2	sablier	21	noun	list	4	8	nomatch	parader	-1	1	p	0.8140000000000001
177.53879999999998	0.0	+	21	noun	list	4	9	nomatch	parader	-1	1	p	0.8140000000000001
177.93869999999998	0.2	vite	21	noun	list	4	10	nomatch	parader	-1	1	p	0.8140000000000001
178.1386	0.0	+	21	noun	list	4	11	nomatch	parader	-1	1	p	0.8140000000000001
178.53839999999997	0.0	+	21	noun	list	4	12	nomatch	parader	-1	1	p	0.8140000000000001
180.53750000000002	0.0	PARADER	21	noun	list	4	13	nomatch	parader	-1	1	p	0.8140000000000001
181.4038	0.0	+	21	noun	list	4	14	nomatch	parader	-1	1	p	0.8140000000000001
181.3515	0.0	[response]	21	noun	list	4	15	nomatch	parader	-1	1	p	0.8140000000000001
182.93649999999997	0.0	+	22	noun	phrase	1	1	nomatch	rocher	-1	1	p	0.61638
183.4862	0.2	wcvgs	22	noun	phrase	1	2	nomatch	rocher	-1	1	p	0.61638
183.6861	0.0	+	22	noun	phrase	1	3	nomatch	rocher	-1	1	p	0.61638
184.086	0.2	fqnb	22	noun	phrase	1	4	nomatch	rocher	-1	1	p	0.61638
184.28589999999997	0.0	+	22	noun	phrase	1	5	nomatch	rocher	-1	1	p	0.61638
184.6857	0.2	dmf	22	noun	phrase	1	6	nomatch	rocher	-1	1	p	0.61638
184.8856	0.0	+	22	noun	phrase	1	7	nomatch	rocher	-1	1	p	0.61638
185.28539999999998	0.2	zjxkn	22	noun	phrase	1	8	nomatch	rocher	-1	1	p	0.61638
185.4853	0.0	+	22	noun	phrase	1	9	nomatch	rocher	-1	1	p	0.61638
185.8852	0.2	cendrier	22	noun	phrase	1	10	nomatch	rocher	-1	1	p	0.61638
186.0851	0.0	+	22	noun	phrase	1	11	nomatch	rocher	-1	1	p	0.61638
186.48489999999998	0.0	+	22	noun	phrase	1	12	nomatch	rocher	-1	1	p	0.61638
188.48399999999998	0.0	ROCHER	22	noun	phrase	1	13	nomatch	rocher	-1	1	p	0.61638
189.16699999999997	0.0	+	22	noun	phrase	1	14	nomatch	rocher	-1	1	p	0.61638
189.10039999999998	0.0	[response]	22	noun	phrase	1	15	nomatch	rocher	-1	1	p	0.61638
190.89960000000002	0.0	+	23	verb	phrase	3	1	match	chasser	5	1	y	0.6403200000000001
191.44940000000003	0.2	fqctlh	23	verb	phrase	3	2	match	chasser	5	1	y	0.6403200000000001
191.64929999999998	0.0	+	23	verb	phrase	3	3	match	chasser	5	1	y	0.6403200000000001
192.0491	0.2	xmfn	23	verb	phrase	3	4	match	chasser	5	1	y	0.6403200000000001
192.24900000000002	0.0	+	23	verb	phrase	3	5	match	chasser	5	1	y	0.6403200000000001
192.64890000000003	0.2	peut	23	verb	phrase	3	6	match	chasser	5	1	y	0.6403200000000001
192.84879999999998	0.0	+	23	verb	phrase	3	7	match	chasser	5	1	y	0.6403200000000001
193.2486	0.2	moins	23	verb	phrase	3	8	match	chasser	5	1	y	0.6403200000000001
193.44850000000002	0.0	+	23	verb	phrase	3	9	match	chasser	5	1	y	0.6403200000000001
193.8483	0.2	chasser	23	verb	phrase	3	10	match	chasser	5	1	y	0.6403200000000001
194.04829999999998	0.0	+	23	verb	phrase	3	11	match	chasser	5	1	y	0.6403200000000001
194.4481	0.0	+	23	verb	phrase	3	12	match	chasser	5	1	y	0.6403200000000001
196.4472	0.0	CHASSER	23	verb	phrase	3	13	match	chasser	5	1	y	0.6403200000000001
197.14690000000002	0.0	+	23	verb	phrase	3	14	match	chasser	5	1	y	0.6403200000000001
197.08750000000003	0.0	[response]	23	verb	phrase	3	15	match	chasser	5	1	y	0.6403200000000001
198.84610000000004	0.0	+	24	noun	list	3	1	match	leur	3	1	y	0.69422
199.39589999999998	0.2	ftl	24	noun	list	3	2	match	leur	3	1	y	0.69422
199.5958	0.0	+	24	noun	list	3	3	match	leur	3	1	y	0.69422
199.99560000000002	0.2	bml	24	noun	list	3	4	match	leur	3	1	y	0.69422
200.19549999999998	0.0	+	24	noun	list	3	5	match	leur	3	1	y	0.69422
200.59539999999998	0.2	leur	24	noun	list	3	6	match	leur	3	1	y	0.69422
200.7953	0.0	+	24	noun	list	3	7	match	leur	3	1	y	0.69422
201.19510000000002	0.2	mieux	24	noun	list	3	8	match	leur	3	1	y	0.69422
201.39499999999998	0.0	+	24	noun	list	3	9	match	leur	3	1	y	0.69422
201.7948	0.2	tablier	24	noun	list	3	10	match	leur	3	1	y	0.69422
201.99470000000002	0.0	+	24	noun	list	3	11	match	leur	3	1	y	0.69422
202.39460000000003	0.0	+	24	noun	list	3	12	match	leur	3	1	y	0.69422
204.39370000000002	0.0	LEUR	24	noun	list	3	13	match	leur	3	1	y	0.69422
205.14339999999999	0.0	+	24	noun	list	3	14	match	leur	3	1	y	0.69422
205.0879	0.0	[response]	24	noun	list	3	15	match	leur	3	1	y	0.69422
214.78910000000002	0.0	+	25	verb	phrase	3	1	nomatch	danser	-1	1	p	0.71
215.33890000000002	0.2	pnlw	25	verb	phrase	3	2	nomatch	danser	-1	1	p	0.71
215.53880000000004	0.0	+	25	verb	phrase	3	3	nomatch	danser	-1	1	p	0.71
215.9386	0.2	xmfn	25	verb	phrase	3	4	nomatch	danser	-1	1	p	0.71
216.13850000000002	0.0	+	25	verb	phrase	3	5	nomatch	danser	-1	1	p	0.71
216.53840000000002	0.2	peut	25	verb	phrase	3	6	nomatch	danser	-1	1	p	0.71
216.73829999999998	0.0	+	25	verb	phrase	3	7	nomatch	danser	-1	1	p	0.71
217.1381	0.2	trop	25	verb	phrase	3	8	nomatch	danser	-1	1	p	0.71
217.33800000000002	0.0	+	25	verb	phrase	3	9	nomatch	danser	-1	1	p	0.71
217.7378	0.2	plonger	25	verb	phrase	3	10	nomatch	danser	-1	1	p	0.71
217.9377	0.0	+	25	verb	phrase	3	11	nomatch	danser	-1	1	p	0.71
218.3376	0.0	+	25	verb	phrase	3	12	nomatch	danser	-1	1	p	0.71
220.3367	0.0	DANSER	25	verb	phrase	3	13	nomatch	danser	-1	1	p	0.71
221.103	0.0	+	25	verb	phrase	3	14	nomatch	danser	-1	1	p	0.71
221.0467	0.0	[response]	25	verb	phrase	3	15	nomatch	danser	-1	1	p	0.71
230.74869999999999	0.0	+	26	noun	phrase	4	1	nomatch	rocher	-1	1	p	0.7856
231.2985	0.2	qhndt	26	noun	phrase	4	2	nomatch	rocher	-1	1	p	0.7856
231.4984	0.0	+	26	noun	phrase	4	3	nomatch	rocher	-1	1	p	0.7856
231.8983	0.2	sans	26	noun	phrase	4	4	nomatch	rocher	-1	1	p	0.7856
232.09820000000002	0.0	+	26	noun	phrase	4	5	nomatch	rocher	-1	1	p	0.7856
232.498	0.2	mon	26	noun	phrase	4	6	nomatch	rocher	-1	1	p	0.7856
232.6979	0.0	+	26	noun	phrase	4	7	nomatch	rocher	-1	1	p	0.7856
233.09770000000003	0.2	voilier	26	noun	phrase	4	8	nomatch	rocher	-1	1	p	0.7856
233.2976	0.0	+	26	noun	phrase	4	9	nomatch	rocher	-1	1	p	0.7856
233.6975	0.2	blanc	26	noun	phrase	4	10	nomatch	rocher	-1	1	p	0.7856
233.8974	0.0	+	26	noun	phrase	4	11	nomatch	rocher	-1	1	p	0.7856
234.29720000000003	0.0	+	26	noun	phrase	4	12	nomatch	rocher	-1	1	p	0.7856
236.29650000000004	0.0	ROCHER	26	noun	phrase	4	13	nomatch	rocher	-1	1	p	0.7856
237.14589999999998	0.0	+	26	noun	phrase	4	14	nomatch	rocher	-1	1	p	0.7856
237.08210000000003	0.0	[response]	26	noun	phrase	4	15	nomatch	rocher	-1	1	p	0.7856
246.69170000000003	0.0	+	27	noun	list	4	1	nomatch	vite	-1	1	p	0.78147
247.24150000000003	0.2	pfvkgqs	27	noun	list	4	2	nomatch	vite	-1	1	p	0.78147
247.4414	0.0	+	27	noun	list	4	3	nomatch	vite	-1	1	p	0.78147
247.84120000000001	0.2	pour	27	noun	list	4	4	nomatch	vite	-1	1	p	0.78147
248.0412	0.0	+	27	noun	list	4	5	nomatch	vite	-1	1	p	0.78147
248.44100000000003	0.2	doit	27	noun	list	4	6	nomatch	vite	-1	1	p	0.78147
248.6409	0.0	+	27	noun	list	4	7	nomatch	vite	-1	1	p	0.78147
249.04070000000002	0.2	tablier	27	noun	list	4	8	nomatch	vite	-1	1	p	0.78147
249.24060000000003	0.0	+	27	noun	list	4	9	nomatch	vite	-1	1	p	0.78147
249.6404	0.2	tard	27	noun	list	4	10	nomatch	vite	-1	1	p	0.78147
249.8404	0.0	+	27	noun	list	4	11	nomatch	vite	-1	1	p	0.78147
250.24020000000002	0.0	+	27	noun	list	4	12	nomatch	vite	-1	1	p	0.78147
252.23930000000001	0.0	VITE	27	noun	list	4	13	nomatch	vite	-1	1	p	0.78147
253.07229999999998	0.0	+	27	noun	list	4	14	nomatch	vite	-1	1	p	0.78147
253.0208	0.0	[response]	27	noun	list	4	15	nomatch	vite	-1	1	p	0.78147
254.63819999999998	0.0	+	28	noun	phrase	3	1	nomatch	luc	-1	1	p	0.61468
255.188	0.2	vksdthc	28	noun	phrase	3	2	nomatch	luc	-1	1	p	0.61468
255.3879	0.0	+	28	noun	phrase	3	3	nomatch	luc	-1	1	p	0.61468
255.78770000000003	0.2	prkz	28	noun	phrase	3	4	nomatch	luc	-1	1	p	0.61468
255.98770000000002	0.0	+	28	noun	phrase	3	5	nomatch	luc	-1	1	p	0.61468
256.3875	0.2	mon	28	noun	phrase	3	6	nomatch	luc	-1	1	p	0.61468
256.5874	0.0	+	28	noun	phrase	3	7	nomatch	luc	-1	1	p	0.61468
256.98720000000003	0.2	grand	28	noun	phrase	3	8	nomatch	luc	-1	1	p	0.61468
257.1871	0.0	+	28	noun	phrase	3	9	nomatch	luc	-1	1	p	0.61468
257.5869	0.2	cendrier	28	noun	phrase	3	10	nomatch	luc	-1	1	p	0.61468
257.7869	0.0	+	28	noun	phrase	3	11	nomatch	luc	-1	1	p	0.61468
258.18670000000003	0.0	+	28	noun	phrase	3	12	nomatch	luc	-1	1	p	0.61468
260.18580000000003	0.0	LUC	28	noun	phrase	3	13	nomatch	luc	-1	1	p	0.61468
260.8688	0.0	+	28	noun	phrase	3	14	nomatch	luc	-1	1	p	0.61468
260.8005	0.0	[response]	28	noun	phrase	3	15	nomatch	luc	-1	1	p	0.61468
262.5847	0.0	+	29	noun	list	1	1	match	trop	5	1	y	0.50366
263.1345	0.2	mwqct	29	noun	list	1	2	match	trop	5	1	y	0.50366
263.3344	0.0	+	29	noun	list	1	3	match	trop	5	1	y	0.50366
263.7342	0.2	dzlw	29	noun	list	1	4	match	trop	5	1	y	0.50366
263.9341	0.0	+	29	noun	list	1	5	match	trop	5	1	y	0.50366
264.334	0.2	hls	29	noun	list	1	6	match	trop	5	1	y	0.50366
264.5339	0.0	+	29	noun	list	1	7	match	trop	5	1	y	0.50366
264.9337	0.2	rpgzlc	29	noun	list	1	8	match	trop	5	1	y	0.50366
265.1336	0.0	+	29	noun	list	1	9	match	trop	5	1	y	0.50366
265.53360000000004	0.2	trop	29	noun	list	1	10	match	trop	5	1	y	0.50366
265.75	0.0	+	29	noun	list	1	11	match	trop	5	1	y	0.50366
266.1499	0.0	+	29	noun	list	1	12	match	trop	5	1	y	0.50366
268.149	0.0	TROP	29	noun	list	1	13	match	trop	5	1	y	0.50366
268.7154	0.0	+	29	noun	list	1	14	match	trop	5	1	y	0.50366
268.6526	0.0	[response]	29	noun	list	1	15	match	trop	5	1	y	0.50366
270.5479	0.0	+	30	noun	phrase	4	1	match	vert	5	1	y	0.66558
271.09770000000003	0.2	rvblpns	30	noun	phrase	4	2	match	vert	5	1	y	0.66558
271.2976	0.0	+	30	noun	phrase	4	3	match	vert	5	1	y	0.66558
271.6974	0.2	sous	30	noun	phrase	4	4	match	vert	5	1	y	0.66558
271.89730000000003	0.0	+	30	noun	phrase	4	5	match	vert	5	1	y	0.66558
272.2971	0.2	leur	30	noun	phrase	4	6	match	vert	5	1	y	0.66558
272.4971	0.0	+	30	noun	phrase	4	7	match	vert	5	1	y	0.66558
272.8969	0.2	tablier	30	noun	phrase	4	8	match	vert	5	1	y	0.66558
273.09680000000003	0.0	+	30	noun	phrase	4	9	match	vert	5	1	y	0.66558
273.4966	0.2	vert	30	noun	phrase	4	10	match	vert	5	1	y	0.66558
273.6965	0.0	+	30	noun	phrase	4	11	match	vert	5	1	y	0.66558
274.0964	0.0	+	30	noun	phrase	4	12	match	vert	5	1	y	0.66558
276.0955	0.0	VERT	30	noun	phrase	4	13	match	vert	5	1	y	0.66558
276.8285	0.0	+	30	noun	phrase	4	14	match	vert	5	1	y	0.66558
276.761	0.0	[response]	30	noun	phrase	4	15	match	vert	5	1	y	0.66558
278.4944	0.0	+	31	noun	phrase	1	1	match	voilier	5	1	y	0.58277
279.0442	0.2	zfswgnv	31	noun	phrase	1	2	match	voilier	5	1	y	0.58277
279.2441	0.0	+	31	noun	phrase	1	3	match	voilier	5	1	y	0.58277
279.64390000000003	0.2	wksm	31	noun	phrase	1	4	match	voilier	5	1	y	0.58277
279.8438	0.0	+	31	noun	phrase	1	5	match	voilier	5	1	y	0.58277
280.2437	0.2	dmf	31	noun	phrase	1	6	match	voilier	5	1	y	0.58277
280.44350000000003	0.0	+	31	noun	phrase	1	7	match	voilier	5	1	y	0.58277
280.84340000000003	0.2	khlmr	31	noun	phrase	1	8	match	voilier	5	1	y	0.58277
281.0433	0.0	+	31	noun	phrase	1	9	match	voilier	5	1	y	0.58277
281.4431	0.2	voilier	31	noun	phrase	1	10	match	voilier	5	1	y	0.58277
281.64300000000003	0.0	+	31	noun	phrase	1	11	match	voilier	5	1	y	0.58277
282.04290000000003	0.0	+	31	noun	phrase	1	12	match	voilier	5	1	y	0.58277
284.04200000000003	0.0	VOILIER	31	noun	phrase	1	13	match	voilier	5	1	y	0.58277
284.6917	0.0	+	31	noun	phrase	1	14	match	voilier	5	1	y	0.58277
284.6247	0.0	[response]	31	noun	phrase	1	15	match	voilier	5	1	y	0.58277
286.4409	0.0	+	32	verb	phrase	1	1	match	loin	5	1	y	0.4884
286.9907	0.2	pjlx	32	verb	phrase	1	2	match	loin	5	1	y	0.4884
287.1906	0.0	+	32	verb	phrase	1	3	match	loin	5	1	y	0.4884
287.5904	0.2	xmfn	32	verb	phrase	1	4	match	loin	5	1	y	0.4884
287.7903	0.0	+	32	verb	phrase	1	5	match	loin	5	1	y	0.4884
288.19010000000003	0.2	drzp	32	verb	phrase	1	6	match	loin	5	1	y	0.4884
288.3901	0.0	+	32	verb	phrase	1	7	match	loin	5	1	y	0.4884
288.7899	0.2	cpsqfjd	32	verb	phrase	1	8	match	loin	5	1	y	0.4884
288.9898	0.0	+	32	verb	phrase	1	9	match	loin	5	1	y	0.4884
289.38960000000003	0.2	loin	32	verb	phrase	1	10	match	loin	5	1	y	0.4884
289.5895	0.0	+	32	verb	phrase	1	11	match	loin	5	1	y	0.4884
289.9893	0.0	+	32	verb	phrase	1	12	match	loin	5	1	y	0.4884
291.9885	0.0	LOIN	32	verb	phrase	1	13	match	loin	5	1	y	0.4884
292.5382	0.0	+	32	verb	phrase	1	14	match	loin	5	1	y	0.4884
292.4769	0.0	[response]	32	verb	phrase	1	15	match	loin	5	1	y	0.4884
294.3874	0.0	+	33	noun	phrase	1	1	match	tablier	5	1	y	0.46323
294.9372	0.2	fzbmch	33	noun	phrase	1	2	match	tablier	5	1	y	0.46323
295.13710000000003	0.0	+	33	noun	phrase	1	3	match	tablier	5	1	y	0.46323
295.5369	0.2	wksm	33	noun	phrase	1	4	match	tablier	5	1	y	0.46323
295.7368	0.0	+	33	noun	phrase	1	5	match	tablier	5	1	y	0.46323
296.1367	0.2	dmf	33	noun	phrase	1	6	match	tablier	5	1	y	0.46323
296.33660000000003	0.0	+	33	noun	phrase	1	7	match	tablier	5	1	y	0.46323
296.7364	0.2	bgkvn	33	noun	phrase	1	8	match	tablier	5	1	y	0.46323
296.9363	0.0	+	33	noun	phrase	1	9	match	tablier	5	1	y	0.46323
297.3361	0.2	tablier	33	noun	phrase	1	10	match	tablier	5	1	y	0.46323
297.536	0.0	+	33	noun	phrase	1	11	match	tablier	5	1	y	0.46323
297.9359	0.0	+	33	noun	phrase	1	12	match	tablier	5	1	y	0.46323
299.935	0.0	TABLIER	33	noun	phrase	1	13	match	tablier	5	1	y	0.46323
300.45140000000004	0.0	+	33	noun	phrase	1	14	match	tablier	5	1	y	0.46323
300.39820000000003	0.0	[response]	33	noun	phrase	1	15	match	tablier	5	1	y	0.46323
302.3339	0.0	+	34	noun	phrase	3	1	match	son	3	1	y	0.5369000000000002
302.88370000000003	0.2	nbjphg	34	noun	phrase	3	2	match	son	3	1	y	0.5369000000000002
303.0836	0.0	+	34	noun	phrase	3	3	match	son	3	1	y	0.5369000000000002
303.50010000000003	0.2	nrlk	34	noun	phrase	3	4	match	son	3	1	y	0.5369000000000002
303.7	0.0	+	34	noun	phrase	3	5	match	son	3	1	y	0.5369000000000002
304.0998	0.2	son	34	noun	phrase	3	6	match	son	3	1	y	0.5369000000000002
304.29970000000003	0.0	+	34	noun	phrase	3	7	match	son	3	1	y	0.5369000000000002
304.6995	0.2	rocher	34	noun	phrase	3	8	match	son	3	1	y	0.5369000000000002
304.8995	0.0	+	34	noun	phrase	3	9	match	son	3	1	y	0.5369000000000002
305.2993	0.2	blanc	34	noun	phrase	3	10	match	son	3	1	y	0.5369000000000002
305.49920000000003	0.0	+	34	noun	phrase	3	11	match	son	3	1	y	0.5369000000000002
305.899	0.0	+	34	noun	phrase	3	12	match	son	3	1	y	0.5369000000000002
307.8981	0.0	SON	34	noun	phrase	3	13	match	son	3	1	y	0.5369000000000002
308.4979	0.0	+	34	noun	phrase	3	14	match	son	3	1	y	0.5369000000000002
308.435	0.0	[response]	34	noun	phrase	3	15	match	son	3	1	y	0.5369000000000002
310.2971	0.0	+	35	noun	list	2	1	nomatch	mon	-1	1	p	0.72078
310.84680000000003	0.2	crdfns	35	noun	list	2	2	nomatch	mon	-1	1	p	0.72078
311.0468	0.0	+	35	noun	list	2	3	nomatch	mon	-1	1	p	0.72078
311.4466	0.2	wksm	35	noun	list	2	4	nomatch	mon	-1	1	p	0.72078
311.6465	0.0	+	35	noun	list	2	5	nomatch	mon	-1	1	p	0.72078
312.04630000000003	0.2	xlrj	35	noun	list	2	6	nomatch	mon	-1	1	p	0.72078
312.2462	0.0	+	35	noun	list	2	7	nomatch	mon	-1	1	p	0.72078
312.6461	0.2	grenier	35	noun	list	2	8	nomatch	mon	-1	1	p	0.72078
312.846	0.0	+	35	noun	list	2	9	nomatch	mon	-1	1	p	0.72078
313.24580000000003	0.2	loin	35	noun	list	2	10	nomatch	mon	-1	1	p	0.72078
313.4457	0.0	+	35	noun	list	2	11	nomatch	mon	-1	1	p	0.72078
313.8455	0.0	+	35	noun	list	2	12	nomatch	mon	-1	1	p	0.72078
315.8446	0.0	MON	35	noun	list	2	13	nomatch	mon	-1	1	p	0.72078
316.62760000000003	0.0	+	35	noun	list	2	14	nomatch	mon	-1	1	p	0.72078
316.56540000000007	0.0	[response]	35	noun	list	2	15	nomatch	mon	-1	1	p	0.72078
318.2436	0.0	+	36	noun	list	1	1	match	voilier	5	1	y	0.46491
318.7933	0.2	nlrdq	36	noun	list	1	2	match	voilier	5	1	y	0.46491
318.99330000000003	0.0	+	36	noun	list	1	3	match	voilier	5	1	y	0.46491
319.3931	0.2	sbgt	36	noun	list	1	4	match	voilier	5	1	y	0.46491
319.593	0.0	+	36	noun	list	1	5	match	voilier	5	1	y	0.46491
319.9928	0.2	gzps	36	noun	list	1	6	match	voilier	5	1	y	0.46491
320.1927	0.0	+	36	noun	list	1	7	match	voilier	5	1	y	0.46491
320.5926	0.2	pxhm	36	noun	list	1	8	match	voilier	5	1	y	0.46491
320.7925	0.0	+	36	noun	list	1	9	match	voilier	5	1	y	0.46491
321.1923	0.2	voilier	36	noun	list	1	10	match	voilier	5	1	y	0.46491
321.3922	0.0	+	36	noun	list	1	11	match	voilier	5	1	y	0.46491
321.79200000000003	0.0	+	36	noun	list	1	12	match	voilier	5	1	y	0.46491
323.79110000000003	0.0	VOILIER	36	noun	list	1	13	match	voilier	5	1	y	0.46491
324.3243	0.0	+	36	noun	list	1	14	match	voilier	5	1	y	0.46491
324.25600000000003	0.0	[response]	36	noun	list	1	15	match	voilier	5	1	y	0.46491
326.19010000000003	0.0	+	37	noun	list	2	1	match	tôt	5	1	y	0.44932
326.73990000000003	0.2	htz	37	noun	list	2	2	match	tôt	5	1	y	0.44932
326.9398	0.0	+	37	noun	list	2	3	match	tôt	5	1	y	0.44932
327.3396	0.2	fqnb	37	noun	list	2	4	match	tôt	5	1	y	0.44932
327.53950000000003	0.0	+	37	noun	list	2	5	match	tôt	5	1	y	0.44932
327.9393	0.2	xlrj	37	noun	list	2	6	match	tôt	5	1	y	0.44932
328.1392	0.0	+	37	noun	list	2	7	match	tôt	5	1	y	0.44932
328.5391	0.2	cendrier	37	noun	list	2	8	match	tôt	5	1	y	0.44932
328.73900000000003	0.0	+	37	noun	list	2	9	match	tôt	5	1	y	0.44932
329.1388	0.2	tôt	37	noun	list	2	10	match	tôt	5	1	y	0.44932
329.3387	0.0	+	37	noun	list	2	11	match	tôt	5	1	y	0.44932
329.7385	0.0	+	37	noun	list	2	12	match	tôt	5	1	y	0.44932
331.7377	0.0	TÔT	37	noun	list	2	13	match	tôt	5	1	y	0.44932
332.2541	0.0	+	37	noun	list	2	14	match	tôt	5	1	y	0.44932
332.187	0.0	[response]	37	noun	list	2	15	match	tôt	5	1	y	0.44932
334.1366	0.0	+	38	verb	phrase	3	1	nomatch	va	-1	1	p	0.7799000000000001
334.6864	0.2	sdlhz	38	verb	phrase	3	2	nomatch	va	-1	1	p	0.7799000000000001
334.8863	0.0	+	38	verb	phrase	3	3	nomatch	va	-1	1	p	0.7799000000000001
335.28610000000003	0.2	qxvn	38	verb	phrase	3	4	nomatch	va	-1	1	p	0.7799000000000001
335.486	0.0	+	38	verb	phrase	3	5	nomatch	va	-1	1	p	0.7799000000000001
335.8858	0.2	doit	38	verb	phrase	3	6	nomatch	va	-1	1	p	0.7799000000000001
336.08570000000003	0.0	+	38	verb	phrase	3	7	nomatch	va	-1	1	p	0.7799000000000001
336.48560000000003	0.2	parader	38	verb	phrase	3	8	nomatch	va	-1	1	p	0.7799000000000001
336.6855	0.0	+	38	verb	phrase	3	9	nomatch	va	-1	1	p	0.7799000000000001
337.0853	0.2	loin	38	verb	phrase	3	10	nomatch	va	-1	1	p	0.7799000000000001
337.28520000000003	0.0	+	38	verb	phrase	3	11	nomatch	va	-1	1	p	0.7799000000000001
337.685	0.0	+	38	verb	phrase	3	12	nomatch	va	-1	1	p	0.7799000000000001
339.68420000000003	0.0	VA	38	verb	phrase	3	13	nomatch	va	-1	1	p	0.7799000000000001
340.5171	0.0	+	38	verb	phrase	3	14	nomatch	va	-1	1	p	0.7799000000000001
340.46410000000003	0.0	[response]	38	verb	phrase	3	15	nomatch	va	-1	1	p	0.7799000000000001
342.0998	0.0	+	39	verb	list	1	1	nomatch	bleu	-1	1	p	0.49579
342.6495	0.2	vrxbpkh	39	verb	list	1	2	nomatch	bleu	-1	1	p	0.49579
342.8494	0.0	+	39	verb	list	1	3	nomatch	bleu	-1	1	p	0.49579
343.24920000000003	0.2	bml	39	verb	list	1	4	nomatch	bleu	-1	1	p	0.49579
343.4492	0.0	+	39	verb	list	1	5	nomatch	bleu	-1	1	p	0.49579
343.849	0.2	hls	39	verb	list	1	6	nomatch	bleu	-1	1	p	0.49579
344.0489	0.0	+	39	verb	list	1	7	nomatch	bleu	-1	1	p	0.49579
344.44870000000003	0.2	zrblps	39	verb	list	1	8	nomatch	bleu	-1	1	p	0.49579
344.6486	0.0	+	39	verb	list	1	9	nomatch	bleu	-1	1	p	0.49579
345.0485	0.2	blanc	39	verb	list	1	10	nomatch	bleu	-1	1	p	0.49579
345.2484	0.0	+	39	verb	list	1	11	nomatch	bleu	-1	1	p	0.49579
345.64820000000003	0.0	+	39	verb	list	1	12	nomatch	bleu	-1	1	p	0.49579
347.64730000000003	0.0	BLEU	39	verb	list	1	13	nomatch	bleu	-1	1	p	0.49579
348.19710000000003	0.0	+	39	verb	list	1	14	nomatch	bleu	-1	1	p	0.49579
348.1431	0.0	[response]	39	verb	list	1	15	nomatch	bleu	-1	1	p	0.49579
350.04630000000003	0.0	+	40	noun	phrase	1	1	nomatch	grenier	-1	1	p	0.80008
350.596	0.2	dkcgvx	40	noun	phrase	1	2	nomatch	grenier	-1	1	p	0.80008
350.7959	0.0	+	40	noun	phrase	1	3	nomatch	grenier	-1	1	p	0.80008
351.1958	0.2	wksm	40	noun	phrase	1	4	nomatch	grenier	-1	1	p	0.80008
351.39570000000003	0.0	+	40	noun	phrase	1	5	nomatch	grenier	-1	1	p	0.80008
351.7955	0.2	gzps	40	noun	phrase	1	6	nomatch	grenier	-1	1	p	0.80008
351.9954	0.0	+	40	noun	phrase	1	7	nomatch	grenier	-1	1	p	0.80008
352.3952	0.2	dhnx	40	noun	phrase	1	8	nomatch	grenier	-1	1	p	0.80008
352.5951	0.0	+	40	noun	phrase	1	9	nomatch	grenier	-1	1	p	0.80008
352.995	0.2	casier	40	noun	phrase	1	10	nomatch	grenier	-1	1	p	0.80008
353.1949	0.0	+	40	noun	phrase	1	11	nomatch	grenier	-1	1	p	0.80008
353.5947	0.0	+	40	noun	phrase	1	12	nomatch	grenier	-1	1	p	0.80008
355.5938	0.0	GRENIER	40	noun	phrase	1	13	nomatch	grenier	-1	1	p	0.80008
356.4601	0.0	+	40	noun	phrase	1	14	nomatch	grenier	-1	1	p	0.80008
356.39390000000003	0.0	[response]	40	noun	phrase	1	15	nomatch	grenier	-1	1	p	0.80008
357.9928	0.0	+	41	verb	list	2	1	match	bleu	5	1	y	0.64639
358.5425	0.2	njfdx	41	verb	list	2	2	match	bleu	5	1	y	0.64639
358.74240000000003	0.0	+	41	verb	list	2	3	match	bleu	5	1	y	0.64639
359.14230000000003	0.2	sbgt	41	verb	list	2	4	match	bleu	5	1	y	0.64639
359.3422	0.0	+	41	verb	list	2	5	match	bleu	5	1	y	0.64639
359.742	0.2	dmf	41	verb	list	2	6	match	bleu	5	1	y	0.64639
359.94190000000003	0.0	+	41	verb	list	2	7	match	bleu	5	1	y	0.64639
360.3417	0.2	galoper	41	verb	list	2	8	match	bleu	5	1	y	0.64639
360.5416	0.0	+	41	verb	list	2	9	match	bleu	5	1	y	0.64639
360.9415	0.2	bleu	41	verb	list	2	10	match	bleu	5	1	y	0.64639
361.14140000000003	0.0	+	41	verb	list	2	11	match	bleu	5	1	y	0.64639
361.5412	0.0	+	41	verb	list	2	12	match	bleu	5	1	y	0.64639
363.5403	0.0	BLEU	41	verb	list	2	13	match	bleu	5	1	y	0.64639
364.24	0.0	+	41	verb	list	2	14	match	bleu	5	1	y	0.64639
364.18670000000003	0.0	[response]	41	verb	list	2	15	match	bleu	5	1	y	0.64639
365.9393	0.0	+	42	verb	phrase	1	1	nomatch	peut	-1	1	p	0.67415
366.48900000000003	0.2	dpwg	42	verb	phrase	1	2	nomatch	peut	-1	1	p	0.67415
366.6889	0.0	+	42	verb	phrase	1	3	nomatch	peut	-1	1	p	0.67415
367.0888	0.2	qxvn	42	verb	phrase	1	4	nomatch	peut	-1	1	p	0.67415
367.2887	0.0	+	42	verb	phrase	1	5	nomatch	peut	-1	1	p	0.67415
367.68850000000003	0.2	xlrj	42	verb	phrase	1	6	nomatch	peut	-1	1	p	0.67415
367.8884	0.0	+	42	verb	phrase	1	7	nomatch	peut	-1	1	p	0.67415
368.2882	0.2	pvhblsk	42	verb	phrase	1	8	nomatch	peut	-1	1	p	0.67415
368.48810000000003	0.0	+	42	verb	phrase	1	9	nomatch	peut	-1	1	p	0.67415
368.88800000000003	0.2	loin	42	verb	phrase	1	10	nomatch	peut	-1	1	p	0.67415
369.0879	0.0	+	42	verb	phrase	1	11	nomatch	peut	-1	1	p	0.67415
369.4877	0.0	+	42	verb	phrase	1	12	nomatch	peut	-1	1	p	0.67415
371.4868	0.0	PEUT	42	verb	phrase	1	13	nomatch	peut	-1	1	p	0.67415
372.2198	0.0	+	42	verb	phrase	1	14	nomatch	peut	-1	1	p	0.67415
372.161	0.0	[response]	42	verb	phrase	1	15	nomatch	peut	-1	1	p	0.67415
373.8858	0.0	+	43	noun	list	4	1	match	luc	2	1	y	1.3218000000000003
374.4355	0.2	lmhnsdv	43	noun	list	4	2	match	luc	2	1	y	1.3218000000000003
374.6354	0.0	+	43	noun	list	4	3	match	luc	2	1	y	1.3218000000000003
375.0353	0.2	luc	43	noun	list	4	4	match	luc	2	1	y	1.3218000000000003
375.2352	0.0	+	43	noun	list	4	5	match	luc	2	1	y	1.3218000000000003
375.635	0.2	mon	43	noun	list	4	6	match	luc	2	1	y	1.3218000000000003
375.8349	0.0	+	43	noun	list	4	7	match	luc	2	1	y	1.3218000000000003
376.23470000000003	0.2	beaucoup	43	noun	list	4	8	match	luc	2	1	y	1.3218000000000003
376.4346	0.0	+	43	noun	list	4	9	match	luc	2	1	y	1.3218000000000003
376.8345	0.2	tablier	43	noun	list	4	10	match	luc	2	1	y	1.3218000000000003
377.0344	0.0	+	43	noun	list	4	11	match	luc	2	1	y	1.3218000000000003
377.43420000000003	0.0	+	43	noun	list	4	12	match	luc	2	1	y	1.3218000000000003
379.45	0.0	LUC	43	noun	list	4	13	match	luc	2	1	y	1.3218000000000003
380.8327	0.0	+	43	noun	list	4	14	match	luc	2	1	y	1.3218000000000003
380.7718	0.0	[response]	43	noun	list	4	15	match	luc	2	1	y	1.3218000000000003
397.8419	0.0	+	44	noun	list	3	1	nomatch	grand	-1	1	p	0.70183
398.3917	0.2	hnl	44	noun	list	3	2	nomatch	grand	-1	1	p	0.70183
398.5916	0.0	+	44	noun	list	3	3	nomatch	grand	-1	1	p	0.70183
398.9914	0.2	wksm	44	noun	list	3	4	nomatch	grand	-1	1	p	0.70183
399.1913	0.0	+	44	noun	list	3	5	nomatch	grand	-1	1	p	0.70183
399.5911	0.2	peut	44	noun	list	3	6	nomatch	grand	-1	1	p	0.70183
399.791	0.0	+	44	noun	list	3	7	nomatch	grand	-1	1	p	0.70183
400.1909	0.2	casier	44	noun	list	3	8	nomatch	grand	-1	1	p	0.70183
400.3908	0.0	+	44	noun	list	3	9	nomatch	grand	-1	1	p	0.70183
400.7906	0.2	vite	44	noun	list	3	10	nomatch	grand	-1	1	p	0.70183
400.9905	0.0	+	44	noun	list	3	11	nomatch	grand	-1	1	p	0.70183
401.3903	0.0	+	44	noun	list	3	12	nomatch	grand	-1	1	p	0.70183
403.3895	0.0	GRAND	44	noun	list	3	13	nomatch	grand	-1	1	p	0.70183
404.1558	0.0	+	44	noun	list	3	14	nomatch	grand	-1	1	p	0.70183
404.0913	0.0	[response]	44	noun	list	3	15	nomatch	grand	-1	1	p	0.70183
413.7849	0.0	+	45	noun	list	2	1	match	mieux	4	1	y	0.55863
414.3346	0.2	grlnfx	45	noun	list	2	2	match	mieux	4	1	y	0.55863
414.5346	0.0	+	45	noun	list	2	3	match	mieux	4	1	y	0.55863
414.9344	0.2	qxvn	45	noun	list	2	4	match	mieux	4	1	y	0.55863
415.1343	0.0	+	45	noun	list	2	5	match	mieux	4	1	y	0.55863
415.5341	0.2	dmf	45	noun	list	2	6	match	mieux	4	1	y	0.55863
415.73400000000004	0.0	+	45	noun	list	2	7	match	mieux	4	1	y	0.55863
416.1339	0.2	mieux	45	noun	list	2	8	match	mieux	4	1	y	0.55863
416.3338	0.0	+	45	noun	list	2	9	match	mieux	4	1	y	0.55863
416.7336	0.2	rocher	45	noun	list	2	10	match	mieux	4	1	y	0.55863
416.9336	0.0	+	45	noun	list	2	11	match	mieux	4	1	y	0.55863
417.35	0.0	+	45	noun	list	2	12	match	mieux	4	1	y	0.55863
419.3491	0.0	MIEUX	45	noun	list	2	13	match	mieux	4	1	y	0.55863
419.9655	0.0	+	45	noun	list	2	14	match	mieux	4	1	y	0.55863
419.90770000000003	0.0	[response]	45	noun	list	2	15	match	mieux	4	1	y	0.55863
429.7445	0.0	+	46	verb	list	1	1	nomatch	doit	-1	1	p	0.8914100000000001
430.2943	0.2	kxrqj	46	verb	list	1	2	nomatch	doit	-1	1	p	0.8914100000000001
430.4946	0.0	+	46	verb	list	1	3	nomatch	doit	-1	1	p	0.8914100000000001
430.894	0.2	xmfn	46	verb	list	1	4	nomatch	doit	-1	1	p	0.8914100000000001
431.0939	0.0	+	46	verb	list	1	5	nomatch	doit	-1	1	p	0.8914100000000001
431.4937	0.2	gzps	46	verb	list	1	6	nomatch	doit	-1	1	p	0.8914100000000001
431.69370000000004	0.0	+	46	verb	list	1	7	nomatch	doit	-1	1	p	0.8914100000000001
432.0935	0.2	bgkvn	46	verb	list	1	8	nomatch	doit	-1	1	p	0.8914100000000001
432.2934	0.0	+	46	verb	list	1	9	nomatch	doit	-1	1	p	0.8914100000000001
432.6932	0.2	galoper	46	verb	list	1	10	nomatch	doit	-1	1	p	0.8914100000000001
432.8931	0.0	+	46	verb	list	1	11	nomatch	doit	-1	1	p	0.8914100000000001
433.293	0.0	+	46	verb	list	1	12	nomatch	doit	-1	1	p	0.8914100000000001
435.2921	0.0	DOIT	46	verb	list	1	13	nomatch	doit	-1	1	p	0.8914100000000001
436.24170000000004	0.0	+	46	verb	list	1	14	nomatch	doit	-1	1	p	0.8914100000000001
436.18350000000004	0.0	[response]	46	verb	list	1	15	nomatch	doit	-1	1	p	0.8914100000000001
437.69100000000003	0.0	+	47	noun	list	3	1	nomatch	mieux	-1	1	p	0.77169
438.24080000000004	0.2	jbkl	47	noun	list	3	2	nomatch	mieux	-1	1	p	0.77169
438.4407	0.0	+	47	noun	list	3	3	nomatch	mieux	-1	1	p	0.77169
438.8405	0.2	qnpz	47	noun	list	3	4	nomatch	mieux	-1	1	p	0.77169
439.04040000000003	0.0	+	47	noun	list	3	5	nomatch	mieux	-1	1	p	0.77169
439.44030000000004	0.2	son	47	noun	list	3	6	nomatch	mieux	-1	1	p	0.77169
439.6402	0.0	+	47	noun	list	3	7	nomatch	mieux	-1	1	p	0.77169
440.04	0.2	moins	47	noun	list	3	8	nomatch	mieux	-1	1	p	0.77169
440.23990000000003	0.0	+	47	noun	list	3	9	nomatch	mieux	-1	1	p	0.77169
440.6397	0.2	sablier	47	noun	list	3	10	nomatch	mieux	-1	1	p	0.77169
440.8397	0.0	+	47	noun	list	3	11	nomatch	mieux	-1	1	p	0.77169
441.2395	0.0	+	47	noun	list	3	12	nomatch	mieux	-1	1	p	0.77169
443.2386	0.0	MIEUX	47	noun	list	3	13	nomatch	mieux	-1	1	p	0.77169
444.0716	0.0	+	47	noun	list	3	14	nomatch	mieux	-1	1	p	0.77169
444.0103000000001	0.0	[response]	47	noun	list	3	15	nomatch	mieux	-1	1	p	0.77169
445.63750000000005	0.0	+	48	verb	list	3	1	nomatch	doit	-1	1	p	0.6813300000000001
446.18730000000005	0.2	tvxzsq	48	verb	list	3	2	nomatch	doit	-1	1	p	0.6813300000000001
446.3872	0.0	+	48	verb	list	3	3	nomatch	doit	-1	1	p	0.6813300000000001
446.78700000000003	0.2	qxrj	48	verb	list	3	4	nomatch	doit	-1	1	p	0.6813300000000001
446.98699999999997	0.0	+	48	verb	list	3	5	nomatch	doit	-1	1	p	0.6813300000000001
447.3868	0.2	mon	48	verb	list	3	6	nomatch	doit	-1	1	p	0.6813300000000001
447.58670000000006	0.0	+	48	verb	list	3	7	nomatch	doit	-1	1	p	0.6813300000000001
447.9865	0.2	patiner	48	verb	list	3	8	nomatch	doit	-1	1	p	0.6813300000000001
448.18640000000005	0.0	+	48	verb	list	3	9	nomatch	doit	-1	1	p	0.6813300000000001
448.58619999999996	0.2	rouge	48	verb	list	3	10	nomatch	doit	-1	1	p	0.6813300000000001
448.78610000000003	0.0	+	48	verb	list	3	11	nomatch	doit	-1	1	p	0.6813300000000001
449.18600000000004	0.0	+	48	verb	list	3	12	nomatch	doit	-1	1	p	0.6813300000000001
451.18510000000003	0.0	DOIT	48	verb	list	3	13	nomatch	doit	-1	1	p	0.6813300000000001
451.9181	0.0	+	48	verb	list	3	14	nomatch	doit	-1	1	p	0.6813300000000001
451.8664	0.0	[response]	48	verb	list	3	15	nomatch	doit	-1	1	p	0.6813300000000001
453.58400000000006	0.0	+	49	verb	list	1	1	nomatch	beau	-1	1	p	0.77291
454.13380000000006	0.2	fjqctx	49	verb	list	1	2	nomatch	beau	-1	1	p	0.77291
454.3337	0.0	+	49	verb	list	1	3	nomatch	beau	-1	1	p	0.77291
454.73350000000005	0.2	mkg	49	verb	list	1	4	nomatch	beau	-1	1	p	0.77291
454.93359999999996	0.0	+	49	verb	list	1	5	nomatch	beau	-1	1	p	0.77291
455.34990000000005	0.2	drzp	49	verb	list	1	6	nomatch	beau	-1	1	p	0.77291
455.5498	0.0	+	49	verb	list	1	7	nomatch	beau	-1	1	p	0.77291
455.9497	0.2	qfjplbr	49	verb	list	1	8	nomatch	beau	-1	1	p	0.77291
456.14970000000005	0.0	+	49	verb	list	1	9	nomatch	beau	-1	1	p	0.77291
456.5494	0.2	petit	49	verb	list	1	10	nomatch	beau	-1	1	p	0.77291
456.74930000000006	0.0	+	49	verb	list	1	11	nomatch	beau	-1	1	p	0.77291
457.1491	0.0	+	49	verb	list	1	12	nomatch	beau	-1	1	p	0.77291
459.14830000000006	0.0	BEAU	49	verb	list	1	13	nomatch	beau	-1	1	p	0.77291
459.98120000000006	0.0	+	49	verb	list	1	14	nomatch	beau	-1	1	p	0.77291
459.9212	0.0	[response]	49	verb	list	1	15	nomatch	beau	-1	1	p	0.77291
461.5472	0.0	+	50	noun	phrase	1	1	match	noir	5	1	y	0.74081
462.097	0.2	fhk	50	noun	phrase	1	2	match	noir	5	1	y	0.74081
462.29690000000005	0.0	+	50	noun	phrase	1	3	match	noir	5	1	y	0.74081
462.69669999999996	0.2	prkz	50	noun	phrase	1	4	match	noir	5	1	y	0.74081
462.89660000000003	0.0	+	50	noun	phrase	1	5	match	noir	5	1	y	0.74081
463.2966	0.2	dmf	50	noun	phrase	1	6	match	noir	5	1	y	0.74081
463.4963	0.0	+	50	noun	phrase	1	7	match	noir	5	1	y	0.74081
463.8962	0.2	dqcvwpn	50	noun	phrase	1	8	match	noir	5	1	y	0.74081
464.0961	0.0	+	50	noun	phrase	1	9	match	noir	5	1	y	0.74081
464.4959	0.2	noir	50	noun	phrase	1	10	match	noir	5	1	y	0.74081
464.69579999999996	0.0	+	50	noun	phrase	1	11	match	noir	5	1	y	0.74081
465.0956	0.0	+	50	noun	phrase	1	12	match	noir	5	1	y	0.74081
467.09479999999996	0.0	NOIR	50	noun	phrase	1	13	match	noir	5	1	y	0.74081
467.8944	0.0	+	50	noun	phrase	1	14	match	noir	5	1	y	0.74081
467.8356	0.0	[response]	50	noun	phrase	1	15	match	noir	5	1	y	0.74081
469.49440000000004	0.0	+	51	verb	list	3	1	match	petit	4	1	y	0.55748
470.0435	0.2	qpwrgbz	51	verb	list	3	2	match	petit	4	1	y	0.55748
470.24340000000007	0.0	+	51	verb	list	3	3	match	petit	4	1	y	0.55748
470.6432	0.2	wksm	51	verb	list	3	4	match	petit	4	1	y	0.55748
470.84310000000005	0.0	+	51	verb	list	3	5	match	petit	4	1	y	0.55748
471.24289999999996	0.2	peut	51	verb	list	3	6	match	petit	4	1	y	0.55748
471.44280000000003	0.0	+	51	verb	list	3	7	match	petit	4	1	y	0.55748
471.84270000000004	0.2	petit	51	verb	list	3	8	match	petit	4	1	y	0.55748
472.0426	0.0	+	51	verb	list	3	9	match	petit	4	1	y	0.55748
472.4424	0.2	galoper	51	verb	list	3	10	match	petit	4	1	y	0.55748
472.6423	0.0	+	51	verb	list	3	11	match	petit	4	1	y	0.55748
473.0421	0.0	+	51	verb	list	3	12	match	petit	4	1	y	0.55748
475.0413	0.0	PETIT	51	verb	list	3	13	match	petit	4	1	y	0.55748
475.6577	0.0	+	51	verb	list	3	14	match	petit	4	1	y	0.55748
475.5988	0.0	[response]	51	verb	list	3	15	match	petit	4	1	y	0.55748
477.4402	0.0	+	52	verb	phrase	4	1	match	paul	2	1	y	0.62103
477.99	0.2	pfsjdt	52	verb	phrase	4	2	match	paul	2	1	y	0.62103
478.18989999999997	0.0	+	52	verb	phrase	4	3	match	paul	2	1	y	0.62103
478.5897	0.2	paul	52	verb	phrase	4	4	match	paul	2	1	y	0.62103
478.78960000000006	0.0	+	52	verb	phrase	4	5	match	paul	2	1	y	0.62103
479.1894	0.2	doit	52	verb	phrase	4	6	match	paul	2	1	y	0.62103
479.38930000000005	0.0	+	52	verb	phrase	4	7	match	paul	2	1	y	0.62103
479.78920000000005	0.2	mieux	52	verb	phrase	4	8	match	paul	2	1	y	0.62103
479.9891	0.0	+	52	verb	phrase	4	9	match	paul	2	1	y	0.62103
480.38890000000004	0.2	plonger	52	verb	phrase	4	10	match	paul	2	1	y	0.62103
480.5888	0.0	+	52	verb	phrase	4	11	match	paul	2	1	y	0.62103
480.9886	0.0	+	52	verb	phrase	4	12	match	paul	2	1	y	0.62103
482.9878	0.0	PAUL	52	verb	phrase	4	13	match	paul	2	1	y	0.62103
483.6708	0.0	+	52	verb	phrase	4	14	match	paul	2	1	y	0.62103
483.6088	0.0	[response]	52	verb	phrase	4	15	match	paul	2	1	y	0.62103
493.3999	0.0	+	53	noun	list	4	1	match	jean	2	1	y	0.6891200000000001
493.94960000000003	0.2	lvfgdzw	53	noun	list	4	2	match	jean	2	1	y	0.6891200000000001
494.1495	0.0	+	53	noun	list	4	3	match	jean	2	1	y	0.6891200000000001
494.5493	0.2	jean	53	noun	list	4	4	match	jean	2	1	y	0.6891200000000001
494.74930000000006	0.0	+	53	noun	list	4	5	match	jean	2	1	y	0.6891200000000001
495.1491	0.2	son	53	noun	list	4	6	match	jean	2	1	y	0.6891200000000001
495.34900000000005	0.0	+	53	noun	list	4	7	match	jean	2	1	y	0.6891200000000001
495.74879999999996	0.2	trop	53	noun	list	4	8	match	jean	2	1	y	0.6891200000000001
495.94870000000003	0.0	+	53	noun	list	4	9	match	jean	2	1	y	0.6891200000000001
496.34860000000003	0.2	grenier	53	noun	list	4	10	match	jean	2	1	y	0.6891200000000001
496.5485	0.0	+	53	noun	list	4	11	match	jean	2	1	y	0.6891200000000001
496.9483	0.0	+	53	noun	list	4	12	match	jean	2	1	y	0.6891200000000001
498.9474	0.0	JEAN	53	noun	list	4	13	match	jean	2	1	y	0.6891200000000001
499.6971	0.0	+	53	noun	list	4	14	match	jean	2	1	y	0.6891200000000001
499.63650000000007	0.0	[response]	53	noun	list	4	15	match	jean	2	1	y	0.6891200000000001
501.3464	0.0	+	54	verb	list	3	1	match	nouveau	4	1	y	0.6287400000000001
501.89610000000005	0.2	qhcljp	54	verb	list	3	2	match	nouveau	4	1	y	0.6287400000000001
502.096	0.0	+	54	verb	list	3	3	match	nouveau	4	1	y	0.6287400000000001
502.49580000000003	0.2	mkg	54	verb	list	3	4	match	nouveau	4	1	y	0.6287400000000001
502.69579999999996	0.0	+	54	verb	list	3	5	match	nouveau	4	1	y	0.6287400000000001
503.0956	0.2	peut	54	verb	list	3	6	match	nouveau	4	1	y	0.6287400000000001
503.29560000000004	0.0	+	54	verb	list	3	7	match	nouveau	4	1	y	0.6287400000000001
503.6953	0.2	nouveau	54	verb	list	3	8	match	nouveau	4	1	y	0.6287400000000001
503.89520000000005	0.0	+	54	verb	list	3	9	match	nouveau	4	1	y	0.6287400000000001
504.29510000000005	0.2	danser	54	verb	list	3	10	match	nouveau	4	1	y	0.6287400000000001
504.495	0.0	+	54	verb	list	3	11	match	nouveau	4	1	y	0.6287400000000001
504.89480000000003	0.0	+	54	verb	list	3	12	match	nouveau	4	1	y	0.6287400000000001
506.89390000000003	0.0	NOUVEAU	54	verb	list	3	13	match	nouveau	4	1	y	0.6287400000000001
507.5769	0.0	+	54	verb	list	3	14	match	nouveau	4	1	y	0.6287400000000001
507.5227	0.0	[response]	54	verb	list	3	15	match	nouveau	4	1	y	0.6287400000000001
509.29290000000003	0.0	+	55	verb	list	4	1	nomatch	galoper	-1	1	p	0.73227
509.84260000000006	0.2	znvb	55	verb	list	4	2	nomatch	galoper	-1	1	p	0.73227
510.0425	0.0	+	55	verb	list	4	3	nomatch	galoper	-1	1	p	0.73227
510.4424	0.2	vers	55	verb	list	4	4	nomatch	galoper	-1	1	p	0.73227
510.6423	0.0	+	55	verb	list	4	5	nomatch	galoper	-1	1	p	0.73227
511.0421	0.2	va	55	verb	list	4	6	nomatch	galoper	-1	1	p	0.73227
511.24199999999996	0.0	+	55	verb	list	4	7	nomatch	galoper	-1	1	p	0.73227
511.6418	0.2	grand	55	verb	list	4	8	nomatch	galoper	-1	1	p	0.73227
511.84170000000006	0.0	+	55	verb	list	4	9	nomatch	galoper	-1	1	p	0.73227
512.2416000000001	0.2	jongler	55	verb	list	4	10	nomatch	galoper	-1	1	p	0.73227
512.4415	0.0	+	55	verb	list	4	11	nomatch	galoper	-1	1	p	0.73227
512.8413	0.0	+	55	verb	list	4	12	nomatch	galoper	-1	1	p	0.73227
514.8404	0.0	GALOPER	55	verb	list	4	13	nomatch	galoper	-1	1	p	0.73227
515.6401	0.0	+	55	verb	list	4	14	nomatch	galoper	-1	1	p	0.73227
515.5727	0.0	[response]	55	verb	list	4	15	nomatch	galoper	-1	1	p	0.73227
517.2394	0.0	+	56	verb	phrase	1	1	match	moins	5	1	y	0.63642
517.7891	0.2	scvq	56	verb	phrase	1	2	match	moins	5	1	y	0.63642
517.989	0.0	+	56	verb	phrase	1	3	match	moins	5	1	y	0.63642
518.3889	0.2	dzlw	56	verb	phrase	1	4	match	moins	5	1	y	0.63642
518.5888	0.0	+	56	verb	phrase	1	5	match	moins	5	1	y	0.63642
518.9886	0.2	drzp	56	verb	phrase	1	6	match	moins	5	1	y	0.63642
519.1885	0.0	+	56	verb	phrase	1	7	match	moins	5	1	y	0.63642
519.5883	0.2	qfjplbr	56	verb	phrase	1	8	match	moins	5	1	y	0.63642
519.7882	0.0	+	56	verb	phrase	1	9	match	moins	5	1	y	0.63642
520.1881	0.2	moins	56	verb	phrase	1	10	match	moins	5	1	y	0.63642
520.388	0.0	+	56	verb	phrase	1	11	match	moins	5	1	y	0.63642
520.7878000000001	0.0	+	56	verb	phrase	1	12	match	moins	5	1	y	0.63642
522.7869000000001	0.0	MOINS	56	verb	phrase	1	13	match	moins	5	1	y	0.63642
523.4866	0.0	+	56	verb	phrase	1	14	match	moins	5	1	y	0.63642
523.4233	0.0	[response]	56	verb	phrase	1	15	match	moins	5	1	y	0.63642
525.1859000000001	0.0	+	57	noun	phrase	1	1	match	vieux	5	1	y	0.49038
525.7356	0.2	trm	57	noun	phrase	1	2	match	vieux	5	1	y	0.49038
525.9355	0.0	+	57	noun	phrase	1	3	match	vieux	5	1	y	0.49038
526.3354	0.2	nrlk	57	noun	phrase	1	4	match	vieux	5	1	y	0.49038
526.5353	0.0	+	57	noun	phrase	1	5	match	vieux	5	1	y	0.49038
526.9351	0.2	dmf	57	noun	phrase	1	6	match	vieux	5	1	y	0.49038
527.135	0.0	+	57	noun	phrase	1	7	match	vieux	5	1	y	0.49038
527.5348	0.2	xmhfwv	57	noun	phrase	1	8	match	vieux	5	1	y	0.49038
527.7347	0.0	+	57	noun	phrase	1	9	match	vieux	5	1	y	0.49038
528.1346	0.2	vieux	57	noun	phrase	1	10	match	vieux	5	1	y	0.49038
528.3345	0.0	+	57	noun	phrase	1	11	match	vieux	5	1	y	0.49038
528.7343	0.0	+	57	noun	phrase	1	12	match	vieux	5	1	y	0.49038
530.7501	0.0	VIEUX	57	noun	phrase	1	13	match	vieux	5	1	y	0.49038
531.2999	0.0	+	57	noun	phrase	1	14	match	vieux	5	1	y	0.49038
531.2405	0.0	[response]	57	noun	phrase	1	15	match	vieux	5	1	y	0.49038
533.149	0.0	+	58	verb	list	1	1	nomatch	sur	-1	1	p	0.96389
533.6988	0.2	klj	58	verb	list	1	2	nomatch	sur	-1	1	p	0.96389
533.8987	0.0	+	58	verb	list	1	3	nomatch	sur	-1	1	p	0.96389
534.2985	0.2	xmfn	58	verb	list	1	4	nomatch	sur	-1	1	p	0.96389
534.4984000000001	0.0	+	58	verb	list	1	5	nomatch	sur	-1	1	p	0.96389
534.8983000000001	0.2	gzps	58	verb	list	1	6	nomatch	sur	-1	1	p	0.96389
535.0982	0.0	+	58	verb	list	1	7	nomatch	sur	-1	1	p	0.96389
535.498	0.2	khjtzlp	58	verb	list	1	8	nomatch	sur	-1	1	p	0.96389
535.6979	0.0	+	58	verb	list	1	9	nomatch	sur	-1	1	p	0.96389
536.0977	0.2	bleu	58	verb	list	1	10	nomatch	sur	-1	1	p	0.96389
536.2977	0.0	+	58	verb	list	1	11	nomatch	sur	-1	1	p	0.96389
536.6975	0.0	+	58	verb	list	1	12	nomatch	sur	-1	1	p	0.96389
538.6966	0.0	SUR	58	verb	list	1	13	nomatch	sur	-1	1	p	0.96389
539.7128	0.0	+	58	verb	list	1	14	nomatch	sur	-1	1	p	0.96389
539.6605000000001	0.0	[response]	58	verb	list	1	15	nomatch	sur	-1	1	p	0.96389
541.0955	0.0	+	59	noun	phrase	2	1	nomatch	voilier	-1	1	p	1.3443
541.6453	0.2	tqgv	59	noun	phrase	2	2	nomatch	voilier	-1	1	p	1.3443
541.8452	0.0	+	59	noun	phrase	2	3	nomatch	voilier	-1	1	p	1.3443
542.245	0.2	pcms	59	noun	phrase	2	4	nomatch	voilier	-1	1	p	1.3443
542.4449	0.0	+	59	noun	phrase	2	5	nomatch	voilier	-1	1	p	1.3443
542.8448	0.2	dmf	59	noun	phrase	2	6	nomatch	voilier	-1	1	p	1.3443
543.0447	0.0	+	59	noun	phrase	2	7	nomatch	voilier	-1	1	p	1.3443
543.4445000000001	0.2	beau	59	noun	phrase	2	8	nomatch	voilier	-1	1	p	1.3443
543.6444	0.0	+	59	noun	phrase	2	9	nomatch	voilier	-1	1	p	1.3443
544.0442	0.2	cendrier	59	noun	phrase	2	10	nomatch	voilier	-1	1	p	1.3443
544.2442	0.0	+	59	noun	phrase	2	11	nomatch	voilier	-1	1	p	1.3443
544.644	0.0	+	59	noun	phrase	2	12	nomatch	voilier	-1	1	p	1.3443
546.6431	0.0	VOILIER	59	noun	phrase	2	13	nomatch	voilier	-1	1	p	1.3443
548.0425	0.0	+	59	noun	phrase	2	14	nomatch	voilier	-1	1	p	1.3443
547.9874000000001	0.0	[response]	59	noun	phrase	2	15	nomatch	voilier	-1	1	p	1.3443
549.042	0.0	+	60	verb	list	3	1	nomatch	vert	-1	1	p	0.93989
549.5918	0.2	bxd	60	verb	list	3	2	nomatch	vert	-1	1	p	0.93989
549.7917	0.0	+	60	verb	list	3	3	nomatch	vert	-1	1	p	0.93989
550.1915	0.2	xmfn	60	verb	list	3	4	nomatch	vert	-1	1	p	0.93989
550.3914	0.0	+	60	verb	list	3	5	nomatch	vert	-1	1	p	0.93989
550.7913	0.2	mon	60	verb	list	3	6	nomatch	vert	-1	1	p	0.93989
550.9912	0.0	+	60	verb	list	3	7	nomatch	vert	-1	1	p	0.93989
551.391	0.2	plonger	60	verb	list	3	8	nomatch	vert	-1	1	p	0.93989
551.5909	0.0	+	60	verb	list	3	9	nomatch	vert	-1	1	p	0.93989
551.9907000000001	0.2	noir	60	verb	list	3	10	nomatch	vert	-1	1	p	0.93989
552.1907	0.0	+	60	verb	list	3	11	nomatch	vert	-1	1	p	0.93989
552.5905	0.0	+	60	verb	list	3	12	nomatch	vert	-1	1	p	0.93989
554.5896	0.0	VERT	60	verb	list	3	13	nomatch	vert	-1	1	p	0.93989
555.5892	0.0	+	60	verb	list	3	14	nomatch	vert	-1	1	p	0.93989
555.5295	0.0	[response]	60	verb	list	3	15	nomatch	vert	-1	1	p	0.93989
556.9885	0.0	+	61	verb	list	1	1	match	parader	5	1	y	0.51242
557.5383	0.2	wjkp	61	verb	list	1	2	match	parader	5	1	y	0.51242
557.7382	0.0	+	61	verb	list	1	3	match	parader	5	1	y	0.51242
558.138	0.2	wksm	61	verb	list	1	4	match	parader	5	1	y	0.51242
558.3379	0.0	+	61	verb	list	1	5	match	parader	5	1	y	0.51242
558.7378	0.2	drzp	61	verb	list	1	6	match	parader	5	1	y	0.51242
558.9377000000001	0.0	+	61	verb	list	1	7	match	parader	5	1	y	0.51242
559.3375	0.2	gbqjtnl	61	verb	list	1	8	match	parader	5	1	y	0.51242
559.5374	0.0	+	61	verb	list	1	9	match	parader	5	1	y	0.51242
559.9372	0.2	parader	61	verb	list	1	10	match	parader	5	1	y	0.51242
560.1372	0.0	+	61	verb	list	1	11	match	parader	5	1	y	0.51242
560.537	0.0	+	61	verb	list	1	12	match	parader	5	1	y	0.51242
562.5361	0.0	PARADER	61	verb	list	1	13	match	parader	5	1	y	0.51242
563.1025	0.0	+	61	verb	list	1	14	match	parader	5	1	y	0.51242
563.0485	0.0	[response]	61	verb	list	1	15	match	parader	5	1	y	0.51242
572.9482	0.0	+	62	verb	phrase	4	1	match	va	3	1	y	0.70021
573.4979	0.2	xgptldz	62	verb	phrase	4	2	match	va	3	1	y	0.70021
573.6979	0.0	+	62	verb	phrase	4	3	match	va	3	1	y	0.70021
574.0977	0.2	adam	62	verb	phrase	4	4	match	va	3	1	y	0.70021
574.2976	0.0	+	62	verb	phrase	4	5	match	va	3	1	y	0.70021
574.6974	0.2	va	62	verb	phrase	4	6	match	va	3	1	y	0.70021
574.8973	0.0	+	62	verb	phrase	4	7	match	va	3	1	y	0.70021
575.2972	0.2	beaucoup	62	verb	phrase	4	8	match	va	3	1	y	0.70021
575.4971	0.0	+	62	verb	phrase	4	9	match	va	3	1	y	0.70021
575.8969	0.2	jongler	62	verb	phrase	4	10	match	va	3	1	y	0.70021
576.0968	0.0	+	62	verb	phrase	4	11	match	va	3	1	y	0.70021
576.4966000000001	0.0	+	62	verb	phrase	4	12	match	va	3	1	y	0.70021
578.4958	0.0	VA	62	verb	phrase	4	13	match	va	3	1	y	0.70021
579.2621	0.0	+	62	verb	phrase	4	14	match	va	3	1	y	0.70021
579.196	0.0	[response]	62	verb	phrase	4	15	match	va	3	1	y	0.70021
580.8947000000001	0.0	+	63	verb	list	4	1	nomatch	mieux	-1	1	p	0.54728
581.4445000000001	0.2	mjb	63	verb	list	4	2	nomatch	mieux	-1	1	p	0.54728
581.6444	0.0	+	63	verb	list	4	3	nomatch	mieux	-1	1	p	0.54728
582.0442	0.2	marc	63	verb	list	4	4	nomatch	mieux	-1	1	p	0.54728
582.2441	0.0	+	63	verb	list	4	5	nomatch	mieux	-1	1	p	0.54728
582.6439	0.2	mon	63	verb	list	4	6	nomatch	mieux	-1	1	p	0.54728
582.8438	0.0	+	63	verb	list	4	7	nomatch	mieux	-1	1	p	0.54728
583.2437	0.2	patiner	63	verb	list	4	8	nomatch	mieux	-1	1	p	0.54728
583.4436000000001	0.0	+	63	verb	list	4	9	nomatch	mieux	-1	1	p	0.54728
583.8434	0.2	vert	63	verb	list	4	10	nomatch	mieux	-1	1	p	0.54728
584.0433	0.0	+	63	verb	list	4	11	nomatch	mieux	-1	1	p	0.54728
584.4431	0.0	+	63	verb	list	4	12	nomatch	mieux	-1	1	p	0.54728
586.4423	0.0	MIEUX	63	verb	list	4	13	nomatch	mieux	-1	1	p	0.54728
587.042	0.0	+	63	verb	list	4	14	nomatch	mieux	-1	1	p	0.54728
586.9895	0.0	[response]	63	verb	list	4	15	nomatch	mieux	-1	1	p	0.54728
588.8412	0.0	+	64	verb	list	2	1	nomatch	luc	-1	1	p	0.57516
589.391	0.2	vqw	64	verb	list	2	2	nomatch	luc	-1	1	p	0.57516
589.5909	0.0	+	64	verb	list	2	3	nomatch	luc	-1	1	p	0.57516
589.9907000000001	0.2	mkg	64	verb	list	2	4	nomatch	luc	-1	1	p	0.57516
590.1906	0.0	+	64	verb	list	2	5	nomatch	luc	-1	1	p	0.57516
590.5904	0.2	px	64	verb	list	2	6	nomatch	luc	-1	1	p	0.57516
590.7903	0.0	+	64	verb	list	2	7	nomatch	luc	-1	1	p	0.57516
591.1902	0.2	grand	64	verb	list	2	8	nomatch	luc	-1	1	p	0.57516
591.3901	0.0	+	64	verb	list	2	9	nomatch	luc	-1	1	p	0.57516
591.7899	0.2	jongler	64	verb	list	2	10	nomatch	luc	-1	1	p	0.57516
591.9898000000001	0.0	+	64	verb	list	2	11	nomatch	luc	-1	1	p	0.57516
592.3896	0.0	+	64	verb	list	2	12	nomatch	luc	-1	1	p	0.57516
594.3888000000001	0.0	LUC	64	verb	list	2	13	nomatch	luc	-1	1	p	0.57516
595.0218	0.0	+	64	verb	list	2	14	nomatch	luc	-1	1	p	0.57516
594.9639	0.0	[response]	64	verb	list	2	15	nomatch	luc	-1	1	p	0.57516
596.7877	0.0	+	65	verb	phrase	4	1	nomatch	plonger	-1	1	p	1.218
597.3375	0.2	zwgm	65	verb	phrase	4	2	nomatch	plonger	-1	1	p	1.218
597.5374	0.0	+	65	verb	phrase	4	3	nomatch	plonger	-1	1	p	1.218
597.9372	0.2	jean	65	verb	phrase	4	4	nomatch	plonger	-1	1	p	1.218
598.1371	0.0	+	65	verb	phrase	4	5	nomatch	plonger	-1	1	p	1.218
598.5369000000001	0.2	doit	65	verb	phrase	4	6	nomatch	plonger	-1	1	p	1.218
598.7368	0.0	+	65	verb	phrase	4	7	nomatch	plonger	-1	1	p	1.218
599.1367	0.2	patiner	65	verb	phrase	4	8	nomatch	plonger	-1	1	p	1.218
599.3366	0.0	+	65	verb	phrase	4	9	nomatch	plonger	-1	1	p	1.218
599.7364	0.2	loin	65	verb	phrase	4	10	nomatch	plonger	-1	1	p	1.218
599.9363	0.0	+	65	verb	phrase	4	11	nomatch	plonger	-1	1	p	1.218
600.3361	0.0	+	65	verb	phrase	4	12	nomatch	plonger	-1	1	p	1.218
602.3353	0.0	PLONGER	65	verb	phrase	4	13	nomatch	plonger	-1	1	p	1.218
603.618	0.0	+	65	verb	phrase	4	14	nomatch	plonger	-1	1	p	1.218
603.5532000000001	0.0	[response]	65	verb	phrase	4	15	nomatch	plonger	-1	1	p	1.218
604.7342	0.0	+	66	noun	list	1	1	nomatch	tablier	-1	1	p	0.56647
605.284	0.2	cpqnjzs	66	noun	list	1	2	nomatch	tablier	-1	1	p	0.56647
605.4839000000001	0.0	+	66	noun	list	1	3	nomatch	tablier	-1	1	p	0.56647
605.8837	0.2	qxvn	66	noun	list	1	4	nomatch	tablier	-1	1	p	0.56647
606.0836	0.0	+	66	noun	list	1	5	nomatch	tablier	-1	1	p	0.56647
606.5001	0.2	dmf	66	noun	list	1	6	nomatch	tablier	-1	1	p	0.56647
606.7	0.0	+	66	noun	list	1	7	nomatch	tablier	-1	1	p	0.56647
607.0998	0.2	xzjdfvh	66	noun	list	1	8	nomatch	tablier	-1	1	p	0.56647
607.2998	0.0	+	66	noun	list	1	9	nomatch	tablier	-1	1	p	0.56647
607.6996	0.2	beaucoup	66	noun	list	1	10	nomatch	tablier	-1	1	p	0.56647
607.8995	0.0	+	66	noun	list	1	11	nomatch	tablier	-1	1	p	0.56647
608.2993	0.0	+	66	noun	list	1	12	nomatch	tablier	-1	1	p	0.56647
610.2984	0.0	TABLIER	66	noun	list	1	13	nomatch	tablier	-1	1	p	0.56647
610.9315	0.0	+	66	noun	list	1	14	nomatch	tablier	-1	1	p	0.56647
610.8649	0.0	[response]	66	noun	list	1	15	nomatch	tablier	-1	1	p	0.56647
612.6974	0.0	+	67	verb	list	4	1	nomatch	vite	-1	1	p	0.63837
613.2471	0.2	ldjhskp	67	verb	list	4	2	nomatch	vite	-1	1	p	0.63837
613.447	0.0	+	67	verb	list	4	3	nomatch	vite	-1	1	p	0.63837
613.8469	0.2	paul	67	verb	list	4	4	nomatch	vite	-1	1	p	0.63837
614.0468	0.0	+	67	verb	list	4	5	nomatch	vite	-1	1	p	0.63837
614.4466	0.2	leur	67	verb	list	4	6	nomatch	vite	-1	1	p	0.63837
614.6465000000001	0.0	+	67	verb	list	4	7	nomatch	vite	-1	1	p	0.63837
615.0463	0.2	parader	67	verb	list	4	8	nomatch	vite	-1	1	p	0.63837
615.2462	0.0	+	67	verb	list	4	9	nomatch	vite	-1	1	p	0.63837
615.6461	0.2	vert	67	verb	list	4	10	nomatch	vite	-1	1	p	0.63837
615.846	0.0	+	67	verb	list	4	11	nomatch	vite	-1	1	p	0.63837
616.2458	0.0	+	67	verb	list	4	12	nomatch	vite	-1	1	p	0.63837
618.2449	0.0	VITE	67	verb	list	4	13	nomatch	vite	-1	1	p	0.63837
618.9446	0.0	+	67	verb	list	4	14	nomatch	vite	-1	1	p	0.63837
618.8833	0.0	[response]	67	verb	list	4	15	nomatch	vite	-1	1	p	0.63837
620.6439	0.0	+	68	verb	list	1	1	nomatch	voyager	-1	1	p	0.66386
621.1936000000001	0.2	pth	68	verb	list	1	2	nomatch	voyager	-1	1	p	0.66386
621.3935	0.0	+	68	verb	list	1	3	nomatch	voyager	-1	1	p	0.66386
621.7934	0.2	dzlw	68	verb	list	1	4	nomatch	voyager	-1	1	p	0.66386
621.9933	0.0	+	68	verb	list	1	5	nomatch	voyager	-1	1	p	0.66386
622.3931	0.2	dmf	68	verb	list	1	6	nomatch	voyager	-1	1	p	0.66386
622.593	0.0	+	68	verb	list	1	7	nomatch	voyager	-1	1	p	0.66386
622.9928	0.2	bgkvn	68	verb	list	1	8	nomatch	voyager	-1	1	p	0.66386
623.1927000000001	0.0	+	68	verb	list	1	9	nomatch	voyager	-1	1	p	0.66386
623.5926000000001	0.2	danser	68	verb	list	1	10	nomatch	voyager	-1	1	p	0.66386
623.7925	0.0	+	68	verb	list	1	11	nomatch	voyager	-1	1	p	0.66386
624.1923	0.0	+	68	verb	list	1	12	nomatch	voyager	-1	1	p	0.66386
626.1914	0.0	VOYAGER	68	verb	list	1	13	nomatch	voyager	-1	1	p	0.66386
626.9078000000001	0.0	+	68	verb	list	1	14	nomatch	voyager	-1	1	p	0.66386
626.8553	0.0	[response]	68	verb	list	1	15	nomatch	voyager	-1	1	p	0.66386
628.5904	0.0	+	69	verb	list	2	1	match	rouge	5	1	y	0.8161
629.1401	0.2	clbqs	69	verb	list	2	2	match	rouge	5	1	y	0.8161
629.34	0.0	+	69	verb	list	2	3	match	rouge	5	1	y	0.8161
629.7399	0.2	qnpz	69	verb	list	2	4	match	rouge	5	1	y	0.8161
629.9398	0.0	+	69	verb	list	2	5	match	rouge	5	1	y	0.8161
630.3396	0.2	gzps	69	verb	list	2	6	match	rouge	5	1	y	0.8161
630.5395	0.0	+	69	verb	list	2	7	match	rouge	5	1	y	0.8161
630.9393	0.2	jongler	69	verb	list	2	8	match	rouge	5	1	y	0.8161
631.1393	0.0	+	69	verb	list	2	9	match	rouge	5	1	y	0.8161
631.5391	0.2	rouge	69	verb	list	2	10	match	rouge	5	1	y	0.8161
631.739	0.0	+	69	verb	list	2	11	match	rouge	5	1	y	0.8161
632.1388000000001	0.0	+	69	verb	list	2	12	match	rouge	5	1	y	0.8161
634.1379000000001	0.0	ROUGE	69	verb	list	2	13	match	rouge	5	1	y	0.8161
635.0209	0.0	+	69	verb	list	2	14	match	rouge	5	1	y	0.8161
634.9540000000001	0.0	[response]	69	verb	list	2	15	match	rouge	5	1	y	0.8161
652.5465	0.0	+	70	verb	phrase	1	1	nomatch	plonger	-1	1	p	0.57253
653.0963	0.2	clf	70	verb	phrase	1	2	nomatch	plonger	-1	1	p	0.57253
653.2962	0.0	+	70	verb	phrase	1	3	nomatch	plonger	-1	1	p	0.57253
653.696	0.2	bml	70	verb	phrase	1	4	nomatch	plonger	-1	1	p	0.57253
653.8959	0.0	+	70	verb	phrase	1	5	nomatch	plonger	-1	1	p	0.57253
654.2957	0.2	px	70	verb	phrase	1	6	nomatch	plonger	-1	1	p	0.57253
654.4956	0.0	+	70	verb	phrase	1	7	nomatch	plonger	-1	1	p	0.57253
654.8955	0.2	vhnj	70	verb	phrase	1	8	nomatch	plonger	-1	1	p	0.57253
655.0954	0.0	+	70	verb	phrase	1	9	nomatch	plonger	-1	1	p	0.57253
655.4952	0.2	galoper	70	verb	phrase	1	10	nomatch	plonger	-1	1	p	0.57253
655.6951	0.0	+	70	verb	phrase	1	11	nomatch	plonger	-1	1	p	0.57253
656.0949	0.0	+	70	verb	phrase	1	12	nomatch	plonger	-1	1	p	0.57253
658.0941	0.0	PLONGER	70	verb	phrase	1	13	nomatch	plonger	-1	1	p	0.57253
658.7271000000001	0.0	+	70	verb	phrase	1	14	nomatch	plonger	-1	1	p	0.57253
658.6666	0.0	[response]	70	verb	phrase	1	15	nomatch	plonger	-1	1	p	0.57253
660.493	0.0	+	71	verb	list	1	1	nomatch	patiner	-1	1	p	0.59842
661.0428	0.2	bxwvp	71	verb	list	1	2	nomatch	patiner	-1	1	p	0.59842
661.2427	0.0	+	71	verb	list	1	3	nomatch	patiner	-1	1	p	0.59842
661.6425	0.2	qnpz	71	verb	list	1	4	nomatch	patiner	-1	1	p	0.59842
661.8424	0.0	+	71	verb	list	1	5	nomatch	patiner	-1	1	p	0.59842
662.2422	0.2	gzps	71	verb	list	1	6	nomatch	patiner	-1	1	p	0.59842
662.4422	0.0	+	71	verb	list	1	7	nomatch	patiner	-1	1	p	0.59842
662.842	0.2	kjhb	71	verb	list	1	8	nomatch	patiner	-1	1	p	0.59842
663.0419	0.0	+	71	verb	list	1	9	nomatch	patiner	-1	1	p	0.59842
663.4417	0.2	parader	71	verb	list	1	10	nomatch	patiner	-1	1	p	0.59842
663.6416	0.0	+	71	verb	list	1	11	nomatch	patiner	-1	1	p	0.59842
664.0415	0.0	+	71	verb	list	1	12	nomatch	patiner	-1	1	p	0.59842
666.0406	0.0	PATINER	71	verb	list	1	13	nomatch	patiner	-1	1	p	0.59842
666.6903	0.0	+	71	verb	list	1	14	nomatch	patiner	-1	1	p	0.59842
666.639	0.0	[response]	71	verb	list	1	15	nomatch	patiner	-1	1	p	0.59842
676.436	0.0	+	72	verb	phrase	2	1	match	jongler	4	1	y	0.7254300000000001
676.9858	0.2	qtd	72	verb	phrase	2	2	match	jongler	4	1	y	0.7254300000000001
677.1857	0.0	+	72	verb	phrase	2	3	match	jongler	4	1	y	0.7254300000000001
677.5855	0.2	qxvn	72	verb	phrase	2	4	match	jongler	4	1	y	0.7254300000000001
677.7854	0.0	+	72	verb	phrase	2	5	match	jongler	4	1	y	0.7254300000000001
678.1852	0.2	drzp	72	verb	phrase	2	6	match	jongler	4	1	y	0.7254300000000001
678.3851	0.0	+	72	verb	phrase	2	7	match	jongler	4	1	y	0.7254300000000001
678.785	0.2	jongler	72	verb	phrase	2	8	match	jongler	4	1	y	0.7254300000000001
678.9849	0.0	+	72	verb	phrase	2	9	match	jongler	4	1	y	0.7254300000000001
679.3847	0.2	tôt	72	verb	phrase	2	10	match	jongler	4	1	y	0.7254300000000001
679.5846	0.0	+	72	verb	phrase	2	11	match	jongler	4	1	y	0.7254300000000001
679.9844	0.0	+	72	verb	phrase	2	12	match	jongler	4	1	y	0.7254300000000001
681.9837	0.0	JONGLER	72	verb	phrase	2	13	match	jongler	4	1	y	0.7254300000000001
682.7665000000001	0.0	+	72	verb	phrase	2	14	match	jongler	4	1	y	0.7254300000000001
682.7091	0.0	[response]	72	verb	phrase	2	15	match	jongler	4	1	y	0.7254300000000001
684.3992000000001	0.0	+	73	verb	phrase	1	1	nomatch	grand	-1	1	p	0.53166
684.9489	0.2	mlj	73	verb	phrase	1	2	nomatch	grand	-1	1	p	0.53166
685.1488	0.0	+	73	verb	phrase	1	3	nomatch	grand	-1	1	p	0.53166
685.5486	0.2	qnpz	73	verb	phrase	1	4	nomatch	grand	-1	1	p	0.53166
685.7486	0.0	+	73	verb	phrase	1	5	nomatch	grand	-1	1	p	0.53166
686.1484	0.2	px	73	verb	phrase	1	6	nomatch	grand	-1	1	p	0.53166
686.3483	0.0	+	73	verb	phrase	1	7	nomatch	grand	-1	1	p	0.53166
686.7481	0.2	khjtzlp	73	verb	phrase	1	8	nomatch	grand	-1	1	p	0.53166
686.948	0.0	+	73	verb	phrase	1	9	nomatch	grand	-1	1	p	0.53166
687.3479	0.2	plus	73	verb	phrase	1	10	nomatch	grand	-1	1	p	0.53166
687.5478	0.0	+	73	verb	phrase	1	11	nomatch	grand	-1	1	p	0.53166
687.9476	0.0	+	73	verb	phrase	1	12	nomatch	grand	-1	1	p	0.53166
689.9467	0.0	GRAND	73	verb	phrase	1	13	nomatch	grand	-1	1	p	0.53166
690.5298	0.0	+	73	verb	phrase	1	14	nomatch	grand	-1	1	p	0.53166
690.4784	0.0	[response]	73	verb	phrase	1	15	nomatch	grand	-1	1	p	0.53166
708.3386	0.0	+	74	verb	list	2	1	nomatch	jongler	-1	1	p	0.5558
708.8884	0.2	wmtdfr	74	verb	list	2	2	nomatch	jongler	-1	1	p	0.5558
709.0883	0.0	+	74	verb	list	2	3	nomatch	jongler	-1	1	p	0.5558
709.4881	0.2	xmfn	74	verb	list	2	4	nomatch	jongler	-1	1	p	0.5558
709.688	0.0	+	74	verb	list	2	5	nomatch	jongler	-1	1	p	0.5558
710.0879	0.2	dmf	74	verb	list	2	6	nomatch	jongler	-1	1	p	0.5558
710.2878000000001	0.0	+	74	verb	list	2	7	nomatch	jongler	-1	1	p	0.5558
710.6876	0.2	patiner	74	verb	list	2	8	nomatch	jongler	-1	1	p	0.5558
710.8877	0.0	+	74	verb	list	2	9	nomatch	jongler	-1	1	p	0.5558
711.2873	0.2	blanc	74	verb	list	2	10	nomatch	jongler	-1	1	p	0.5558
711.4872	0.0	+	74	verb	list	2	11	nomatch	jongler	-1	1	p	0.5558
711.8871	0.0	+	74	verb	list	2	12	nomatch	jongler	-1	1	p	0.5558
713.8862	0.0	JONGLER	74	verb	list	2	13	nomatch	jongler	-1	1	p	0.5558
714.5026	0.0	+	74	verb	list	2	14	nomatch	jongler	-1	1	p	0.5558
714.442	0.0	[response]	74	verb	list	2	15	nomatch	jongler	-1	1	p	0.5558
716.2851	0.0	+	75	verb	phrase	2	1	nomatch	pour	-1	1	p	1.1628
716.8349000000001	0.2	mqfcxvr	75	verb	phrase	2	2	nomatch	pour	-1	1	p	1.1628
717.0352	0.0	+	75	verb	phrase	2	3	nomatch	pour	-1	1	p	1.1628
717.4346	0.2	qxvn	75	verb	phrase	2	4	nomatch	pour	-1	1	p	1.1628
717.6345	0.0	+	75	verb	phrase	2	5	nomatch	pour	-1	1	p	1.1628
718.0344	0.2	drzp	75	verb	phrase	2	6	nomatch	pour	-1	1	p	1.1628
718.2343	0.0	+	75	verb	phrase	2	7	nomatch	pour	-1	1	p	1.1628
718.6341	0.2	voyager	75	verb	phrase	2	8	nomatch	pour	-1	1	p	1.1628
718.8340000000001	0.0	+	75	verb	phrase	2	9	nomatch	pour	-1	1	p	1.1628
719.2338	0.2	tard	75	verb	phrase	2	10	nomatch	pour	-1	1	p	1.1628
719.4338	0.0	+	75	verb	phrase	2	11	nomatch	pour	-1	1	p	1.1628
719.8336	0.0	+	75	verb	phrase	2	12	nomatch	pour	-1	1	p	1.1628
721.8493	0.0	POUR	75	verb	phrase	2	13	nomatch	pour	-1	1	p	1.1628
723.0655	0.0	+	75	verb	phrase	2	14	nomatch	pour	-1	1	p	1.1628
723.0122	0.0	[response]	75	verb	phrase	2	15	nomatch	pour	-1	1	p	1.1628
724.2483	0.0	+	76	verb	phrase	2	1	match	moins	4	0	p	0.51101
724.7981	0.2	knxqmtr	76	verb	phrase	2	2	match	moins	4	0	p	0.51101
724.998	0.0	+	76	verb	phrase	2	3	match	moins	4	0	p	0.51101
725.3978	0.2	qnpz	76	verb	phrase	2	4	match	moins	4	0	p	0.51101
725.5977	0.0	+	76	verb	phrase	2	5	match	moins	4	0	p	0.51101
725.9981	0.2	xlrj	76	verb	phrase	2	6	match	moins	4	0	p	0.51101
726.1974	0.0	+	76	verb	phrase	2	7	match	moins	4	0	p	0.51101
726.5973	0.2	moins	76	verb	phrase	2	8	match	moins	4	0	p	0.51101
726.7972	0.0	+	76	verb	phrase	2	9	match	moins	4	0	p	0.51101
727.197	0.2	plonger	76	verb	phrase	2	10	match	moins	4	0	p	0.51101
727.3969	0.0	+	76	verb	phrase	2	11	match	moins	4	0	p	0.51101
727.7967	0.0	+	76	verb	phrase	2	12	match	moins	4	0	p	0.51101
729.7959	0.0	MOINS	76	verb	phrase	2	13	match	moins	4	0	p	0.51101
730.3623	0.0	+	76	verb	phrase	2	14	match	moins	4	0	p	0.51101
730.3069	0.0	[response]	76	verb	phrase	2	15	match	moins	4	0	p	0.51101
732.1948	0.0	+	77	verb	list	1	1	match	voyager	5	1	y	1.0044
732.7446	0.2	jxlp	77	verb	list	1	2	match	voyager	5	1	y	1.0044
732.9445000000001	0.0	+	77	verb	list	1	3	match	voyager	5	1	y	1.0044
733.3443	0.2	prkz	77	verb	list	1	4	match	voyager	5	1	y	1.0044
733.5442	0.0	+	77	verb	list	1	5	match	voyager	5	1	y	1.0044
733.944	0.2	drzp	77	verb	list	1	6	match	voyager	5	1	y	1.0044
734.1439	0.0	+	77	verb	list	1	7	match	voyager	5	1	y	1.0044
734.5438	0.2	gbqjtnl	77	verb	list	1	8	match	voyager	5	1	y	1.0044
734.7437	0.0	+	77	verb	list	1	9	match	voyager	5	1	y	1.0044
735.1435	0.2	voyager	77	verb	list	1	10	match	voyager	5	1	y	1.0044
735.3434	0.0	+	77	verb	list	1	11	match	voyager	5	1	y	1.0044
735.7432	0.0	+	77	verb	list	1	12	match	voyager	5	1	y	1.0044
737.7424	0.0	VOYAGER	77	verb	list	1	13	match	voyager	5	1	y	1.0044
738.8086	0.0	+	77	verb	list	1	14	match	voyager	5	1	y	1.0044
738.7467000000001	0.0	[response]	77	verb	list	1	15	match	voyager	5	1	y	1.0044
740.1413	0.0	+	78	verb	list	4	1	match	plonger	4	1	y	0.68862
740.6911	0.2	qjg	78	verb	list	4	2	match	plonger	4	1	y	0.68862
740.891	0.0	+	78	verb	list	4	3	match	plonger	4	1	y	0.68862
741.2908	0.2	luc	78	verb	list	4	4	match	plonger	4	1	y	0.68862
741.4907000000001	0.0	+	78	verb	list	4	5	match	plonger	4	1	y	0.68862
741.8905	0.2	mon	78	verb	list	4	6	match	plonger	4	1	y	0.68862
742.0904	0.0	+	78	verb	list	4	7	match	plonger	4	1	y	0.68862
742.4903	0.2	plonger	78	verb	list	4	8	match	plonger	4	1	y	0.68862
742.6902	0.0	+	78	verb	list	4	9	match	plonger	4	1	y	0.68862
743.09	0.2	bleu	78	verb	list	4	10	match	plonger	4	1	y	0.68862
743.2899	0.0	+	78	verb	list	4	11	match	plonger	4	1	y	0.68862
743.6897	0.0	+	78	verb	list	4	12	match	plonger	4	1	y	0.68862
745.6889	0.0	PLONGER	78	verb	list	4	13	match	plonger	4	1	y	0.68862
746.4385	0.0	+	78	verb	list	4	14	match	plonger	4	1	y	0.68862
746.3775	0.0	[response]	78	verb	list	4	15	match	plonger	4	1	y	0.68862
748.0878	0.0	+	79	verb	phrase	4	1	match	chasser	4	1	y	0.6139800000000001
748.6376	0.2	gcqklj	79	verb	phrase	4	2	match	chasser	4	1	y	0.6139800000000001
748.8375	0.0	+	79	verb	phrase	4	3	match	chasser	4	1	y	0.6139800000000001
749.2373	0.2	marc	79	verb	phrase	4	4	match	chasser	4	1	y	0.6139800000000001
749.4372	0.0	+	79	verb	phrase	4	5	match	chasser	4	1	y	0.6139800000000001
749.837	0.2	doit	79	verb	phrase	4	6	match	chasser	4	1	y	0.6139800000000001
750.037	0.0	+	79	verb	phrase	4	7	match	chasser	4	1	y	0.6139800000000001
750.4368000000001	0.2	chasser	79	verb	phrase	4	8	match	chasser	4	1	y	0.6139800000000001
750.6367	0.0	+	79	verb	phrase	4	9	match	chasser	4	1	y	0.6139800000000001
751.0365	0.2	tard	79	verb	phrase	4	10	match	chasser	4	1	y	0.6139800000000001
751.2364	0.0	+	79	verb	phrase	4	11	match	chasser	4	1	y	0.6139800000000001
751.6363	0.0	+	79	verb	phrase	4	12	match	chasser	4	1	y	0.6139800000000001
753.6354	0.0	CHASSER	79	verb	phrase	4	13	match	chasser	4	1	y	0.6139800000000001
754.3017	0.0	+	79	verb	phrase	4	14	match	chasser	4	1	y	0.6139800000000001
754.2493000000001	0.0	[response]	79	verb	phrase	4	15	match	chasser	4	1	y	0.6139800000000001
756.0343	0.0	+	80	verb	phrase	2	1	match	parader	5	1	y	0.60394
756.5841	0.2	dkxhtf	80	verb	phrase	2	2	match	parader	5	1	y	0.60394
756.784	0.0	+	80	verb	phrase	2	3	match	parader	5	1	y	0.60394
757.1838	0.2	bml	80	verb	phrase	2	4	match	parader	5	1	y	0.60394
757.3837	0.0	+	80	verb	phrase	2	5	match	parader	5	1	y	0.60394
757.7835	0.2	px	80	verb	phrase	2	6	match	parader	5	1	y	0.60394
757.9835	0.0	+	80	verb	phrase	2	7	match	parader	5	1	y	0.60394
758.3999	0.2	mieux	80	verb	phrase	2	8	match	parader	5	1	y	0.60394
758.5998	0.0	+	80	verb	phrase	2	9	match	parader	5	1	y	0.60394
758.9997	0.2	parader	80	verb	phrase	2	10	match	parader	5	1	y	0.60394
759.1996	0.0	+	80	verb	phrase	2	11	match	parader	5	1	y	0.60394
759.5994000000001	0.0	+	80	verb	phrase	2	12	match	parader	5	1	y	0.60394
761.5985000000001	0.0	PARADER	80	verb	phrase	2	13	match	parader	5	1	y	0.60394
762.2649	0.0	+	80	verb	phrase	2	14	match	parader	5	1	y	0.60394
763.9975000000001	0.0	+	80	verb	phrase	2	15	match	parader	5	1	y	0.60394
765.0137	0.0	+	80	verb	phrase	2	16	match	parader	5	1	y	0.60394
765.1137	0.0	+	80	verb	phrase	2	17	match	parader	5	1	y	0.60394
766.513	0.0	+	80	verb	phrase	2	18	match	parader	5	1	y	0.60394
766.613	0.0	+	80	verb	phrase	2	19	match	parader	5	1	y	0.60394
768.0124	0.0	+	80	verb	phrase	2	20	match	parader	5	1	y	0.60394
768.1123	0.0	+	80	verb	phrase	2	21	match	parader	5	1	y	0.60394
769.5117	0.0	+	80	verb	phrase	2	22	match	parader	5	1	y	0.60394
769.6117	0.0	+	80	verb	phrase	2	23	match	parader	5	1	y	0.60394
771.0111	0.0	+	80	verb	phrase	2	24	match	parader	5	1	y	0.60394
771.111	0.0	+	80	verb	phrase	2	25	match	parader	5	1	y	0.60394
772.5104	0.0	+	80	verb	phrase	2	26	match	parader	5	1	y	0.60394
772.6104	0.0	+	80	verb	phrase	2	27	match	parader	5	1	y	0.60394
774.0097	0.0	+	80	verb	phrase	2	28	match	parader	5	1	y	0.60394
774.1097	0.0	+	80	verb	phrase	2	29	match	parader	5	1	y	0.60394
775.5257	0.0	+	80	verb	phrase	2	30	match	parader	5	1	y	0.60394
775.6257	0.0	+	80	verb	phrase	2	31	match	parader	5	1	y	0.60394
777.0251000000001	0.0	+	80	verb	phrase	2	32	match	parader	5	1	y	0.60394
777.125	0.0	+	80	verb	phrase	2	33	match	parader	5	1	y	0.60394
778.5244	0.0	+	80	verb	phrase	2	34	match	parader	5	1	y	0.60394
778.6244	0.0	+	80	verb	phrase	2	35	match	parader	5	1	y	0.60394
788.8699	0.0	+	80	verb	phrase	2	36	match	parader	5	1	y	0.60394
762.2025	0.0	[response]	80	verb	phrase	2	37	match	parader	5	1	y	0.60394
