onset	duration	stim	trial_number	trial_type	trial_structure	trial_length	sequential_position	probe_type	probe	probe_position	response_correct	response_key	response_time
0.06280000000000285	0.0	+	1	verb	phrase	1	1	match	patiner	5	1	y	0.42184
0.5459000000000032	0.2	dhj	1	verb	phrase	1	2	match	patiner	5	1	y	0.42184
0.7458000000000027	0.0	+	1	verb	phrase	1	3	match	patiner	5	1	y	0.42184
1.1456000000000017	0.2	qxvn	1	verb	phrase	1	4	match	patiner	5	1	y	0.42184
1.3455000000000013	0.0	+	1	verb	phrase	1	5	match	patiner	5	1	y	0.42184
1.7454000000000036	0.2	px	1	verb	phrase	1	6	match	patiner	5	1	y	0.42184
1.9453000000000031	0.0	+	1	verb	phrase	1	7	match	patiner	5	1	y	0.42184
2.345100000000002	0.2	sxp	1	verb	phrase	1	8	match	patiner	5	1	y	0.42184
2.5450000000000017	0.0	+	1	verb	phrase	1	9	match	patiner	5	1	y	0.42184
2.9448000000000008	0.2	patiner	1	verb	phrase	1	10	match	patiner	5	1	y	0.42184
3.1448000000000036	0.0	+	1	verb	phrase	1	11	match	patiner	5	1	y	0.42184
3.5446000000000026	0.0	+	1	verb	phrase	1	12	match	patiner	5	1	y	0.42184
5.543700000000001	0.0	PATINER	1	verb	phrase	1	13	match	patiner	5	1	y	0.42184
6.0268000000000015	0.0	+	1	verb	phrase	1	14	match	patiner	5	1	y	0.42184
5.965500000000006	0.0	[response]	1	verb	phrase	1	15	match	patiner	5	1	y	0.42184
7.942700000000002	0.0	+	2	noun	phrase	1	1	match	panier	5	1	y	0.50695
8.492400000000004	0.2	vfthgb	2	noun	phrase	1	2	match	panier	5	1	y	0.50695
8.692300000000003	0.0	+	2	noun	phrase	1	3	match	panier	5	1	y	0.50695
9.092100000000002	0.2	prkz	2	noun	phrase	1	4	match	panier	5	1	y	0.50695
9.292100000000005	0.0	+	2	noun	phrase	1	5	match	panier	5	1	y	0.50695
9.691900000000004	0.2	gzps	2	noun	phrase	1	6	match	panier	5	1	y	0.50695
9.891800000000003	0.0	+	2	noun	phrase	1	7	match	panier	5	1	y	0.50695
10.291600000000003	0.2	qzjs	2	noun	phrase	1	8	match	panier	5	1	y	0.50695
10.491500000000002	0.0	+	2	noun	phrase	1	9	match	panier	5	1	y	0.50695
10.891300000000001	0.2	panier	2	noun	phrase	1	10	match	panier	5	1	y	0.50695
11.091300000000004	0.0	+	2	noun	phrase	1	11	match	panier	5	1	y	0.50695
11.491100000000003	0.0	+	2	noun	phrase	1	12	match	panier	5	1	y	0.50695
13.490300000000005	0.0	PANIER	2	noun	phrase	1	13	match	panier	5	1	y	0.50695
14.056600000000003	0.0	+	2	noun	phrase	1	14	match	panier	5	1	y	0.50695
13.9972	0.0	[response]	2	noun	phrase	1	15	match	panier	5	1	y	0.50695
15.889200000000002	0.0	+	3	verb	list	3	1	match	leur	3	1	y	0.75066
16.438900000000004	0.2	dthjbwc	3	verb	list	3	2	match	leur	3	1	y	0.75066
16.638800000000003	0.0	+	3	verb	list	3	3	match	leur	3	1	y	0.75066
17.038600000000002	0.2	qnpz	3	verb	list	3	4	match	leur	3	1	y	0.75066
17.238600000000005	0.0	+	3	verb	list	3	5	match	leur	3	1	y	0.75066
17.638400000000004	0.2	leur	3	verb	list	3	6	match	leur	3	1	y	0.75066
17.838300000000004	0.0	+	3	verb	list	3	7	match	leur	3	1	y	0.75066
18.238100000000003	0.2	chasser	3	verb	list	3	8	match	leur	3	1	y	0.75066
18.438000000000002	0.0	+	3	verb	list	3	9	match	leur	3	1	y	0.75066
18.8378	0.2	vert	3	verb	list	3	10	match	leur	3	1	y	0.75066
19.037800000000004	0.0	+	3	verb	list	3	11	match	leur	3	1	y	0.75066
19.437600000000003	0.0	+	3	verb	list	3	12	match	leur	3	1	y	0.75066
21.436700000000002	0.0	LEUR	3	verb	list	3	13	match	leur	3	1	y	0.75066
22.253	0.0	+	3	verb	list	3	14	match	leur	3	1	y	0.75066
22.187399999999997	0.0	[response]	3	verb	list	3	15	match	leur	3	1	y	0.75066
23.835700000000003	0.0	+	4	verb	phrase	4	1	nomatch	ainsi	-1	1	p	0.79803
24.385400000000004	0.2	hrptgxd	4	verb	phrase	4	2	nomatch	ainsi	-1	1	p	0.79803
24.585300000000004	0.0	+	4	verb	phrase	4	3	nomatch	ainsi	-1	1	p	0.79803
24.985100000000003	0.2	luc	4	verb	phrase	4	4	nomatch	ainsi	-1	1	p	0.79803
25.185100000000006	0.0	+	4	verb	phrase	4	5	nomatch	ainsi	-1	1	p	0.79803
25.584900000000005	0.2	va	4	verb	phrase	4	6	nomatch	ainsi	-1	1	p	0.79803
25.784800000000004	0.0	+	4	verb	phrase	4	7	nomatch	ainsi	-1	1	p	0.79803
26.184600000000003	0.2	voyager	4	verb	phrase	4	8	nomatch	ainsi	-1	1	p	0.79803
26.384500000000003	0.0	+	4	verb	phrase	4	9	nomatch	ainsi	-1	1	p	0.79803
26.784400000000005	0.2	tôt	4	verb	phrase	4	10	nomatch	ainsi	-1	1	p	0.79803
26.984300000000005	0.0	+	4	verb	phrase	4	11	nomatch	ainsi	-1	1	p	0.79803
27.384100000000004	0.0	+	4	verb	phrase	4	12	nomatch	ainsi	-1	1	p	0.79803
29.399900000000002	0.0	AINSI	4	verb	phrase	4	13	nomatch	ainsi	-1	1	p	0.79803
30.249499999999998	0.0	+	4	verb	phrase	4	14	nomatch	ainsi	-1	1	p	0.79803
30.197900000000004	0.0	[response]	4	verb	phrase	4	15	nomatch	ainsi	-1	1	p	0.79803
31.7988	0.0	+	5	noun	phrase	1	1	match	petit	5	1	y	0.51659
32.348600000000005	0.2	nvpsr	5	noun	phrase	1	2	match	petit	5	1	y	0.51659
32.548500000000004	0.0	+	5	noun	phrase	1	3	match	petit	5	1	y	0.51659
32.9483	0.2	prkz	5	noun	phrase	1	4	match	petit	5	1	y	0.51659
33.1482	0.0	+	5	noun	phrase	1	5	match	petit	5	1	y	0.51659
33.548	0.2	gzps	5	noun	phrase	1	6	match	petit	5	1	y	0.51659
33.7479	0.0	+	5	noun	phrase	1	7	match	petit	5	1	y	0.51659
34.147800000000004	0.2	qxdtsvzr	5	noun	phrase	1	8	match	petit	5	1	y	0.51659
34.3477	0.0	+	5	noun	phrase	1	9	match	petit	5	1	y	0.51659
34.7475	0.2	petit	5	noun	phrase	1	10	match	petit	5	1	y	0.51659
34.9474	0.0	+	5	noun	phrase	1	11	match	petit	5	1	y	0.51659
35.3472	0.0	+	5	noun	phrase	1	12	match	petit	5	1	y	0.51659
37.3464	0.0	PETIT	5	noun	phrase	1	13	match	petit	5	1	y	0.51659
37.929500000000004	0.0	+	5	noun	phrase	1	14	match	petit	5	1	y	0.51659
37.863	0.0	[response]	5	noun	phrase	1	15	match	petit	5	1	y	0.51659
39.7453	0.0	+	6	noun	phrase	1	1	nomatch	mon	-1	1	p	1.0478
40.295100000000005	0.2	qswf	6	noun	phrase	1	2	nomatch	mon	-1	1	p	1.0478
40.495000000000005	0.0	+	6	noun	phrase	1	3	nomatch	mon	-1	1	p	1.0478
40.894800000000004	0.2	wksm	6	noun	phrase	1	4	nomatch	mon	-1	1	p	1.0478
41.0947	0.0	+	6	noun	phrase	1	5	nomatch	mon	-1	1	p	1.0478
41.494600000000005	0.2	hls	6	noun	phrase	1	6	nomatch	mon	-1	1	p	1.0478
41.694500000000005	0.0	+	6	noun	phrase	1	7	nomatch	mon	-1	1	p	1.0478
42.094300000000004	0.2	jdfbnzg	6	noun	phrase	1	8	nomatch	mon	-1	1	p	1.0478
42.294200000000004	0.0	+	6	noun	phrase	1	9	nomatch	mon	-1	1	p	1.0478
42.694	0.2	blanc	6	noun	phrase	1	10	nomatch	mon	-1	1	p	1.0478
42.8939	0.0	+	6	noun	phrase	1	11	nomatch	mon	-1	1	p	1.0478
43.293800000000005	0.0	+	6	noun	phrase	1	12	nomatch	mon	-1	1	p	1.0478
45.2929	0.0	MON	6	noun	phrase	1	13	nomatch	mon	-1	1	p	1.0478
46.39240000000001	0.0	+	6	noun	phrase	1	14	nomatch	mon	-1	1	p	1.0478
46.3407	0.0	[response]	6	noun	phrase	1	15	nomatch	mon	-1	1	p	1.0478
47.6918	0.0	+	7	noun	list	1	1	match	loin	5	1	y	0.57589
48.241600000000005	0.2	wvznsk	7	noun	list	1	2	match	loin	5	1	y	0.57589
48.441500000000005	0.0	+	7	noun	list	1	3	match	loin	5	1	y	0.57589
48.841300000000004	0.2	pcms	7	noun	list	1	4	match	loin	5	1	y	0.57589
49.0412	0.0	+	7	noun	list	1	5	match	loin	5	1	y	0.57589
49.441100000000006	0.2	xlrj	7	noun	list	1	6	match	loin	5	1	y	0.57589
49.641000000000005	0.0	+	7	noun	list	1	7	match	loin	5	1	y	0.57589
50.040800000000004	0.2	dqcvwpn	7	noun	list	1	8	match	loin	5	1	y	0.57589
50.240700000000004	0.0	+	7	noun	list	1	9	match	loin	5	1	y	0.57589
50.6405	0.2	loin	7	noun	list	1	10	match	loin	5	1	y	0.57589
50.8404	0.0	+	7	noun	list	1	11	match	loin	5	1	y	0.57589
51.240300000000005	0.0	+	7	noun	list	1	12	match	loin	5	1	y	0.57589
53.2394	0.0	LOIN	7	noun	list	1	13	match	loin	5	1	y	0.57589
53.8724	0.0	+	7	noun	list	1	14	match	loin	5	1	y	0.57589
53.81530000000001	0.0	[response]	7	noun	list	1	15	match	loin	5	1	y	0.57589
55.6383	0.0	+	8	verb	phrase	3	1	match	doit	3	1	y	0.83311
56.188100000000006	0.2	gnzdsb	8	verb	phrase	3	2	match	doit	3	1	y	0.83311
56.388000000000005	0.0	+	8	verb	phrase	3	3	match	doit	3	1	y	0.83311
56.787800000000004	0.2	qxvn	8	verb	phrase	3	4	match	doit	3	1	y	0.83311
56.987700000000004	0.0	+	8	verb	phrase	3	5	match	doit	3	1	y	0.83311
57.387600000000006	0.2	doit	8	verb	phrase	3	6	match	doit	3	1	y	0.83311
57.587500000000006	0.0	+	8	verb	phrase	3	7	match	doit	3	1	y	0.83311
57.987300000000005	0.2	chasser	8	verb	phrase	3	8	match	doit	3	1	y	0.83311
58.187200000000004	0.0	+	8	verb	phrase	3	9	match	doit	3	1	y	0.83311
58.587	0.2	tard	8	verb	phrase	3	10	match	doit	3	1	y	0.83311
58.787000000000006	0.0	+	8	verb	phrase	3	11	match	doit	3	1	y	0.83311
59.186800000000005	0.0	+	8	verb	phrase	3	12	match	doit	3	1	y	0.83311
61.185900000000004	0.0	DOIT	8	verb	phrase	3	13	match	doit	3	1	y	0.83311
62.085499999999996	0.0	+	8	verb	phrase	3	14	match	doit	3	1	y	0.83311
62.019000000000005	0.0	[response]	8	verb	phrase	3	15	match	doit	3	1	y	0.83311
63.5848	0.0	+	9	verb	phrase	1	1	nomatch	voyager	-1	1	p	0.63977
64.1346	0.2	vmlrsp	9	verb	phrase	1	2	nomatch	voyager	-1	1	p	0.63977
64.3345	0.0	+	9	verb	phrase	1	3	nomatch	voyager	-1	1	p	0.63977
64.7343	0.2	qnpz	9	verb	phrase	1	4	nomatch	voyager	-1	1	p	0.63977
64.9342	0.0	+	9	verb	phrase	1	5	nomatch	voyager	-1	1	p	0.63977
65.3341	0.2	xlrj	9	verb	phrase	1	6	nomatch	voyager	-1	1	p	0.63977
65.534	0.0	+	9	verb	phrase	1	7	nomatch	voyager	-1	1	p	0.63977
65.9338	0.2	dmkf	9	verb	phrase	1	8	nomatch	voyager	-1	1	p	0.63977
66.1337	0.0	+	9	verb	phrase	1	9	nomatch	voyager	-1	1	p	0.63977
66.5502	0.2	plonger	9	verb	phrase	1	10	nomatch	voyager	-1	1	p	0.63977
66.7501	0.0	+	9	verb	phrase	1	11	nomatch	voyager	-1	1	p	0.63977
67.1499	0.0	+	9	verb	phrase	1	12	nomatch	voyager	-1	1	p	0.63977
69.149	0.0	VOYAGER	9	verb	phrase	1	13	nomatch	voyager	-1	1	p	0.63977
69.8488	0.0	+	9	verb	phrase	1	14	nomatch	voyager	-1	1	p	0.63977
69.78880000000001	0.0	[response]	9	verb	phrase	1	15	nomatch	voyager	-1	1	p	0.63977
71.548	0.0	+	10	noun	list	4	1	nomatch	bleu	-1	1	p	0.75228
72.0978	0.2	vhqt	10	noun	list	4	2	nomatch	bleu	-1	1	p	0.75228
72.2977	0.0	+	10	noun	list	4	3	nomatch	bleu	-1	1	p	0.75228
72.6975	0.2	paul	10	noun	list	4	4	nomatch	bleu	-1	1	p	0.75228
72.8974	0.0	+	10	noun	list	4	5	nomatch	bleu	-1	1	p	0.75228
73.2972	0.2	leur	10	noun	list	4	6	nomatch	bleu	-1	1	p	0.75228
73.4971	0.0	+	10	noun	list	4	7	nomatch	bleu	-1	1	p	0.75228
73.897	0.2	mieux	10	noun	list	4	8	nomatch	bleu	-1	1	p	0.75228
74.0969	0.0	+	10	noun	list	4	9	nomatch	bleu	-1	1	p	0.75228
74.4967	0.2	voilier	10	noun	list	4	10	nomatch	bleu	-1	1	p	0.75228
74.6966	0.0	+	10	noun	list	4	11	nomatch	bleu	-1	1	p	0.75228
75.0964	0.0	+	10	noun	list	4	12	nomatch	bleu	-1	1	p	0.75228
77.0955	0.0	BLEU	10	noun	list	4	13	nomatch	bleu	-1	1	p	0.75228
77.9119	0.0	+	10	noun	list	4	14	nomatch	bleu	-1	1	p	0.75228
77.8478	0.0	[response]	10	noun	list	4	15	nomatch	bleu	-1	1	p	0.75228
79.4945	0.0	+	11	verb	list	2	1	match	beau	4	1	y	0.9766
80.0443	0.2	vzcgmwk	11	verb	list	2	2	match	beau	4	1	y	0.9766
80.24419999999999	0.0	+	11	verb	list	2	3	match	beau	4	1	y	0.9766
80.64399999999999	0.2	nrlk	11	verb	list	2	4	match	beau	4	1	y	0.9766
80.8439	0.0	+	11	verb	list	2	5	match	beau	4	1	y	0.9766
81.2437	0.2	xlrj	11	verb	list	2	6	match	beau	4	1	y	0.9766
81.44359999999999	0.0	+	11	verb	list	2	7	match	beau	4	1	y	0.9766
81.84349999999999	0.2	beau	11	verb	list	2	8	match	beau	4	1	y	0.9766
82.0434	0.0	+	11	verb	list	2	9	match	beau	4	1	y	0.9766
82.4432	0.2	galoper	11	verb	list	2	10	match	beau	4	1	y	0.9766
82.64309999999999	0.0	+	11	verb	list	2	11	match	beau	4	1	y	0.9766
83.04289999999999	0.0	+	11	verb	list	2	12	match	beau	4	1	y	0.9766
85.04200000000002	0.0	BEAU	11	verb	list	2	13	match	beau	4	1	y	0.9766
86.0749	0.0	+	11	verb	list	2	14	match	beau	4	1	y	0.9766
86.01860000000003	0.0	[response]	11	verb	list	2	15	match	beau	4	1	y	0.9766
87.44100000000002	0.0	+	12	noun	list	2	1	match	loin	5	1	y	0.68413
87.9908	0.2	qpx	12	noun	list	2	2	match	loin	5	1	y	0.68413
88.1907	0.0	+	12	noun	list	2	3	match	loin	5	1	y	0.68413
88.5905	0.2	prkz	12	noun	list	2	4	match	loin	5	1	y	0.68413
88.79039999999999	0.0	+	12	noun	list	2	5	match	loin	5	1	y	0.68413
89.19019999999999	0.2	drzp	12	noun	list	2	6	match	loin	5	1	y	0.68413
89.39020000000001	0.0	+	12	noun	list	2	7	match	loin	5	1	y	0.68413
89.79	0.2	tablier	12	noun	list	2	8	match	loin	5	1	y	0.68413
89.98989999999999	0.0	+	12	noun	list	2	9	match	loin	5	1	y	0.68413
90.38969999999999	0.2	loin	12	noun	list	2	10	match	loin	5	1	y	0.68413
90.5896	0.0	+	12	noun	list	2	11	match	loin	5	1	y	0.68413
90.9894	0.0	+	12	noun	list	2	12	match	loin	5	1	y	0.68413
92.9886	0.0	LOIN	12	noun	list	2	13	match	loin	5	1	y	0.68413
93.73819999999999	0.0	+	12	noun	list	2	14	match	loin	5	1	y	0.68413
93.6727	0.0	[response]	12	noun	list	2	15	match	loin	5	1	y	0.68413
95.3875	0.0	+	13	noun	list	4	1	nomatch	mieux	-1	1	p	0.81286
95.93730000000001	0.2	cmrqsvt	13	noun	list	4	2	nomatch	mieux	-1	1	p	0.81286
96.13719999999999	0.0	+	13	noun	list	4	3	nomatch	mieux	-1	1	p	0.81286
96.53699999999999	0.2	jade	13	noun	list	4	4	nomatch	mieux	-1	1	p	0.81286
96.73700000000001	0.0	+	13	noun	list	4	5	nomatch	mieux	-1	1	p	0.81286
97.1367	0.2	mon	13	noun	list	4	6	nomatch	mieux	-1	1	p	0.81286
97.33659999999999	0.0	+	13	noun	list	4	7	nomatch	mieux	-1	1	p	0.81286
97.73649999999999	0.2	plus	13	noun	list	4	8	nomatch	mieux	-1	1	p	0.81286
97.9364	0.0	+	13	noun	list	4	9	nomatch	mieux	-1	1	p	0.81286
98.3362	0.2	casier	13	noun	list	4	10	nomatch	mieux	-1	1	p	0.81286
98.53609999999999	0.0	+	13	noun	list	4	11	nomatch	mieux	-1	1	p	0.81286
98.93589999999999	0.0	+	13	noun	list	4	12	nomatch	mieux	-1	1	p	0.81286
100.93509999999999	0.0	MIEUX	13	noun	list	4	13	nomatch	mieux	-1	1	p	0.81286
101.80130000000001	0.0	+	13	noun	list	4	14	nomatch	mieux	-1	1	p	0.81286
101.7479	0.0	[response]	13	noun	list	4	15	nomatch	mieux	-1	1	p	0.81286
103.33399999999999	0.0	+	14	verb	list	1	1	nomatch	trop	-1	1	p	0.79892
103.8838	0.2	sfdjpkq	14	verb	list	1	2	nomatch	trop	-1	1	p	0.79892
104.08370000000001	0.0	+	14	verb	list	1	3	nomatch	trop	-1	1	p	0.79892
104.50019999999999	0.2	prkz	14	verb	list	1	4	nomatch	trop	-1	1	p	0.79892
104.7001	0.0	+	14	verb	list	1	5	nomatch	trop	-1	1	p	0.79892
105.0999	0.2	xlrj	14	verb	list	1	6	nomatch	trop	-1	1	p	0.79892
105.29979999999999	0.0	+	14	verb	list	1	7	nomatch	trop	-1	1	p	0.79892
105.69959999999999	0.2	plhrfsn	14	verb	list	1	8	nomatch	trop	-1	1	p	0.79892
105.8995	0.0	+	14	verb	list	1	9	nomatch	trop	-1	1	p	0.79892
106.2994	0.2	beau	14	verb	list	1	10	nomatch	trop	-1	1	p	0.79892
106.49929999999999	0.0	+	14	verb	list	1	11	nomatch	trop	-1	1	p	0.79892
106.89909999999999	0.0	+	14	verb	list	1	12	nomatch	trop	-1	1	p	0.79892
108.89820000000002	0.0	TROP	14	verb	list	1	13	nomatch	trop	-1	1	p	0.79892
109.76450000000001	0.0	+	14	verb	list	1	14	nomatch	trop	-1	1	p	0.79892
109.6972	0.0	[response]	14	verb	list	1	15	nomatch	trop	-1	1	p	0.79892
119.29370000000002	0.0	+	15	noun	phrase	4	1	nomatch	marc	-1	1	p	0.65229
119.84340000000002	0.2	psrbwjh	15	noun	phrase	4	2	nomatch	marc	-1	1	p	0.65229
120.0433	0.0	+	15	noun	phrase	4	3	nomatch	marc	-1	1	p	0.65229
120.4432	0.2	dans	15	noun	phrase	4	4	nomatch	marc	-1	1	p	0.65229
120.64309999999999	0.0	+	15	noun	phrase	4	5	nomatch	marc	-1	1	p	0.65229
121.04289999999999	0.2	leur	15	noun	phrase	4	6	nomatch	marc	-1	1	p	0.65229
121.2428	0.0	+	15	noun	phrase	4	7	nomatch	marc	-1	1	p	0.65229
121.6426	0.2	grand	15	noun	phrase	4	8	nomatch	marc	-1	1	p	0.65229
121.84250000000002	0.0	+	15	noun	phrase	4	9	nomatch	marc	-1	1	p	0.65229
122.24239999999999	0.2	rocher	15	noun	phrase	4	10	nomatch	marc	-1	1	p	0.65229
122.4423	0.0	+	15	noun	phrase	4	11	nomatch	marc	-1	1	p	0.65229
122.8421	0.0	+	15	noun	phrase	4	12	nomatch	marc	-1	1	p	0.65229
124.8412	0.0	MARC	15	noun	phrase	4	13	nomatch	marc	-1	1	p	0.65229
125.5576	0.0	+	15	noun	phrase	4	14	nomatch	marc	-1	1	p	0.65229
125.4935	0.0	[response]	15	noun	phrase	4	15	nomatch	marc	-1	1	p	0.65229
127.2402	0.0	+	16	verb	list	3	1	match	beau	4	1	y	0.64672
127.7899	0.2	gnqzdwc	16	verb	list	3	2	match	beau	4	1	y	0.64672
127.98980000000002	0.0	+	16	verb	list	3	3	match	beau	4	1	y	0.64672
128.3897	0.2	prkz	16	verb	list	3	4	match	beau	4	1	y	0.64672
128.58960000000002	0.0	+	16	verb	list	3	5	match	beau	4	1	y	0.64672
128.9894	0.2	peut	16	verb	list	3	6	match	beau	4	1	y	0.64672
129.1893	0.0	+	16	verb	list	3	7	match	beau	4	1	y	0.64672
129.58910000000003	0.2	beau	16	verb	list	3	8	match	beau	4	1	y	0.64672
129.789	0.0	+	16	verb	list	3	9	match	beau	4	1	y	0.64672
130.1889	0.2	patiner	16	verb	list	3	10	match	beau	4	1	y	0.64672
130.3888	0.0	+	16	verb	list	3	11	match	beau	4	1	y	0.64672
130.78860000000003	0.0	+	16	verb	list	3	12	match	beau	4	1	y	0.64672
132.78770000000003	0.0	BEAU	16	verb	list	3	13	match	beau	4	1	y	0.64672
133.48739999999998	0.0	+	16	verb	list	3	14	match	beau	4	1	y	0.64672
133.43440000000004	0.0	[response]	16	verb	list	3	15	match	beau	4	1	y	0.64672
135.18670000000003	0.0	+	17	noun	phrase	3	1	match	leur	3	1	y	1.3494
135.7364	0.2	fhxgbw	17	noun	phrase	3	2	match	leur	3	1	y	1.3494
135.93630000000002	0.0	+	17	noun	phrase	3	3	match	leur	3	1	y	1.3494
136.33620000000002	0.2	wksm	17	noun	phrase	3	4	match	leur	3	1	y	1.3494
136.53609999999998	0.0	+	17	noun	phrase	3	5	match	leur	3	1	y	1.3494
136.9359	0.2	leur	17	noun	phrase	3	6	match	leur	3	1	y	1.3494
137.13580000000002	0.0	+	17	noun	phrase	3	7	match	leur	3	1	y	1.3494
137.5356	0.2	cendrier	17	noun	phrase	3	8	match	leur	3	1	y	1.3494
137.7362	0.0	+	17	noun	phrase	3	9	match	leur	3	1	y	1.3494
138.1354	0.2	bleu	17	noun	phrase	3	10	match	leur	3	1	y	1.3494
138.33530000000002	0.0	+	17	noun	phrase	3	11	match	leur	3	1	y	1.3494
138.7351	0.0	+	17	noun	phrase	3	12	match	leur	3	1	y	1.3494
140.73489999999998	0.0	LEUR	17	noun	phrase	3	13	match	leur	3	1	y	1.3494
142.15030000000002	0.0	+	17	noun	phrase	3	14	match	leur	3	1	y	1.3494
142.08440000000002	0.0	[response]	17	noun	phrase	3	15	match	leur	3	1	y	1.3494
143.14980000000003	0.0	+	18	noun	list	2	1	match	vite	5	1	y	0.59906
143.69959999999998	0.2	kfpzdg	18	noun	list	2	2	match	vite	5	1	y	0.59906
143.8995	0.0	+	18	noun	list	2	3	match	vite	5	1	y	0.59906
144.29930000000002	0.2	nrlk	18	noun	list	2	4	match	vite	5	1	y	0.59906
144.49920000000003	0.0	+	18	noun	list	2	5	match	vite	5	1	y	0.59906
144.89909999999998	0.2	xlrj	18	noun	list	2	6	match	vite	5	1	y	0.59906
145.099	0.0	+	18	noun	list	2	7	match	vite	5	1	y	0.59906
145.49880000000002	0.2	voilier	18	noun	list	2	8	match	vite	5	1	y	0.59906
145.69870000000003	0.0	+	18	noun	list	2	9	match	vite	5	1	y	0.59906
146.0985	0.2	vite	18	noun	list	2	10	match	vite	5	1	y	0.59906
146.29840000000002	0.0	+	18	noun	list	2	11	match	vite	5	1	y	0.59906
146.69830000000002	0.0	+	18	noun	list	2	12	match	vite	5	1	y	0.59906
148.69740000000002	0.0	VITE	18	noun	list	2	13	match	vite	5	1	y	0.59906
149.36380000000003	0.0	+	18	noun	list	2	14	match	vite	5	1	y	0.59906
149.2964	0.0	[response]	18	noun	list	2	15	match	vite	5	1	y	0.59906
151.09629999999999	0.0	+	19	noun	phrase	4	1	match	rouge	5	1	y	0.71054
151.6461	0.2	zxhfv	19	noun	phrase	4	2	match	rouge	5	1	y	0.71054
151.846	0.0	+	19	noun	phrase	4	3	match	rouge	5	1	y	0.71054
152.24580000000003	0.2	pour	19	noun	phrase	4	4	match	rouge	5	1	y	0.71054
152.4457	0.0	+	19	noun	phrase	4	5	match	rouge	5	1	y	0.71054
152.8456	0.2	mon	19	noun	phrase	4	6	match	rouge	5	1	y	0.71054
153.0455	0.0	+	19	noun	phrase	4	7	match	rouge	5	1	y	0.71054
153.44529999999997	0.2	panier	19	noun	phrase	4	8	match	rouge	5	1	y	0.71054
153.6452	0.0	+	19	noun	phrase	4	9	match	rouge	5	1	y	0.71054
154.04500000000002	0.2	rouge	19	noun	phrase	4	10	match	rouge	5	1	y	0.71054
154.24490000000003	0.0	+	19	noun	phrase	4	11	match	rouge	5	1	y	0.71054
154.64479999999998	0.0	+	19	noun	phrase	4	12	match	rouge	5	1	y	0.71054
156.64390000000003	0.0	ROUGE	19	noun	phrase	4	13	match	rouge	5	1	y	0.71054
157.41019999999997	0.0	+	19	noun	phrase	4	14	match	rouge	5	1	y	0.71054
157.3544	0.0	[response]	19	noun	phrase	4	15	match	rouge	5	1	y	0.71054
159.0428	0.0	+	20	noun	phrase	1	1	match	bleu	5	1	y	0.6191
159.5926	0.2	fmsqdpl	20	noun	phrase	1	2	match	bleu	5	1	y	0.6191
159.79250000000002	0.0	+	20	noun	phrase	1	3	match	bleu	5	1	y	0.6191
160.1923	0.2	fqnb	20	noun	phrase	1	4	match	bleu	5	1	y	0.6191
160.3922	0.0	+	20	noun	phrase	1	5	match	bleu	5	1	y	0.6191
160.7921	0.2	hls	20	noun	phrase	1	6	match	bleu	5	1	y	0.6191
160.99200000000002	0.0	+	20	noun	phrase	1	7	match	bleu	5	1	y	0.6191
161.3918	0.2	qxdtsvzr	20	noun	phrase	1	8	match	bleu	5	1	y	0.6191
161.5917	0.0	+	20	noun	phrase	1	9	match	bleu	5	1	y	0.6191
161.99150000000003	0.2	bleu	20	noun	phrase	1	10	match	bleu	5	1	y	0.6191
162.19150000000002	0.0	+	20	noun	phrase	1	11	match	bleu	5	1	y	0.6191
162.5913	0.0	+	20	noun	phrase	1	12	match	bleu	5	1	y	0.6191
164.5904	0.0	BLEU	20	noun	phrase	1	13	match	bleu	5	1	y	0.6191
165.27339999999998	0.0	+	20	noun	phrase	1	14	match	bleu	5	1	y	0.6191
165.2095	0.0	[response]	20	noun	phrase	1	15	match	bleu	5	1	y	0.6191
166.98930000000001	0.0	+	21	verb	phrase	1	1	nomatch	loin	-1	1	p	0.63675
167.53910000000002	0.2	tvcf	21	verb	phrase	1	2	nomatch	loin	-1	1	p	0.63675
167.73899999999998	0.0	+	21	verb	phrase	1	3	nomatch	loin	-1	1	p	0.63675
168.1388	0.2	qxrj	21	verb	phrase	1	4	nomatch	loin	-1	1	p	0.63675
168.33870000000002	0.0	+	21	verb	phrase	1	5	nomatch	loin	-1	1	p	0.63675
168.73860000000002	0.2	xlrj	21	verb	phrase	1	6	nomatch	loin	-1	1	p	0.63675
168.93849999999998	0.0	+	21	verb	phrase	1	7	nomatch	loin	-1	1	p	0.63675
169.3383	0.2	zqdpfvt	21	verb	phrase	1	8	nomatch	loin	-1	1	p	0.63675
169.53820000000002	0.0	+	21	verb	phrase	1	9	nomatch	loin	-1	1	p	0.63675
169.938	0.2	tard	21	verb	phrase	1	10	nomatch	loin	-1	1	p	0.63675
170.13799999999998	0.0	+	21	verb	phrase	1	11	nomatch	loin	-1	1	p	0.63675
170.5378	0.0	+	21	verb	phrase	1	12	nomatch	loin	-1	1	p	0.63675
172.5369	0.0	LOIN	21	verb	phrase	1	13	nomatch	loin	-1	1	p	0.63675
173.2366	0.0	+	21	verb	phrase	1	14	nomatch	loin	-1	1	p	0.63675
173.1737	0.0	[response]	21	verb	phrase	1	15	nomatch	loin	-1	1	p	0.63675
174.93580000000003	0.0	+	22	noun	list	3	1	match	ainsi	5	1	y	0.69616
175.48559999999998	0.2	lhkf	22	noun	list	3	2	match	ainsi	5	1	y	0.69616
175.6855	0.0	+	22	noun	list	3	3	match	ainsi	5	1	y	0.69616
176.08530000000002	0.2	gbph	22	noun	list	3	4	match	ainsi	5	1	y	0.69616
176.28519999999997	0.0	+	22	noun	list	3	5	match	ainsi	5	1	y	0.69616
176.68509999999998	0.2	doit	22	noun	list	3	6	match	ainsi	5	1	y	0.69616
176.885	0.0	+	22	noun	list	3	7	match	ainsi	5	1	y	0.69616
177.28480000000002	0.2	sablier	22	noun	list	3	8	match	ainsi	5	1	y	0.69616
177.48469999999998	0.0	+	22	noun	list	3	9	match	ainsi	5	1	y	0.69616
177.8845	0.2	ainsi	22	noun	list	3	10	match	ainsi	5	1	y	0.69616
178.08440000000002	0.0	+	22	noun	list	3	11	match	ainsi	5	1	y	0.69616
178.48430000000002	0.0	+	22	noun	list	3	12	match	ainsi	5	1	y	0.69616
180.50009999999997	0.0	AINSI	22	noun	list	3	13	match	ainsi	5	1	y	0.69616
181.24970000000002	0.0	+	22	noun	list	3	14	match	ainsi	5	1	y	0.69616
181.19619999999998	0.0	[response]	22	noun	list	3	15	match	ainsi	5	1	y	0.69616
190.89550000000003	0.0	+	23	noun	phrase	4	1	match	sur	2	1	y	0.71483
191.4452	0.2	hbfzwq	23	noun	phrase	4	2	match	sur	2	1	y	0.71483
191.6452	0.0	+	23	noun	phrase	4	3	match	sur	2	1	y	0.71483
192.04500000000002	0.2	sur	23	noun	phrase	4	4	match	sur	2	1	y	0.71483
192.24490000000003	0.0	+	23	noun	phrase	4	5	match	sur	2	1	y	0.71483
192.6447	0.2	mon	23	noun	phrase	4	6	match	sur	2	1	y	0.71483
192.8446	0.0	+	23	noun	phrase	4	7	match	sur	2	1	y	0.71483
193.24439999999998	0.2	cendrier	23	noun	phrase	4	8	match	sur	2	1	y	0.71483
193.44440000000003	0.0	+	23	noun	phrase	4	9	match	sur	2	1	y	0.71483
193.8442	0.2	bleu	23	noun	phrase	4	10	match	sur	2	1	y	0.71483
194.04410000000001	0.0	+	23	noun	phrase	4	11	match	sur	2	1	y	0.71483
194.44389999999999	0.0	+	23	noun	phrase	4	12	match	sur	2	1	y	0.71483
196.44299999999998	0.0	SUR	23	noun	phrase	4	13	match	sur	2	1	y	0.71483
197.20940000000002	0.0	+	23	noun	phrase	4	14	match	sur	2	1	y	0.71483
197.15790000000004	0.0	[response]	23	noun	phrase	4	15	match	sur	2	1	y	0.71483
206.8385	0.0	+	24	verb	phrase	3	1	match	va	3	1	y	0.66489
207.38819999999998	0.2	lcq	24	verb	phrase	3	2	match	va	3	1	y	0.66489
207.5881	0.0	+	24	verb	phrase	3	3	match	va	3	1	y	0.66489
207.988	0.2	qnpz	24	verb	phrase	3	4	match	va	3	1	y	0.66489
208.1879	0.0	+	24	verb	phrase	3	5	match	va	3	1	y	0.66489
208.58770000000004	0.2	va	24	verb	phrase	3	6	match	va	3	1	y	0.66489
208.7876	0.0	+	24	verb	phrase	3	7	match	va	3	1	y	0.66489
209.18740000000003	0.2	plus	24	verb	phrase	3	8	match	va	3	1	y	0.66489
209.3874	0.0	+	24	verb	phrase	3	9	match	va	3	1	y	0.66489
209.78720000000004	0.2	danser	24	verb	phrase	3	10	match	va	3	1	y	0.66489
209.9871	0.0	+	24	verb	phrase	3	11	match	va	3	1	y	0.66489
210.38690000000003	0.0	+	24	verb	phrase	3	12	match	va	3	1	y	0.66489
212.38600000000002	0.0	VA	24	verb	phrase	3	13	match	va	3	1	y	0.66489
213.11900000000003	0.0	+	24	verb	phrase	3	14	match	va	3	1	y	0.66489
213.0509	0.0	[response]	24	verb	phrase	3	15	match	va	3	1	y	0.66489
214.78500000000003	0.0	+	25	verb	list	1	1	nomatch	rouge	-1	1	p	0.78562
215.3347	0.2	qtndjv	25	verb	list	1	2	nomatch	rouge	-1	1	p	0.78562
215.5346	0.0	+	25	verb	list	1	3	nomatch	rouge	-1	1	p	0.78562
215.9345	0.2	sbgt	25	verb	list	1	4	nomatch	rouge	-1	1	p	0.78562
216.13440000000003	0.0	+	25	verb	list	1	5	nomatch	rouge	-1	1	p	0.78562
216.5342	0.2	hls	25	verb	list	1	6	nomatch	rouge	-1	1	p	0.78562
216.7341	0.0	+	25	verb	list	1	7	nomatch	rouge	-1	1	p	0.78562
217.13400000000001	0.2	plhrfsn	25	verb	list	1	8	nomatch	rouge	-1	1	p	0.78562
217.33390000000003	0.0	+	25	verb	list	1	9	nomatch	rouge	-1	1	p	0.78562
217.7344	0.2	vert	25	verb	list	1	10	nomatch	rouge	-1	1	p	0.78562
217.9336	0.0	+	25	verb	list	1	11	nomatch	rouge	-1	1	p	0.78562
218.3501	0.0	+	25	verb	list	1	12	nomatch	rouge	-1	1	p	0.78562
220.3492	0.0	ROUGE	25	verb	list	1	13	nomatch	rouge	-1	1	p	0.78562
221.1988	0.0	+	25	verb	list	1	14	nomatch	rouge	-1	1	p	0.78562
221.13480000000004	0.0	[response]	25	verb	list	1	15	nomatch	rouge	-1	1	p	0.78562
222.7482	0.0	+	26	noun	list	1	1	match	cendrier	5	1	y	1.0001
223.29790000000003	0.2	tjdx	26	noun	list	1	2	match	cendrier	5	1	y	1.0001
223.49780000000004	0.0	+	26	noun	list	1	3	match	cendrier	5	1	y	1.0001
223.8976	0.2	nrlk	26	noun	list	1	4	match	cendrier	5	1	y	1.0001
224.0976	0.0	+	26	noun	list	1	5	match	cendrier	5	1	y	1.0001
224.49740000000003	0.2	drzp	26	noun	list	1	6	match	cendrier	5	1	y	1.0001
224.69730000000004	0.0	+	26	noun	list	1	7	match	cendrier	5	1	y	1.0001
225.0971	0.2	sxp	26	noun	list	1	8	match	cendrier	5	1	y	1.0001
225.29700000000003	0.0	+	26	noun	list	1	9	match	cendrier	5	1	y	1.0001
225.69690000000003	0.2	cendrier	26	noun	list	1	10	match	cendrier	5	1	y	1.0001
225.89680000000004	0.0	+	26	noun	list	1	11	match	cendrier	5	1	y	1.0001
226.2966	0.0	+	26	noun	list	1	12	match	cendrier	5	1	y	1.0001
228.2957	0.0	CENDRIER	26	noun	list	1	13	match	cendrier	5	1	y	1.0001
229.3619	0.0	+	26	noun	list	1	14	match	cendrier	5	1	y	1.0001
229.29580000000004	0.0	[response]	26	noun	list	1	15	match	cendrier	5	1	y	1.0001
238.6911	0.0	+	27	noun	phrase	2	1	nomatch	grand	-1	1	p	0.78792
239.2409	0.2	hlb	27	noun	phrase	2	2	nomatch	grand	-1	1	p	0.78792
239.44080000000002	0.0	+	27	noun	phrase	2	3	nomatch	grand	-1	1	p	0.78792
239.8406	0.2	pcms	27	noun	phrase	2	4	nomatch	grand	-1	1	p	0.78792
240.0405	0.0	+	27	noun	phrase	2	5	nomatch	grand	-1	1	p	0.78792
240.4404	0.2	hls	27	noun	phrase	2	6	nomatch	grand	-1	1	p	0.78792
240.64030000000002	0.0	+	27	noun	phrase	2	7	nomatch	grand	-1	1	p	0.78792
241.0401	0.2	nouveau	27	noun	phrase	2	8	nomatch	grand	-1	1	p	0.78792
241.24	0.0	+	27	noun	phrase	2	9	nomatch	grand	-1	1	p	0.78792
241.63980000000004	0.2	voilier	27	noun	phrase	2	10	nomatch	grand	-1	1	p	0.78792
241.8397	0.0	+	27	noun	phrase	2	11	nomatch	grand	-1	1	p	0.78792
242.2396	0.0	+	27	noun	phrase	2	12	nomatch	grand	-1	1	p	0.78792
244.2387	0.0	GRAND	27	noun	phrase	2	13	nomatch	grand	-1	1	p	0.78792
245.0883	0.0	+	27	noun	phrase	2	14	nomatch	grand	-1	1	p	0.78792
245.02660000000003	0.0	[response]	27	noun	phrase	2	15	nomatch	grand	-1	1	p	0.78792
246.63760000000002	0.0	+	28	noun	list	2	1	nomatch	parader	-1	1	p	0.7352800000000002
247.18740000000003	0.2	qmfjlx	28	noun	list	2	2	nomatch	parader	-1	1	p	0.7352800000000002
247.38730000000004	0.0	+	28	noun	list	2	3	nomatch	parader	-1	1	p	0.7352800000000002
247.7871	0.2	dzlw	28	noun	list	2	4	nomatch	parader	-1	1	p	0.7352800000000002
247.98700000000002	0.0	+	28	noun	list	2	5	nomatch	parader	-1	1	p	0.7352800000000002
248.38690000000003	0.2	gzps	28	noun	list	2	6	nomatch	parader	-1	1	p	0.7352800000000002
248.58680000000004	0.0	+	28	noun	list	2	7	nomatch	parader	-1	1	p	0.7352800000000002
248.9866	0.2	mieux	28	noun	list	2	8	nomatch	parader	-1	1	p	0.7352800000000002
249.18650000000002	0.0	+	28	noun	list	2	9	nomatch	parader	-1	1	p	0.7352800000000002
249.5863	0.2	cendrier	28	noun	list	2	10	nomatch	parader	-1	1	p	0.7352800000000002
249.7862	0.0	+	28	noun	list	2	11	nomatch	parader	-1	1	p	0.7352800000000002
250.1861	0.0	+	28	noun	list	2	12	nomatch	parader	-1	1	p	0.7352800000000002
252.1852	0.0	PARADER	28	noun	list	2	13	nomatch	parader	-1	1	p	0.7352800000000002
252.9848	0.0	+	28	noun	list	2	14	nomatch	parader	-1	1	p	0.7352800000000002
252.92050000000006	0.0	[response]	28	noun	list	2	15	nomatch	parader	-1	1	p	0.7352800000000002
254.58410000000003	0.0	+	29	noun	list	3	1	nomatch	leur	-1	1	p	1.0176
255.13390000000004	0.2	stnfc	29	noun	list	3	2	nomatch	leur	-1	1	p	1.0176
255.3338	0.0	+	29	noun	list	3	3	nomatch	leur	-1	1	p	1.0176
255.7337	0.2	fqnb	29	noun	list	3	4	nomatch	leur	-1	1	p	1.0176
255.9336	0.0	+	29	noun	list	3	5	nomatch	leur	-1	1	p	1.0176
256.35	0.2	va	29	noun	list	3	6	nomatch	leur	-1	1	p	1.0176
256.54990000000004	0.0	+	29	noun	list	3	7	nomatch	leur	-1	1	p	1.0176
256.94980000000004	0.2	panier	29	noun	list	3	8	nomatch	leur	-1	1	p	1.0176
257.1497	0.0	+	29	noun	list	3	9	nomatch	leur	-1	1	p	1.0176
257.5495	0.2	tard	29	noun	list	3	10	nomatch	leur	-1	1	p	1.0176
257.74940000000004	0.0	+	29	noun	list	3	11	nomatch	leur	-1	1	p	1.0176
258.1492	0.0	+	29	noun	list	3	12	nomatch	leur	-1	1	p	1.0176
260.1483	0.0	LEUR	29	noun	list	3	13	nomatch	leur	-1	1	p	1.0176
261.2312	0.0	+	29	noun	list	3	14	nomatch	leur	-1	1	p	1.0176
261.166	0.0	[response]	29	noun	list	3	15	nomatch	leur	-1	1	p	1.0176
262.5473	0.0	+	30	verb	list	3	1	nomatch	rouge	-1	1	p	0.69766
263.0971	0.2	tvwrzn	30	verb	list	3	2	nomatch	rouge	-1	1	p	0.69766
263.297	0.0	+	30	verb	list	3	3	nomatch	rouge	-1	1	p	0.69766
263.6968	0.2	dzlw	30	verb	list	3	4	nomatch	rouge	-1	1	p	0.69766
263.8967	0.0	+	30	verb	list	3	5	nomatch	rouge	-1	1	p	0.69766
264.29650000000004	0.2	son	30	verb	list	3	6	nomatch	rouge	-1	1	p	0.69766
264.4964	0.0	+	30	verb	list	3	7	nomatch	rouge	-1	1	p	0.69766
264.8963	0.2	jongler	30	verb	list	3	8	nomatch	rouge	-1	1	p	0.69766
265.0962	0.0	+	30	verb	list	3	9	nomatch	rouge	-1	1	p	0.69766
265.49600000000004	0.2	blanc	30	verb	list	3	10	nomatch	rouge	-1	1	p	0.69766
265.6959	0.0	+	30	verb	list	3	11	nomatch	rouge	-1	1	p	0.69766
266.0957	0.0	+	30	verb	list	3	12	nomatch	rouge	-1	1	p	0.69766
268.0949	0.0	ROUGE	30	verb	list	3	13	nomatch	rouge	-1	1	p	0.69766
268.84450000000004	0.0	+	30	verb	list	3	14	nomatch	rouge	-1	1	p	0.69766
268.7925	0.0	[response]	30	verb	list	3	15	nomatch	rouge	-1	1	p	0.69766
286.4868	0.0	+	31	noun	phrase	1	1	match	bleu	5	1	y	0.68607
287.0365	0.2	lfmnr	31	noun	phrase	1	2	match	bleu	5	1	y	0.68607
287.23650000000004	0.0	+	31	noun	phrase	1	3	match	bleu	5	1	y	0.68607
287.6363	0.2	mkg	31	noun	phrase	1	4	match	bleu	5	1	y	0.68607
287.8362	0.0	+	31	noun	phrase	1	5	match	bleu	5	1	y	0.68607
288.236	0.2	dmf	31	noun	phrase	1	6	match	bleu	5	1	y	0.68607
288.4359	0.0	+	31	noun	phrase	1	7	match	bleu	5	1	y	0.68607
288.83570000000003	0.2	xmhfwv	31	noun	phrase	1	8	match	bleu	5	1	y	0.68607
289.03560000000004	0.0	+	31	noun	phrase	1	9	match	bleu	5	1	y	0.68607
289.4355	0.2	bleu	31	noun	phrase	1	10	match	bleu	5	1	y	0.68607
289.6354	0.0	+	31	noun	phrase	1	11	match	bleu	5	1	y	0.68607
290.03520000000003	0.0	+	31	noun	phrase	1	12	match	bleu	5	1	y	0.68607
292.03430000000003	0.0	BLEU	31	noun	phrase	1	13	match	bleu	5	1	y	0.68607
292.784	0.0	+	31	noun	phrase	1	14	match	bleu	5	1	y	0.68607
292.72040000000004	0.0	[response]	31	noun	phrase	1	15	match	bleu	5	1	y	0.68607
294.4499	0.0	+	32	noun	list	4	1	match	loin	5	1	y	0.61922
294.9997	0.2	mzfjhcv	32	noun	list	4	2	match	loin	5	1	y	0.61922
295.19960000000003	0.0	+	32	noun	list	4	3	match	loin	5	1	y	0.61922
295.5994	0.2	avec	32	noun	list	4	4	match	loin	5	1	y	0.61922
295.7993	0.0	+	32	noun	list	4	5	match	loin	5	1	y	0.61922
296.1992	0.2	va	32	noun	list	4	6	match	loin	5	1	y	0.61922
296.39910000000003	0.0	+	32	noun	list	4	7	match	loin	5	1	y	0.61922
296.7989	0.2	panier	32	noun	list	4	8	match	loin	5	1	y	0.61922
296.9988	0.0	+	32	noun	list	4	9	match	loin	5	1	y	0.61922
297.39860000000004	0.2	loin	32	noun	list	4	10	match	loin	5	1	y	0.61922
297.5985	0.0	+	32	noun	list	4	11	match	loin	5	1	y	0.61922
297.9984	0.0	+	32	noun	list	4	12	match	loin	5	1	y	0.61922
299.9975	0.0	LOIN	32	noun	list	4	13	match	loin	5	1	y	0.61922
300.6805	0.0	+	32	noun	list	4	14	match	loin	5	1	y	0.61922
300.61670000000004	0.0	[response]	32	noun	list	4	15	match	loin	5	1	y	0.61922
302.3964	0.0	+	33	noun	phrase	4	1	match	son	3	1	y	0.88121
302.94620000000003	0.2	zmxp	33	noun	phrase	4	2	match	son	3	1	y	0.88121
303.1461	0.0	+	33	noun	phrase	4	3	match	son	3	1	y	0.88121
303.5459	0.2	sans	33	noun	phrase	4	4	match	son	3	1	y	0.88121
303.74580000000003	0.0	+	33	noun	phrase	4	5	match	son	3	1	y	0.88121
304.14570000000003	0.2	son	33	noun	phrase	4	6	match	son	3	1	y	0.88121
304.3456	0.0	+	33	noun	phrase	4	7	match	son	3	1	y	0.88121
304.7454	0.2	rocher	33	noun	phrase	4	8	match	son	3	1	y	0.88121
304.94530000000003	0.0	+	33	noun	phrase	4	9	match	son	3	1	y	0.88121
305.3451	0.2	vert	33	noun	phrase	4	10	match	son	3	1	y	0.88121
305.545	0.0	+	33	noun	phrase	4	11	match	son	3	1	y	0.88121
305.9449	0.0	+	33	noun	phrase	4	12	match	son	3	1	y	0.88121
307.944	0.0	SON	33	noun	phrase	4	13	match	son	3	1	y	0.88121
308.87690000000003	0.0	+	33	noun	phrase	4	14	match	son	3	1	y	0.88121
308.8252	0.0	[response]	33	noun	phrase	4	15	match	son	3	1	y	0.88121
310.34290000000004	0.0	+	34	verb	phrase	4	1	match	loin	5	1	y	0.71181
310.8927	0.2	wghql	34	verb	phrase	4	2	match	loin	5	1	y	0.71181
311.0926	0.0	+	34	verb	phrase	4	3	match	loin	5	1	y	0.71181
311.49240000000003	0.2	yves	34	verb	phrase	4	4	match	loin	5	1	y	0.71181
311.6924	0.0	+	34	verb	phrase	4	5	match	loin	5	1	y	0.71181
312.0922	0.2	peut	34	verb	phrase	4	6	match	loin	5	1	y	0.71181
312.2921	0.0	+	34	verb	phrase	4	7	match	loin	5	1	y	0.71181
312.69190000000003	0.2	galoper	34	verb	phrase	4	8	match	loin	5	1	y	0.71181
312.8918	0.0	+	34	verb	phrase	4	9	match	loin	5	1	y	0.71181
313.2916	0.2	loin	34	verb	phrase	4	10	match	loin	5	1	y	0.71181
313.4918	0.0	+	34	verb	phrase	4	11	match	loin	5	1	y	0.71181
313.89140000000003	0.0	+	34	verb	phrase	4	12	match	loin	5	1	y	0.71181
315.89050000000003	0.0	LOIN	34	verb	phrase	4	13	match	loin	5	1	y	0.71181
316.65680000000003	0.0	+	34	verb	phrase	4	14	match	loin	5	1	y	0.71181
316.6023	0.0	[response]	34	verb	phrase	4	15	match	loin	5	1	y	0.71181
318.2894	0.0	+	35	noun	list	1	1	nomatch	panier	-1	1	p	0.67038
318.8392	0.2	rkt	35	noun	list	1	2	nomatch	panier	-1	1	p	0.67038
319.0391	0.0	+	35	noun	list	1	3	nomatch	panier	-1	1	p	0.67038
319.4389	0.2	qxrj	35	noun	list	1	4	nomatch	panier	-1	1	p	0.67038
319.63890000000004	0.0	+	35	noun	list	1	5	nomatch	panier	-1	1	p	0.67038
320.0387	0.2	hls	35	noun	list	1	6	nomatch	panier	-1	1	p	0.67038
320.2386	0.0	+	35	noun	list	1	7	nomatch	panier	-1	1	p	0.67038
320.6384	0.2	bpqhz	35	noun	list	1	8	nomatch	panier	-1	1	p	0.67038
320.8383	0.0	+	35	noun	list	1	9	nomatch	panier	-1	1	p	0.67038
321.23810000000003	0.2	tablier	35	noun	list	1	10	nomatch	panier	-1	1	p	0.67038
321.4381	0.0	+	35	noun	list	1	11	nomatch	panier	-1	1	p	0.67038
321.8379	0.0	+	35	noun	list	1	12	nomatch	panier	-1	1	p	0.67038
323.837	0.0	PANIER	35	noun	list	1	13	nomatch	panier	-1	1	p	0.67038
324.57	0.0	+	35	noun	list	1	14	nomatch	panier	-1	1	p	0.67038
324.5074	0.0	[response]	35	noun	list	1	15	nomatch	panier	-1	1	p	0.67038
326.2359	0.0	+	36	verb	phrase	1	1	match	galoper	5	1	y	0.55847
326.7857	0.2	vqhfp	36	verb	phrase	1	2	match	galoper	5	1	y	0.55847
326.98560000000003	0.0	+	36	verb	phrase	1	3	match	galoper	5	1	y	0.55847
327.3854	0.2	qnpz	36	verb	phrase	1	4	match	galoper	5	1	y	0.55847
327.5854	0.0	+	36	verb	phrase	1	5	match	galoper	5	1	y	0.55847
327.9852	0.2	xlrj	36	verb	phrase	1	6	match	galoper	5	1	y	0.55847
328.18510000000003	0.0	+	36	verb	phrase	1	7	match	galoper	5	1	y	0.55847
328.5849	0.2	pxhm	36	verb	phrase	1	8	match	galoper	5	1	y	0.55847
328.7848	0.0	+	36	verb	phrase	1	9	match	galoper	5	1	y	0.55847
329.1847	0.2	galoper	36	verb	phrase	1	10	match	galoper	5	1	y	0.55847
329.38460000000003	0.0	+	36	verb	phrase	1	11	match	galoper	5	1	y	0.55847
329.7844	0.0	+	36	verb	phrase	1	12	match	galoper	5	1	y	0.55847
331.8002	0.0	GALOPER	36	verb	phrase	1	13	match	galoper	5	1	y	0.55847
332.4166	0.0	+	36	verb	phrase	1	14	match	galoper	5	1	y	0.55847
332.3586	0.0	[response]	36	verb	phrase	1	15	match	galoper	5	1	y	0.55847
334.19910000000004	0.0	+	37	verb	phrase	1	1	match	beaucoup	5	1	y	0.90942
334.7489	0.2	gpcbtw	37	verb	phrase	1	2	match	beaucoup	5	1	y	0.90942
334.9488	0.0	+	37	verb	phrase	1	3	match	beaucoup	5	1	y	0.90942
335.34860000000003	0.2	sbgt	37	verb	phrase	1	4	match	beaucoup	5	1	y	0.90942
335.5485	0.0	+	37	verb	phrase	1	5	match	beaucoup	5	1	y	0.90942
335.9483	0.2	drzp	37	verb	phrase	1	6	match	beaucoup	5	1	y	0.90942
336.14820000000003	0.0	+	37	verb	phrase	1	7	match	beaucoup	5	1	y	0.90942
336.54810000000003	0.2	zrblps	37	verb	phrase	1	8	match	beaucoup	5	1	y	0.90942
336.748	0.0	+	37	verb	phrase	1	9	match	beaucoup	5	1	y	0.90942
337.1478	0.2	beaucoup	37	verb	phrase	1	10	match	beaucoup	5	1	y	0.90942
337.34770000000003	0.0	+	37	verb	phrase	1	11	match	beaucoup	5	1	y	0.90942
337.74760000000003	0.0	+	37	verb	phrase	1	12	match	beaucoup	5	1	y	0.90942
339.74670000000003	0.0	BEAUCOUP	37	verb	phrase	1	13	match	beaucoup	5	1	y	0.90942
340.7129	0.0	+	37	verb	phrase	1	14	match	beaucoup	5	1	y	0.90942
340.6561000000001	0.0	[response]	37	verb	phrase	1	15	match	beaucoup	5	1	y	0.90942
342.1456	0.0	+	38	noun	list	1	1	match	rocher	5	1	y	1.7453000000000003
342.6954	0.2	lqzcrjx	38	noun	list	1	2	match	rocher	5	1	y	1.7453000000000003
342.8953	0.0	+	38	noun	list	1	3	match	rocher	5	1	y	1.7453000000000003
343.2951	0.2	qnpz	38	noun	list	1	4	match	rocher	5	1	y	1.7453000000000003
343.495	0.0	+	38	noun	list	1	5	match	rocher	5	1	y	1.7453000000000003
343.89480000000003	0.2	gzps	38	noun	list	1	6	match	rocher	5	1	y	1.7453000000000003
344.0948	0.0	+	38	noun	list	1	7	match	rocher	5	1	y	1.7453000000000003
344.4946	0.2	fzhj	38	noun	list	1	8	match	rocher	5	1	y	1.7453000000000003
344.6945	0.0	+	38	noun	list	1	9	match	rocher	5	1	y	1.7453000000000003
345.09430000000003	0.2	rocher	38	noun	list	1	10	match	rocher	5	1	y	1.7453000000000003
345.2942	0.0	+	38	noun	list	1	11	match	rocher	5	1	y	1.7453000000000003
345.6941	0.0	+	38	noun	list	1	12	match	rocher	5	1	y	1.7453000000000003
347.6932	0.0	ROCHER	38	noun	list	1	13	match	rocher	5	1	y	1.7453000000000003
349.49240000000003	0.0	+	38	noun	list	1	14	match	rocher	5	1	y	1.7453000000000003
349.43850000000003	0.0	[response]	38	noun	list	1	15	match	rocher	5	1	y	1.7453000000000003
358.08860000000004	0.0	+	39	noun	list	4	1	nomatch	sous	-1	1	p	1.281
358.6384	0.2	xvbsl	39	noun	list	4	2	nomatch	sous	-1	1	p	1.281
358.8383	0.0	+	39	noun	list	4	3	nomatch	sous	-1	1	p	1.281
359.23810000000003	0.2	dans	39	noun	list	4	4	nomatch	sous	-1	1	p	1.281
359.43800000000005	0.0	+	39	noun	list	4	5	nomatch	sous	-1	1	p	1.281
359.8378	0.2	doit	39	noun	list	4	6	nomatch	sous	-1	1	p	1.281
360.0378	0.0	+	39	noun	list	4	7	nomatch	sous	-1	1	p	1.281
360.43760000000003	0.2	cendrier	39	noun	list	4	8	nomatch	sous	-1	1	p	1.281
360.6375	0.0	+	39	noun	list	4	9	nomatch	sous	-1	1	p	1.281
361.0373	0.2	ainsi	39	noun	list	4	10	nomatch	sous	-1	1	p	1.281
361.23720000000003	0.0	+	39	noun	list	4	11	nomatch	sous	-1	1	p	1.281
361.637	0.0	+	39	noun	list	4	12	nomatch	sous	-1	1	p	1.281
363.63620000000003	0.0	SOUS	39	noun	list	4	13	nomatch	sous	-1	1	p	1.281
364.9689	0.0	+	39	noun	list	4	14	nomatch	sous	-1	1	p	1.281
364.91720000000004	0.0	[response]	39	noun	list	4	15	nomatch	sous	-1	1	p	1.281
374.0482	0.0	+	40	verb	phrase	1	1	nomatch	loin	-1	1	p	0.6001000000000001
374.598	0.2	pzfwt	40	verb	phrase	1	2	nomatch	loin	-1	1	p	0.6001000000000001
374.7979	0.0	+	40	verb	phrase	1	3	nomatch	loin	-1	1	p	0.6001000000000001
375.1977	0.2	xmfn	40	verb	phrase	1	4	nomatch	loin	-1	1	p	0.6001000000000001
375.39770000000004	0.0	+	40	verb	phrase	1	5	nomatch	loin	-1	1	p	0.6001000000000001
375.7975	0.2	xlrj	40	verb	phrase	1	6	nomatch	loin	-1	1	p	0.6001000000000001
375.9974	0.0	+	40	verb	phrase	1	7	nomatch	loin	-1	1	p	0.6001000000000001
376.3972	0.2	dmkf	40	verb	phrase	1	8	nomatch	loin	-1	1	p	0.6001000000000001
376.5971	0.0	+	40	verb	phrase	1	9	nomatch	loin	-1	1	p	0.6001000000000001
376.997	0.2	chasser	40	verb	phrase	1	10	nomatch	loin	-1	1	p	0.6001000000000001
377.1969	0.0	+	40	verb	phrase	1	11	nomatch	loin	-1	1	p	0.6001000000000001
377.5967	0.0	+	40	verb	phrase	1	12	nomatch	loin	-1	1	p	0.6001000000000001
379.5958	0.0	LOIN	40	verb	phrase	1	13	nomatch	loin	-1	1	p	0.6001000000000001
380.2622	0.0	+	40	verb	phrase	1	14	nomatch	loin	-1	1	p	0.6001000000000001
380.1959	0.0	[response]	40	verb	phrase	1	15	nomatch	loin	-1	1	p	0.6001000000000001
381.9948	0.0	+	41	noun	list	2	1	match	sablier	4	1	y	0.60611
382.5445	0.2	lcw	41	noun	list	2	2	match	sablier	4	1	y	0.60611
382.74440000000004	0.0	+	41	noun	list	2	3	match	sablier	4	1	y	0.60611
383.1442	0.2	gbph	41	noun	list	2	4	match	sablier	4	1	y	0.60611
383.3442	0.0	+	41	noun	list	2	5	match	sablier	4	1	y	0.60611
383.744	0.2	px	41	noun	list	2	6	match	sablier	4	1	y	0.60611
383.94390000000004	0.0	+	41	noun	list	2	7	match	sablier	4	1	y	0.60611
384.3437	0.2	sablier	41	noun	list	2	8	match	sablier	4	1	y	0.60611
384.5436	0.0	+	41	noun	list	2	9	match	sablier	4	1	y	0.60611
384.94350000000003	0.2	tard	41	noun	list	2	10	match	sablier	4	1	y	0.60611
385.14340000000004	0.0	+	41	noun	list	2	11	match	sablier	4	1	y	0.60611
385.5432	0.0	+	41	noun	list	2	12	match	sablier	4	1	y	0.60611
387.5423	0.0	SABLIER	41	noun	list	2	13	match	sablier	4	1	y	0.60611
388.2087	0.0	+	41	noun	list	2	14	match	sablier	4	1	y	0.60611
388.14840000000004	0.0	[response]	41	noun	list	2	15	match	sablier	4	1	y	0.60611
397.9377	0.0	+	42	noun	list	1	1	match	casier	5	1	y	0.44873
398.4875	0.2	vqzt	42	noun	list	1	2	match	casier	5	1	y	0.44873
398.6874	0.0	+	42	noun	list	1	3	match	casier	5	1	y	0.44873
399.0872	0.2	pcms	42	noun	list	1	4	match	casier	5	1	y	0.44873
399.2871	0.0	+	42	noun	list	1	5	match	casier	5	1	y	0.44873
399.687	0.2	drzp	42	noun	list	1	6	match	casier	5	1	y	0.44873
399.8869	0.0	+	42	noun	list	1	7	match	casier	5	1	y	0.44873
400.2867	0.2	vhnj	42	noun	list	1	8	match	casier	5	1	y	0.44873
400.4866	0.0	+	42	noun	list	1	9	match	casier	5	1	y	0.44873
400.8865	0.2	casier	42	noun	list	1	10	match	casier	5	1	y	0.44873
401.0864	0.0	+	42	noun	list	1	11	match	casier	5	1	y	0.44873
401.4862	0.0	+	42	noun	list	1	12	match	casier	5	1	y	0.44873
403.4853	0.0	CASIER	42	noun	list	1	13	match	casier	5	1	y	0.44873
404.0017	0.0	+	42	noun	list	1	14	match	casier	5	1	y	0.44873
403.934	0.0	[response]	42	noun	list	1	15	match	casier	5	1	y	0.44873
405.8842	0.0	+	43	verb	list	2	1	nomatch	voyager	-1	1	p	0.86906
406.434	0.2	prmjx	43	verb	list	2	2	nomatch	voyager	-1	1	p	0.86906
406.63390000000004	0.0	+	43	verb	list	2	3	nomatch	voyager	-1	1	p	0.86906
407.0337	0.2	qxrj	43	verb	list	2	4	nomatch	voyager	-1	1	p	0.86906
407.2336	0.0	+	43	verb	list	2	5	nomatch	voyager	-1	1	p	0.86906
407.6501	0.2	dmf	43	verb	list	2	6	nomatch	voyager	-1	1	p	0.86906
407.8501	0.0	+	43	verb	list	2	7	nomatch	voyager	-1	1	p	0.86906
408.2499	0.2	plonger	43	verb	list	2	8	nomatch	voyager	-1	1	p	0.86906
408.44980000000004	0.0	+	43	verb	list	2	9	nomatch	voyager	-1	1	p	0.86906
408.8496	0.2	noir	43	verb	list	2	10	nomatch	voyager	-1	1	p	0.86906
409.0495	0.0	+	43	verb	list	2	11	nomatch	voyager	-1	1	p	0.86906
409.4494	0.0	+	43	verb	list	2	12	nomatch	voyager	-1	1	p	0.86906
411.4485	0.0	VOYAGER	43	verb	list	2	13	nomatch	voyager	-1	1	p	0.86906
412.38140000000004	0.0	+	43	verb	list	2	14	nomatch	voyager	-1	1	p	0.86906
412.3175	0.0	[response]	43	verb	list	2	15	nomatch	voyager	-1	1	p	0.86906
413.8474	0.0	+	44	noun	phrase	2	1	match	beau	4	1	y	0.62233
414.3972	0.2	htfd	44	noun	phrase	2	2	match	beau	4	1	y	0.62233
414.5971	0.0	+	44	noun	phrase	2	3	match	beau	4	1	y	0.62233
414.99690000000004	0.2	prkz	44	noun	phrase	2	4	match	beau	4	1	y	0.62233
415.1968	0.0	+	44	noun	phrase	2	5	match	beau	4	1	y	0.62233
415.5966	0.2	gzps	44	noun	phrase	2	6	match	beau	4	1	y	0.62233
415.7966	0.0	+	44	noun	phrase	2	7	match	beau	4	1	y	0.62233
416.19640000000004	0.2	beau	44	noun	phrase	2	8	match	beau	4	1	y	0.62233
416.3963	0.0	+	44	noun	phrase	2	9	match	beau	4	1	y	0.62233
416.7961	0.2	casier	44	noun	phrase	2	10	match	beau	4	1	y	0.62233
416.99600000000004	0.0	+	44	noun	phrase	2	11	match	beau	4	1	y	0.62233
417.396	0.0	+	44	noun	phrase	2	12	match	beau	4	1	y	0.62233
419.39500000000004	0.0	BEAU	44	noun	phrase	2	13	match	beau	4	1	y	0.62233
420.07800000000003	0.0	+	44	noun	phrase	2	14	match	beau	4	1	y	0.62233
420.01730000000003	0.0	[response]	44	noun	phrase	2	15	match	beau	4	1	y	0.62233
429.79040000000003	0.0	+	45	noun	list	3	1	match	leur	3	1	y	0.59224
430.3401	0.2	dzhr	45	noun	list	3	2	match	leur	3	1	y	0.59224
430.5401	0.0	+	45	noun	list	3	3	match	leur	3	1	y	0.59224
430.9399	0.2	xmfn	45	noun	list	3	4	match	leur	3	1	y	0.59224
431.13980000000004	0.0	+	45	noun	list	3	5	match	leur	3	1	y	0.59224
431.5396	0.2	leur	45	noun	list	3	6	match	leur	3	1	y	0.59224
431.7395	0.0	+	45	noun	list	3	7	match	leur	3	1	y	0.59224
432.1394	0.2	mieux	45	noun	list	3	8	match	leur	3	1	y	0.59224
432.33930000000004	0.0	+	45	noun	list	3	9	match	leur	3	1	y	0.59224
432.73920000000004	0.2	voilier	45	noun	list	3	10	match	leur	3	1	y	0.59224
432.939	0.0	+	45	noun	list	3	11	match	leur	3	1	y	0.59224
433.3388	0.0	+	45	noun	list	3	12	match	leur	3	1	y	0.59224
435.3379	0.0	LEUR	45	noun	list	3	13	match	leur	3	1	y	0.59224
435.9877	0.0	+	45	noun	list	3	14	match	leur	3	1	y	0.59224
435.93020000000007	0.0	[response]	45	noun	list	3	15	match	leur	3	1	y	0.59224
437.7369	0.0	+	46	verb	list	2	1	match	vert	5	1	y	0.6695
438.2867	0.2	kfb	46	verb	list	2	2	match	vert	5	1	y	0.6695
438.4866	0.0	+	46	verb	list	2	3	match	vert	5	1	y	0.6695
438.88640000000004	0.2	qnpz	46	verb	list	2	4	match	vert	5	1	y	0.6695
439.0863	0.0	+	46	verb	list	2	5	match	vert	5	1	y	0.6695
439.4861	0.2	hls	46	verb	list	2	6	match	vert	5	1	y	0.6695
439.6861	0.0	+	46	verb	list	2	7	match	vert	5	1	y	0.6695
440.08590000000004	0.2	voyager	46	verb	list	2	8	match	vert	5	1	y	0.6695
440.2858	0.0	+	46	verb	list	2	9	match	vert	5	1	y	0.6695
440.6856	0.2	vert	46	verb	list	2	10	match	vert	5	1	y	0.6695
440.88550000000004	0.0	+	46	verb	list	2	11	match	vert	5	1	y	0.6695
441.2853	0.0	+	46	verb	list	2	12	match	vert	5	1	y	0.6695
443.28450000000004	0.0	VERT	46	verb	list	2	13	match	vert	5	1	y	0.6695
444.01750000000004	0.0	+	46	verb	list	2	14	match	vert	5	1	y	0.6695
443.95400000000006	0.0	[response]	46	verb	list	2	15	match	vert	5	1	y	0.6695
445.7001	0.0	+	47	verb	phrase	1	1	match	jongler	5	1	y	0.61576
446.2498	0.2	cjfwv	47	verb	phrase	1	2	match	jongler	5	1	y	0.61576
446.4497	0.0	+	47	verb	phrase	1	3	match	jongler	5	1	y	0.61576
446.84950000000003	0.2	sbgt	47	verb	phrase	1	4	match	jongler	5	1	y	0.61576
447.0495	0.0	+	47	verb	phrase	1	5	match	jongler	5	1	y	0.61576
447.4493	0.2	xlrj	47	verb	phrase	1	6	match	jongler	5	1	y	0.61576
447.6492	0.0	+	47	verb	phrase	1	7	match	jongler	5	1	y	0.61576
448.04900000000004	0.2	pxhm	47	verb	phrase	1	8	match	jongler	5	1	y	0.61576
448.2489	0.0	+	47	verb	phrase	1	9	match	jongler	5	1	y	0.61576
448.6488	0.2	jongler	47	verb	phrase	1	10	match	jongler	5	1	y	0.61576
448.8487	0.0	+	47	verb	phrase	1	11	match	jongler	5	1	y	0.61576
449.24850000000004	0.0	+	47	verb	phrase	1	12	match	jongler	5	1	y	0.61576
451.24760000000003	0.0	JONGLER	47	verb	phrase	1	13	match	jongler	5	1	y	0.61576
451.9306	0.0	+	47	verb	phrase	1	14	match	jongler	5	1	y	0.61576
451.8634	0.0	[response]	47	verb	phrase	1	15	match	jongler	5	1	y	0.61576
461.6431	0.0	+	48	noun	list	1	1	match	ainsi	5	1	y	0.6091600000000001
462.19280000000003	0.2	bvdlc	48	noun	list	1	2	match	ainsi	5	1	y	0.6091600000000001
462.3927	0.0	+	48	noun	list	1	3	match	ainsi	5	1	y	0.6091600000000001
462.7925	0.2	fqnb	48	noun	list	1	4	match	ainsi	5	1	y	0.6091600000000001
462.9925	0.0	+	48	noun	list	1	5	match	ainsi	5	1	y	0.6091600000000001
463.39230000000003	0.2	px	48	noun	list	1	6	match	ainsi	5	1	y	0.6091600000000001
463.5922	0.0	+	48	noun	list	1	7	match	ainsi	5	1	y	0.6091600000000001
463.992	0.2	phkctnl	48	noun	list	1	8	match	ainsi	5	1	y	0.6091600000000001
464.1919	0.0	+	48	noun	list	1	9	match	ainsi	5	1	y	0.6091600000000001
464.5917	0.2	ainsi	48	noun	list	1	10	match	ainsi	5	1	y	0.6091600000000001
464.79170000000005	0.0	+	48	noun	list	1	11	match	ainsi	5	1	y	0.6091600000000001
465.19149999999996	0.0	+	48	noun	list	1	12	match	ainsi	5	1	y	0.6091600000000001
467.19059999999996	0.0	AINSI	48	noun	list	1	13	match	ainsi	5	1	y	0.6091600000000001
467.857	0.0	+	48	noun	list	1	14	match	ainsi	5	1	y	0.6091600000000001
467.79980000000006	0.0	[response]	48	noun	list	1	15	match	ainsi	5	1	y	0.6091600000000001
469.58959999999996	0.0	+	49	verb	list	2	1	nomatch	vert	-1	1	p	0.88973
470.1393	0.2	prqstwg	49	verb	list	2	2	nomatch	vert	-1	1	p	0.88973
470.33920000000006	0.0	+	49	verb	list	2	3	nomatch	vert	-1	1	p	0.88973
470.739	0.2	qxvn	49	verb	list	2	4	nomatch	vert	-1	1	p	0.88973
470.939	0.0	+	49	verb	list	2	5	nomatch	vert	-1	1	p	0.88973
471.33880000000005	0.2	gzps	49	verb	list	2	6	nomatch	vert	-1	1	p	0.88973
471.5387	0.0	+	49	verb	list	2	7	nomatch	vert	-1	1	p	0.88973
471.93850000000003	0.2	parader	49	verb	list	2	8	nomatch	vert	-1	1	p	0.88973
472.1384	0.0	+	49	verb	list	2	9	nomatch	vert	-1	1	p	0.88973
472.5383	0.2	rouge	49	verb	list	2	10	nomatch	vert	-1	1	p	0.88973
472.73820000000006	0.0	+	49	verb	list	2	11	nomatch	vert	-1	1	p	0.88973
473.138	0.0	+	49	verb	list	2	12	nomatch	vert	-1	1	p	0.88973
475.1371	0.0	VERT	49	verb	list	2	13	nomatch	vert	-1	1	p	0.88973
476.0867	0.0	+	49	verb	list	2	14	nomatch	vert	-1	1	p	0.88973
476.02680000000004	0.0	[response]	49	verb	list	2	15	nomatch	vert	-1	1	p	0.88973
477.5361	0.0	+	50	noun	list	1	1	match	rocher	5	1	y	0.55356
478.0858	0.2	xkdh	50	noun	list	1	2	match	rocher	5	1	y	0.55356
478.28569999999996	0.0	+	50	noun	list	1	3	match	rocher	5	1	y	0.55356
478.6855	0.2	fqnb	50	noun	list	1	4	match	rocher	5	1	y	0.55356
478.88550000000004	0.0	+	50	noun	list	1	5	match	rocher	5	1	y	0.55356
479.28530000000006	0.2	xlrj	50	noun	list	1	6	match	rocher	5	1	y	0.55356
479.4852	0.0	+	50	noun	list	1	7	match	rocher	5	1	y	0.55356
479.88500000000005	0.2	vhnj	50	noun	list	1	8	match	rocher	5	1	y	0.55356
480.0849	0.0	+	50	noun	list	1	9	match	rocher	5	1	y	0.55356
480.4848	0.2	rocher	50	noun	list	1	10	match	rocher	5	1	y	0.55356
480.68469999999996	0.0	+	50	noun	list	1	11	match	rocher	5	1	y	0.55356
481.0845	0.0	+	50	noun	list	1	12	match	rocher	5	1	y	0.55356
483.08380000000005	0.0	ROCHER	50	noun	list	1	13	match	rocher	5	1	y	0.55356
483.7	0.0	+	50	noun	list	1	14	match	rocher	5	1	y	0.55356
483.6374	0.0	[response]	50	noun	list	1	15	match	rocher	5	1	y	0.55356
485.49920000000003	0.0	+	51	verb	list	1	1	match	beau	5	1	y	0.51015
486.04900000000004	0.2	nvhgc	51	verb	list	1	2	match	beau	5	1	y	0.51015
486.2489	0.0	+	51	verb	list	1	3	match	beau	5	1	y	0.51015
486.6487	0.2	mkg	51	verb	list	1	4	match	beau	5	1	y	0.51015
486.8486	0.0	+	51	verb	list	1	5	match	beau	5	1	y	0.51015
487.2485	0.2	drzp	51	verb	list	1	6	match	beau	5	1	y	0.51015
487.44840000000005	0.0	+	51	verb	list	1	7	match	beau	5	1	y	0.51015
487.84819999999996	0.2	khjtzlp	51	verb	list	1	8	match	beau	5	1	y	0.51015
488.04810000000003	0.0	+	51	verb	list	1	9	match	beau	5	1	y	0.51015
488.44790000000006	0.2	beau	51	verb	list	1	10	match	beau	5	1	y	0.51015
488.6478	0.0	+	51	verb	list	1	11	match	beau	5	1	y	0.51015
489.0477	0.0	+	51	verb	list	1	12	match	beau	5	1	y	0.51015
491.0468	0.0	BEAU	51	verb	list	1	13	match	beau	5	1	y	0.51015
491.61320000000006	0.0	+	51	verb	list	1	14	match	beau	5	1	y	0.51015
491.5569	0.0	[response]	51	verb	list	1	15	match	beau	5	1	y	0.51015
493.44570000000004	0.0	+	52	verb	list	1	1	nomatch	bleu	-1	1	p	0.8571600000000001
493.99550000000005	0.2	zbq	52	verb	list	1	2	nomatch	bleu	-1	1	p	0.8571600000000001
494.1954	0.0	+	52	verb	list	1	3	nomatch	bleu	-1	1	p	0.8571600000000001
494.59520000000003	0.2	dzlw	52	verb	list	1	4	nomatch	bleu	-1	1	p	0.8571600000000001
494.7951	0.0	+	52	verb	list	1	5	nomatch	bleu	-1	1	p	0.8571600000000001
495.195	0.2	gzps	52	verb	list	1	6	nomatch	bleu	-1	1	p	0.8571600000000001
495.39490000000006	0.0	+	52	verb	list	1	7	nomatch	bleu	-1	1	p	0.8571600000000001
495.7947	0.2	zqdpfvt	52	verb	list	1	8	nomatch	bleu	-1	1	p	0.8571600000000001
495.99460000000005	0.0	+	52	verb	list	1	9	nomatch	bleu	-1	1	p	0.8571600000000001
496.39439999999996	0.2	rouge	52	verb	list	1	10	nomatch	bleu	-1	1	p	0.8571600000000001
496.59430000000003	0.0	+	52	verb	list	1	11	nomatch	bleu	-1	1	p	0.8571600000000001
496.99420000000003	0.0	+	52	verb	list	1	12	nomatch	bleu	-1	1	p	0.8571600000000001
498.99330000000003	0.0	BLEU	52	verb	list	1	13	nomatch	bleu	-1	1	p	0.8571600000000001
499.9096	0.0	+	52	verb	list	1	14	nomatch	bleu	-1	1	p	0.8571600000000001
499.8504	0.0	[response]	52	verb	list	1	15	nomatch	bleu	-1	1	p	0.8571600000000001
501.39220000000006	0.0	+	53	noun	phrase	2	1	nomatch	ainsi	-1	1	p	0.57016
501.94200000000006	0.2	hnl	53	noun	phrase	2	2	nomatch	ainsi	-1	1	p	0.57016
502.1419	0.0	+	53	noun	phrase	2	3	nomatch	ainsi	-1	1	p	0.57016
502.54170000000005	0.2	gbph	53	noun	phrase	2	4	nomatch	ainsi	-1	1	p	0.57016
502.7416	0.0	+	53	noun	phrase	2	5	nomatch	ainsi	-1	1	p	0.57016
503.1415	0.2	hls	53	noun	phrase	2	6	nomatch	ainsi	-1	1	p	0.57016
503.34139999999996	0.0	+	53	noun	phrase	2	7	nomatch	ainsi	-1	1	p	0.57016
503.7412	0.2	petit	53	noun	phrase	2	8	nomatch	ainsi	-1	1	p	0.57016
503.94110000000006	0.0	+	53	noun	phrase	2	9	nomatch	ainsi	-1	1	p	0.57016
504.3409	0.2	sablier	53	noun	phrase	2	10	nomatch	ainsi	-1	1	p	0.57016
504.5409	0.0	+	53	noun	phrase	2	11	nomatch	ainsi	-1	1	p	0.57016
504.94070000000005	0.0	+	53	noun	phrase	2	12	nomatch	ainsi	-1	1	p	0.57016
506.93980000000005	0.0	AINSI	53	noun	phrase	2	13	nomatch	ainsi	-1	1	p	0.57016
507.5728	0.0	+	53	noun	phrase	2	14	nomatch	ainsi	-1	1	p	0.57016
507.5099000000001	0.0	[response]	53	noun	phrase	2	15	nomatch	ainsi	-1	1	p	0.57016
509.33869999999996	0.0	+	54	verb	phrase	2	1	nomatch	moins	-1	1	p	1.0182
509.88849999999996	0.2	mkx	54	verb	phrase	2	2	nomatch	moins	-1	1	p	1.0182
510.08840000000004	0.0	+	54	verb	phrase	2	3	nomatch	moins	-1	1	p	1.0182
510.48820000000006	0.2	sbgt	54	verb	phrase	2	4	nomatch	moins	-1	1	p	1.0182
510.6881	0.0	+	54	verb	phrase	2	5	nomatch	moins	-1	1	p	1.0182
511.088	0.2	drzp	54	verb	phrase	2	6	nomatch	moins	-1	1	p	1.0182
511.2879	0.0	+	54	verb	phrase	2	7	nomatch	moins	-1	1	p	1.0182
511.6877	0.2	trop	54	verb	phrase	2	8	nomatch	moins	-1	1	p	1.0182
511.88759999999996	0.0	+	54	verb	phrase	2	9	nomatch	moins	-1	1	p	1.0182
512.2873999999999	0.2	jongler	54	verb	phrase	2	10	nomatch	moins	-1	1	p	1.0182
512.4874	0.0	+	54	verb	phrase	2	11	nomatch	moins	-1	1	p	1.0182
512.8872	0.0	+	54	verb	phrase	2	12	nomatch	moins	-1	1	p	1.0182
514.8863	0.0	MOINS	54	verb	phrase	2	13	nomatch	moins	-1	1	p	1.0182
515.9690999999999	0.0	+	54	verb	phrase	2	14	nomatch	moins	-1	1	p	1.0182
515.9045000000001	0.0	[response]	54	verb	phrase	2	15	nomatch	moins	-1	1	p	1.0182
517.2851999999999	0.0	+	55	verb	list	1	1	match	danser	5	1	y	0.43323
517.8349999999999	0.2	wch	55	verb	list	1	2	match	danser	5	1	y	0.43323
518.0349	0.0	+	55	verb	list	1	3	match	danser	5	1	y	0.43323
518.4346999999999	0.2	prkz	55	verb	list	1	4	match	danser	5	1	y	0.43323
518.6347	0.0	+	55	verb	list	1	5	match	danser	5	1	y	0.43323
519.0345	0.2	xlrj	55	verb	list	1	6	match	danser	5	1	y	0.43323
519.2343999999999	0.0	+	55	verb	list	1	7	match	danser	5	1	y	0.43323
519.6342	0.2	zjxkn	55	verb	list	1	8	match	danser	5	1	y	0.43323
519.8340999999999	0.0	+	55	verb	list	1	9	match	danser	5	1	y	0.43323
520.2339	0.2	danser	55	verb	list	1	10	match	danser	5	1	y	0.43323
520.4339	0.0	+	55	verb	list	1	11	match	danser	5	1	y	0.43323
520.8336999999999	0.0	+	55	verb	list	1	12	match	danser	5	1	y	0.43323
522.8494999999999	0.0	DANSER	55	verb	list	1	13	match	danser	5	1	y	0.43323
523.3492	0.0	+	55	verb	list	1	14	match	danser	5	1	y	0.43323
523.2827	0.0	[response]	55	verb	list	1	15	match	danser	5	1	y	0.43323
525.2484	0.0	+	56	verb	list	4	1	nomatch	pour	-1	1	p	0.65381
525.7982	0.2	xnzdjf	56	verb	list	4	2	nomatch	pour	-1	1	p	0.65381
525.9980999999999	0.0	+	56	verb	list	4	3	nomatch	pour	-1	1	p	0.65381
526.3978999999999	0.2	avec	56	verb	list	4	4	nomatch	pour	-1	1	p	0.65381
526.5978	0.0	+	56	verb	list	4	5	nomatch	pour	-1	1	p	0.65381
526.9975999999999	0.2	peut	56	verb	list	4	6	nomatch	pour	-1	1	p	0.65381
527.1975	0.0	+	56	verb	list	4	7	nomatch	pour	-1	1	p	0.65381
527.5974	0.2	beau	56	verb	list	4	8	nomatch	pour	-1	1	p	0.65381
527.7973	0.0	+	56	verb	list	4	9	nomatch	pour	-1	1	p	0.65381
528.1971	0.2	voyager	56	verb	list	4	10	nomatch	pour	-1	1	p	0.65381
528.3969999999999	0.0	+	56	verb	list	4	11	nomatch	pour	-1	1	p	0.65381
528.7968	0.0	+	56	verb	list	4	12	nomatch	pour	-1	1	p	0.65381
530.7959999999999	0.0	POUR	56	verb	list	4	13	nomatch	pour	-1	1	p	0.65381
531.5123	0.0	+	56	verb	list	4	14	nomatch	pour	-1	1	p	0.65381
531.4498	0.0	[response]	56	verb	list	4	15	nomatch	pour	-1	1	p	0.65381
541.1913999999999	0.0	+	57	verb	list	3	1	match	parader	5	1	y	0.47772
541.7411999999999	0.2	nfdzbcr	57	verb	list	3	2	match	parader	5	1	y	0.47772
541.9411	0.0	+	57	verb	list	3	3	match	parader	5	1	y	0.47772
542.3408999999999	0.2	nrlk	57	verb	list	3	4	match	parader	5	1	y	0.47772
542.5408	0.0	+	57	verb	list	3	5	match	parader	5	1	y	0.47772
542.9405999999999	0.2	va	57	verb	list	3	6	match	parader	5	1	y	0.47772
543.1405	0.0	+	57	verb	list	3	7	match	parader	5	1	y	0.47772
543.5404	0.2	nouveau	57	verb	list	3	8	match	parader	5	1	y	0.47772
543.7407	0.0	+	57	verb	list	3	9	match	parader	5	1	y	0.47772
544.1401	0.2	parader	57	verb	list	3	10	match	parader	5	1	y	0.47772
544.3399999999999	0.0	+	57	verb	list	3	11	match	parader	5	1	y	0.47772
544.7398	0.0	+	57	verb	list	3	12	match	parader	5	1	y	0.47772
546.7389	0.0	PARADER	57	verb	list	3	13	match	parader	5	1	y	0.47772
547.2720999999999	0.0	+	57	verb	list	3	14	match	parader	5	1	y	0.47772
547.2167	0.0	[response]	57	verb	list	3	15	match	parader	5	1	y	0.47772
549.1379	0.0	+	58	noun	phrase	2	1	nomatch	doit	-1	1	p	0.65191
549.6877	0.2	hfzrscw	58	noun	phrase	2	2	nomatch	doit	-1	1	p	0.65191
549.8875999999999	0.0	+	58	noun	phrase	2	3	nomatch	doit	-1	1	p	0.65191
550.2873999999999	0.2	gbph	58	noun	phrase	2	4	nomatch	doit	-1	1	p	0.65191
550.4873	0.0	+	58	noun	phrase	2	5	nomatch	doit	-1	1	p	0.65191
550.8870999999999	0.2	hls	58	noun	phrase	2	6	nomatch	doit	-1	1	p	0.65191
551.087	0.0	+	58	noun	phrase	2	7	nomatch	doit	-1	1	p	0.65191
551.4869	0.2	vieux	58	noun	phrase	2	8	nomatch	doit	-1	1	p	0.65191
551.6868	0.0	+	58	noun	phrase	2	9	nomatch	doit	-1	1	p	0.65191
552.0866	0.2	panier	58	noun	phrase	2	10	nomatch	doit	-1	1	p	0.65191
552.2864999999999	0.0	+	58	noun	phrase	2	11	nomatch	doit	-1	1	p	0.65191
552.6863	0.0	+	58	noun	phrase	2	12	nomatch	doit	-1	1	p	0.65191
554.6854999999999	0.0	DOIT	58	noun	phrase	2	13	nomatch	doit	-1	1	p	0.65191
555.4018	0.0	+	58	noun	phrase	2	14	nomatch	doit	-1	1	p	0.65191
555.3374000000001	0.0	[response]	58	noun	phrase	2	15	nomatch	doit	-1	1	p	0.65191
573.0939999999999	0.0	+	59	verb	list	4	1	nomatch	tard	-1	1	p	0.58565
573.6437999999999	0.2	gzjlpfc	59	verb	list	4	2	nomatch	tard	-1	1	p	0.58565
573.8437	0.0	+	59	verb	list	4	3	nomatch	tard	-1	1	p	0.58565
574.2434999999999	0.2	adam	59	verb	list	4	4	nomatch	tard	-1	1	p	0.58565
574.4434	0.0	+	59	verb	list	4	5	nomatch	tard	-1	1	p	0.58565
574.8431999999999	0.2	leur	59	verb	list	4	6	nomatch	tard	-1	1	p	0.58565
575.0432	0.0	+	59	verb	list	4	7	nomatch	tard	-1	1	p	0.58565
575.443	0.2	danser	59	verb	list	4	8	nomatch	tard	-1	1	p	0.58565
575.6428999999999	0.0	+	59	verb	list	4	9	nomatch	tard	-1	1	p	0.58565
576.0427	0.2	noir	59	verb	list	4	10	nomatch	tard	-1	1	p	0.58565
576.2425999999999	0.0	+	59	verb	list	4	11	nomatch	tard	-1	1	p	0.58565
576.6424999999999	0.0	+	59	verb	list	4	12	nomatch	tard	-1	1	p	0.58565
578.6415999999999	0.0	TARD	59	verb	list	4	13	nomatch	tard	-1	1	p	0.58565
579.2913	0.0	+	59	verb	list	4	14	nomatch	tard	-1	1	p	0.58565
579.2271999999999	0.0	[response]	59	verb	list	4	15	nomatch	tard	-1	1	p	0.58565
581.0405	0.0	+	60	noun	list	3	1	nomatch	cendrier	-1	1	p	0.84596
581.5903	0.2	lqbrhxz	60	noun	list	3	2	nomatch	cendrier	-1	1	p	0.84596
581.7901999999999	0.0	+	60	noun	list	3	3	nomatch	cendrier	-1	1	p	0.84596
582.1899999999999	0.2	gbph	60	noun	list	3	4	nomatch	cendrier	-1	1	p	0.84596
582.3899	0.0	+	60	noun	list	3	5	nomatch	cendrier	-1	1	p	0.84596
582.7896999999999	0.2	doit	60	noun	list	3	6	nomatch	cendrier	-1	1	p	0.84596
582.9897	0.0	+	60	noun	list	3	7	nomatch	cendrier	-1	1	p	0.84596
583.3895	0.2	voilier	60	noun	list	3	8	nomatch	cendrier	-1	1	p	0.84596
583.5894	0.0	+	60	noun	list	3	9	nomatch	cendrier	-1	1	p	0.84596
583.9892	0.2	loin	60	noun	list	3	10	nomatch	cendrier	-1	1	p	0.84596
584.1890999999999	0.0	+	60	noun	list	3	11	nomatch	cendrier	-1	1	p	0.84596
584.5889999999999	0.0	+	60	noun	list	3	12	nomatch	cendrier	-1	1	p	0.84596
586.5880999999999	0.0	CENDRIER	60	noun	list	3	13	nomatch	cendrier	-1	1	p	0.84596
587.4876999999999	0.0	+	60	noun	list	3	14	nomatch	cendrier	-1	1	p	0.84596
587.4341	0.0	[response]	60	noun	list	3	15	nomatch	cendrier	-1	1	p	0.84596
588.987	0.0	+	61	verb	list	1	1	nomatch	leur	-1	1	p	0.6194
589.5368	0.2	lkm	61	verb	list	1	2	nomatch	leur	-1	1	p	0.6194
589.7366999999999	0.0	+	61	verb	list	1	3	nomatch	leur	-1	1	p	0.6194
590.1365	0.2	prkz	61	verb	list	1	4	nomatch	leur	-1	1	p	0.6194
590.3363999999999	0.0	+	61	verb	list	1	5	nomatch	leur	-1	1	p	0.6194
590.7362999999999	0.2	xlrj	61	verb	list	1	6	nomatch	leur	-1	1	p	0.6194
590.9362	0.0	+	61	verb	list	1	7	nomatch	leur	-1	1	p	0.6194
591.336	0.2	zqdpfvt	61	verb	list	1	8	nomatch	leur	-1	1	p	0.6194
591.5359	0.0	+	61	verb	list	1	9	nomatch	leur	-1	1	p	0.6194
591.9357	0.2	vieux	61	verb	list	1	10	nomatch	leur	-1	1	p	0.6194
592.1356	0.0	+	61	verb	list	1	11	nomatch	leur	-1	1	p	0.6194
592.5355	0.0	+	61	verb	list	1	12	nomatch	leur	-1	1	p	0.6194
594.5346	0.0	LEUR	61	verb	list	1	13	nomatch	leur	-1	1	p	0.6194
595.2176	0.0	+	61	verb	list	1	14	nomatch	leur	-1	1	p	0.6194
595.154	0.0	[response]	61	verb	list	1	15	nomatch	leur	-1	1	p	0.6194
596.9335	0.0	+	62	noun	phrase	1	1	nomatch	voilier	-1	1	p	0.55131
597.5	0.2	xlcmt	62	noun	phrase	1	2	nomatch	voilier	-1	1	p	0.55131
597.6999	0.0	+	62	noun	phrase	1	3	nomatch	voilier	-1	1	p	0.55131
598.0997	0.2	wksm	62	noun	phrase	1	4	nomatch	voilier	-1	1	p	0.55131
598.2995999999999	0.0	+	62	noun	phrase	1	5	nomatch	voilier	-1	1	p	0.55131
598.6994	0.2	dmf	62	noun	phrase	1	6	nomatch	voilier	-1	1	p	0.55131
598.8994	0.0	+	62	noun	phrase	1	7	nomatch	voilier	-1	1	p	0.55131
599.2991999999999	0.2	dqcvwpn	62	noun	phrase	1	8	nomatch	voilier	-1	1	p	0.55131
599.4991	0.0	+	62	noun	phrase	1	9	nomatch	voilier	-1	1	p	0.55131
599.8988999999999	0.2	grand	62	noun	phrase	1	10	nomatch	voilier	-1	1	p	0.55131
600.0988	0.0	+	62	noun	phrase	1	11	nomatch	voilier	-1	1	p	0.55131
600.4986	0.0	+	62	noun	phrase	1	12	nomatch	voilier	-1	1	p	0.55131
602.4977	0.0	VOILIER	62	noun	phrase	1	13	nomatch	voilier	-1	1	p	0.55131
603.1142	0.0	+	62	noun	phrase	1	14	nomatch	voilier	-1	1	p	0.55131
603.0491000000001	0.0	[response]	62	noun	phrase	1	15	nomatch	voilier	-1	1	p	0.55131
612.8932	0.0	+	63	noun	phrase	1	1	match	grenier	5	1	y	0.53186
613.4429	0.2	snt	63	noun	phrase	1	2	match	grenier	5	1	y	0.53186
613.6428999999999	0.0	+	63	noun	phrase	1	3	match	grenier	5	1	y	0.53186
614.0427	0.2	pcms	63	noun	phrase	1	4	match	grenier	5	1	y	0.53186
614.2425999999999	0.0	+	63	noun	phrase	1	5	match	grenier	5	1	y	0.53186
614.6424	0.2	hls	63	noun	phrase	1	6	match	grenier	5	1	y	0.53186
614.8422999999999	0.0	+	63	noun	phrase	1	7	match	grenier	5	1	y	0.53186
615.2420999999999	0.2	gbqjtnl	63	noun	phrase	1	8	match	grenier	5	1	y	0.53186
615.4421	0.0	+	63	noun	phrase	1	9	match	grenier	5	1	y	0.53186
615.8419	0.2	grenier	63	noun	phrase	1	10	match	grenier	5	1	y	0.53186
616.0418	0.0	+	63	noun	phrase	1	11	match	grenier	5	1	y	0.53186
616.4416	0.0	+	63	noun	phrase	1	12	match	grenier	5	1	y	0.53186
618.4407	0.0	GRENIER	63	noun	phrase	1	13	match	grenier	5	1	y	0.53186
619.0237999999999	0.0	+	63	noun	phrase	1	14	match	grenier	5	1	y	0.53186
618.9725999999999	0.0	[response]	63	noun	phrase	1	15	match	grenier	5	1	y	0.53186
620.8397	0.0	+	64	noun	phrase	3	1	match	panier	4	1	y	0.62823
621.3893999999999	0.2	nflzr	64	noun	phrase	3	2	match	panier	4	1	y	0.62823
621.5894	0.0	+	64	noun	phrase	3	3	match	panier	4	1	y	0.62823
621.9892	0.2	nrlk	64	noun	phrase	3	4	match	panier	4	1	y	0.62823
622.1890999999999	0.0	+	64	noun	phrase	3	5	match	panier	4	1	y	0.62823
622.5889	0.2	son	64	noun	phrase	3	6	match	panier	4	1	y	0.62823
622.7887999999999	0.0	+	64	noun	phrase	3	7	match	panier	4	1	y	0.62823
623.1886999999999	0.2	panier	64	noun	phrase	3	8	match	panier	4	1	y	0.62823
623.3886	0.0	+	64	noun	phrase	3	9	match	panier	4	1	y	0.62823
623.7883999999999	0.2	vert	64	noun	phrase	3	10	match	panier	4	1	y	0.62823
623.9883	0.0	+	64	noun	phrase	3	11	match	panier	4	1	y	0.62823
624.3881	0.0	+	64	noun	phrase	3	12	match	panier	4	1	y	0.62823
626.3872	0.0	PANIER	64	noun	phrase	3	13	match	panier	4	1	y	0.62823
627.0703	0.0	+	64	noun	phrase	3	14	match	panier	4	1	y	0.62823
627.0155000000001	0.0	[response]	64	noun	phrase	3	15	match	panier	4	1	y	0.62823
628.7862	0.0	+	65	verb	list	1	1	match	jongler	5	1	y	0.50409
629.3358999999999	0.2	swpnb	65	verb	list	1	2	match	jongler	5	1	y	0.50409
629.5359	0.0	+	65	verb	list	1	3	match	jongler	5	1	y	0.50409
629.9357	0.2	qxrj	65	verb	list	1	4	match	jongler	5	1	y	0.50409
630.1356	0.0	+	65	verb	list	1	5	match	jongler	5	1	y	0.50409
630.5354	0.2	dmf	65	verb	list	1	6	match	jongler	5	1	y	0.50409
630.7352999999999	0.0	+	65	verb	list	1	7	match	jongler	5	1	y	0.50409
631.1351999999999	0.2	jpqb	65	verb	list	1	8	match	jongler	5	1	y	0.50409
631.3351	0.0	+	65	verb	list	1	9	match	jongler	5	1	y	0.50409
631.7352999999999	0.2	jongler	65	verb	list	1	10	match	jongler	5	1	y	0.50409
631.9348	0.0	+	65	verb	list	1	11	match	jongler	5	1	y	0.50409
632.3345999999999	0.0	+	65	verb	list	1	12	match	jongler	5	1	y	0.50409
634.3338	0.0	JONGLER	65	verb	list	1	13	match	jongler	5	1	y	0.50409
634.9001999999999	0.0	+	65	verb	list	1	14	match	jongler	5	1	y	0.50409
634.8379	0.0	[response]	65	verb	list	1	15	match	jongler	5	1	y	0.50409
636.7493999999999	0.0	+	66	verb	phrase	3	1	nomatch	sous	-1	1	p	0.53082
637.2991	0.2	gdkvt	66	verb	phrase	3	2	nomatch	sous	-1	1	p	0.53082
637.4989999999999	0.0	+	66	verb	phrase	3	3	nomatch	sous	-1	1	p	0.53082
637.8987999999999	0.2	bml	66	verb	phrase	3	4	nomatch	sous	-1	1	p	0.53082
638.0988	0.0	+	66	verb	phrase	3	5	nomatch	sous	-1	1	p	0.53082
638.4986	0.2	doit	66	verb	phrase	3	6	nomatch	sous	-1	1	p	0.53082
638.6985	0.0	+	66	verb	phrase	3	7	nomatch	sous	-1	1	p	0.53082
639.0983	0.2	danser	66	verb	phrase	3	8	nomatch	sous	-1	1	p	0.53082
639.2982	0.0	+	66	verb	phrase	3	9	nomatch	sous	-1	1	p	0.53082
639.6981	0.2	ainsi	66	verb	phrase	3	10	nomatch	sous	-1	1	p	0.53082
639.8979999999999	0.0	+	66	verb	phrase	3	11	nomatch	sous	-1	1	p	0.53082
640.2977999999999	0.0	+	66	verb	phrase	3	12	nomatch	sous	-1	1	p	0.53082
642.2968999999999	0.0	SOUS	66	verb	phrase	3	13	nomatch	sous	-1	1	p	0.53082
642.88	0.0	+	66	verb	phrase	3	14	nomatch	sous	-1	1	p	0.53082
642.8277	0.0	[response]	66	verb	phrase	3	15	nomatch	sous	-1	1	p	0.53082
652.6922999999999	0.0	+	67	verb	list	1	1	nomatch	moins	-1	1	p	0.63669
653.2420999999999	0.2	nrscfd	67	verb	list	1	2	nomatch	moins	-1	1	p	0.63669
653.442	0.0	+	67	verb	list	1	3	nomatch	moins	-1	1	p	0.63669
653.8417999999999	0.2	qnpz	67	verb	list	1	4	nomatch	moins	-1	1	p	0.63669
654.0418	0.0	+	67	verb	list	1	5	nomatch	moins	-1	1	p	0.63669
654.4416	0.2	dmf	67	verb	list	1	6	nomatch	moins	-1	1	p	0.63669
654.6415	0.0	+	67	verb	list	1	7	nomatch	moins	-1	1	p	0.63669
655.0413	0.2	cpsqfjd	67	verb	list	1	8	nomatch	moins	-1	1	p	0.63669
655.2411999999999	0.0	+	67	verb	list	1	9	nomatch	moins	-1	1	p	0.63669
655.641	0.2	noir	67	verb	list	1	10	nomatch	moins	-1	1	p	0.63669
655.841	0.0	+	67	verb	list	1	11	nomatch	moins	-1	1	p	0.63669
656.2407999999999	0.0	+	67	verb	list	1	12	nomatch	moins	-1	1	p	0.63669
658.2406	0.0	MOINS	67	verb	list	1	13	nomatch	moins	-1	1	p	0.63669
658.9395999999999	0.0	+	67	verb	list	1	14	nomatch	moins	-1	1	p	0.63669
658.8773	0.0	[response]	67	verb	list	1	15	nomatch	moins	-1	1	p	0.63669
660.6388	0.0	+	68	verb	phrase	4	1	nomatch	peut	-1	1	p	0.59298
661.1886	0.2	jphsm	68	verb	phrase	4	2	nomatch	peut	-1	1	p	0.59298
661.3884999999999	0.0	+	68	verb	phrase	4	3	nomatch	peut	-1	1	p	0.59298
661.7882999999999	0.2	jade	68	verb	phrase	4	4	nomatch	peut	-1	1	p	0.59298
661.9882	0.0	+	68	verb	phrase	4	5	nomatch	peut	-1	1	p	0.59298
662.3881	0.2	doit	68	verb	phrase	4	6	nomatch	peut	-1	1	p	0.59298
662.588	0.0	+	68	verb	phrase	4	7	nomatch	peut	-1	1	p	0.59298
662.9878	0.2	plus	68	verb	phrase	4	8	nomatch	peut	-1	1	p	0.59298
663.1877	0.0	+	68	verb	phrase	4	9	nomatch	peut	-1	1	p	0.59298
663.5875	0.2	patiner	68	verb	phrase	4	10	nomatch	peut	-1	1	p	0.59298
663.7874999999999	0.0	+	68	verb	phrase	4	11	nomatch	peut	-1	1	p	0.59298
664.1872999999999	0.0	+	68	verb	phrase	4	12	nomatch	peut	-1	1	p	0.59298
666.1863999999999	0.0	PEUT	68	verb	phrase	4	13	nomatch	peut	-1	1	p	0.59298
666.8361	0.0	+	68	verb	phrase	4	14	nomatch	peut	-1	1	p	0.59298
666.7794000000001	0.0	[response]	68	verb	phrase	4	15	nomatch	peut	-1	1	p	0.59298
668.5853	0.0	+	69	noun	phrase	3	1	nomatch	leur	-1	1	p	0.66573
669.1351	0.2	pfqb	69	noun	phrase	3	2	nomatch	leur	-1	1	p	0.66573
669.3349999999999	0.0	+	69	noun	phrase	3	3	nomatch	leur	-1	1	p	0.66573
669.7348	0.2	mkg	69	noun	phrase	3	4	nomatch	leur	-1	1	p	0.66573
669.9346999999999	0.0	+	69	noun	phrase	3	5	nomatch	leur	-1	1	p	0.66573
670.3345999999999	0.2	mon	69	noun	phrase	3	6	nomatch	leur	-1	1	p	0.66573
670.5345	0.0	+	69	noun	phrase	3	7	nomatch	leur	-1	1	p	0.66573
670.9343	0.2	grand	69	noun	phrase	3	8	nomatch	leur	-1	1	p	0.66573
671.1342	0.0	+	69	noun	phrase	3	9	nomatch	leur	-1	1	p	0.66573
671.5341	0.2	grenier	69	noun	phrase	3	10	nomatch	leur	-1	1	p	0.66573
671.7339999999999	0.0	+	69	noun	phrase	3	11	nomatch	leur	-1	1	p	0.66573
672.1338	0.0	+	69	noun	phrase	3	12	nomatch	leur	-1	1	p	0.66573
674.1496	0.0	LEUR	69	noun	phrase	3	13	nomatch	leur	-1	1	p	0.66573
674.8825999999999	0.0	+	69	noun	phrase	3	14	nomatch	leur	-1	1	p	0.66573
674.8153	0.0	[response]	69	noun	phrase	3	15	nomatch	leur	-1	1	p	0.66573
676.5485	0.0	+	70	verb	phrase	2	1	match	galoper	5	1	y	0.85158
677.0983	0.2	flwnjzt	70	verb	phrase	2	2	match	galoper	5	1	y	0.85158
677.2982	0.0	+	70	verb	phrase	2	3	match	galoper	5	1	y	0.85158
677.698	0.2	qxrj	70	verb	phrase	2	4	match	galoper	5	1	y	0.85158
677.8978999999999	0.0	+	70	verb	phrase	2	5	match	galoper	5	1	y	0.85158
678.2977	0.2	px	70	verb	phrase	2	6	match	galoper	5	1	y	0.85158
678.4977	0.0	+	70	verb	phrase	2	7	match	galoper	5	1	y	0.85158
678.8974999999999	0.2	moins	70	verb	phrase	2	8	match	galoper	5	1	y	0.85158
679.0974	0.0	+	70	verb	phrase	2	9	match	galoper	5	1	y	0.85158
679.4971999999999	0.2	galoper	70	verb	phrase	2	10	match	galoper	5	1	y	0.85158
679.6971	0.0	+	70	verb	phrase	2	11	match	galoper	5	1	y	0.85158
680.0969	0.0	+	70	verb	phrase	2	12	match	galoper	5	1	y	0.85158
682.0961	0.0	GALOPER	70	verb	phrase	2	13	match	galoper	5	1	y	0.85158
683.0123	0.0	+	70	verb	phrase	2	14	match	galoper	5	1	y	0.85158
682.9476	0.0	[response]	70	verb	phrase	2	15	match	galoper	5	1	y	0.85158
684.495	0.0	+	71	noun	phrase	1	1	nomatch	doit	-1	1	p	1.1845
685.0448	0.2	knbmgrs	71	noun	phrase	1	2	nomatch	doit	-1	1	p	1.1845
685.2447	0.0	+	71	noun	phrase	1	3	nomatch	doit	-1	1	p	1.1845
685.6445	0.2	wksm	71	noun	phrase	1	4	nomatch	doit	-1	1	p	1.1845
685.8444	0.0	+	71	noun	phrase	1	5	nomatch	doit	-1	1	p	1.1845
686.2442	0.2	dmf	71	noun	phrase	1	6	nomatch	doit	-1	1	p	1.1845
686.4441999999999	0.0	+	71	noun	phrase	1	7	nomatch	doit	-1	1	p	1.1845
686.8439999999999	0.2	rtkdmh	71	noun	phrase	1	8	nomatch	doit	-1	1	p	1.1845
687.0439	0.0	+	71	noun	phrase	1	9	nomatch	doit	-1	1	p	1.1845
687.4436999999999	0.2	nouveau	71	noun	phrase	1	10	nomatch	doit	-1	1	p	1.1845
687.6436	0.0	+	71	noun	phrase	1	11	nomatch	doit	-1	1	p	1.1845
688.0435	0.0	+	71	noun	phrase	1	12	nomatch	doit	-1	1	p	1.1845
690.0426	0.0	DOIT	71	noun	phrase	1	13	nomatch	doit	-1	1	p	1.1845
691.2919999999999	0.0	+	71	noun	phrase	1	14	nomatch	doit	-1	1	p	1.1845
691.2271000000001	0.0	[response]	71	noun	phrase	1	15	nomatch	doit	-1	1	p	1.1845
692.4414999999999	0.0	+	72	verb	phrase	3	1	nomatch	leur	-1	1	p	0.65359
692.9912999999999	0.2	ctlmfkd	72	verb	phrase	3	2	nomatch	leur	-1	1	p	0.65359
693.1912	0.0	+	72	verb	phrase	3	3	nomatch	leur	-1	1	p	0.65359
693.591	0.2	qxrj	72	verb	phrase	3	4	nomatch	leur	-1	1	p	0.65359
693.7909	0.0	+	72	verb	phrase	3	5	nomatch	leur	-1	1	p	0.65359
694.1908	0.2	va	72	verb	phrase	3	6	nomatch	leur	-1	1	p	0.65359
694.3906999999999	0.0	+	72	verb	phrase	3	7	nomatch	leur	-1	1	p	0.65359
694.7905	0.2	voyager	72	verb	phrase	3	8	nomatch	leur	-1	1	p	0.65359
694.9903999999999	0.0	+	72	verb	phrase	3	9	nomatch	leur	-1	1	p	0.65359
695.3901999999999	0.2	tard	72	verb	phrase	3	10	nomatch	leur	-1	1	p	0.65359
695.5901	0.0	+	72	verb	phrase	3	11	nomatch	leur	-1	1	p	0.65359
695.99	0.0	+	72	verb	phrase	3	12	nomatch	leur	-1	1	p	0.65359
697.9891	0.0	LEUR	72	verb	phrase	3	13	nomatch	leur	-1	1	p	0.65359
698.7053999999999	0.0	+	72	verb	phrase	3	14	nomatch	leur	-1	1	p	0.65359
698.6427	0.0	[response]	72	verb	phrase	3	15	nomatch	leur	-1	1	p	0.65359
700.3879999999999	0.0	+	73	verb	phrase	1	1	match	patiner	5	1	y	0.61117
700.9377999999999	0.2	gxvctm	73	verb	phrase	1	2	match	patiner	5	1	y	0.61117
701.1377	0.0	+	73	verb	phrase	1	3	match	patiner	5	1	y	0.61117
701.5374999999999	0.2	dzlw	73	verb	phrase	1	4	match	patiner	5	1	y	0.61117
701.7374	0.0	+	73	verb	phrase	1	5	match	patiner	5	1	y	0.61117
702.1373	0.2	drzp	73	verb	phrase	1	6	match	patiner	5	1	y	0.61117
702.3371999999999	0.0	+	73	verb	phrase	1	7	match	patiner	5	1	y	0.61117
702.7376999999999	0.2	fzhj	73	verb	phrase	1	8	match	patiner	5	1	y	0.61117
702.9368999999999	0.0	+	73	verb	phrase	1	9	match	patiner	5	1	y	0.61117
703.3367	0.2	patiner	73	verb	phrase	1	10	match	patiner	5	1	y	0.61117
703.5365999999999	0.0	+	73	verb	phrase	1	11	match	patiner	5	1	y	0.61117
703.9364999999999	0.0	+	73	verb	phrase	1	12	match	patiner	5	1	y	0.61117
705.9355999999999	0.0	PATINER	73	verb	phrase	1	13	match	patiner	5	1	y	0.61117
706.602	0.0	+	73	verb	phrase	1	14	match	patiner	5	1	y	0.61117
706.5467	0.0	[response]	73	verb	phrase	1	15	match	patiner	5	1	y	0.61117
708.3344999999999	0.0	+	74	verb	phrase	4	1	match	paul	2	1	y	0.5504200000000001
708.8847999999999	0.2	ksqbwl	74	verb	phrase	4	2	match	paul	2	1	y	0.5504200000000001
709.0842	0.0	+	74	verb	phrase	4	3	match	paul	2	1	y	0.5504200000000001
709.4839999999999	0.2	paul	74	verb	phrase	4	4	match	paul	2	1	y	0.5504200000000001
709.6839	0.0	+	74	verb	phrase	4	5	match	paul	2	1	y	0.5504200000000001
710.0838	0.2	va	74	verb	phrase	4	6	match	paul	2	1	y	0.5504200000000001
710.3003	0.0	+	74	verb	phrase	4	7	match	paul	2	1	y	0.5504200000000001
710.7002	0.2	trop	74	verb	phrase	4	8	match	paul	2	1	y	0.5504200000000001
710.9001	0.0	+	74	verb	phrase	4	9	match	paul	2	1	y	0.5504200000000001
711.2999	0.2	chasser	74	verb	phrase	4	10	match	paul	2	1	y	0.5504200000000001
711.4997999999999	0.0	+	74	verb	phrase	4	11	match	paul	2	1	y	0.5504200000000001
711.8996	0.0	+	74	verb	phrase	4	12	match	paul	2	1	y	0.5504200000000001
713.8987	0.0	PAUL	74	verb	phrase	4	13	match	paul	2	1	y	0.5504200000000001
714.5151	0.0	+	74	verb	phrase	4	14	match	paul	2	1	y	0.5504200000000001
714.4491999999999	0.0	[response]	74	verb	phrase	4	15	match	paul	2	1	y	0.5504200000000001
716.2977	0.0	+	75	verb	phrase	2	1	match	tôt	5	1	y	0.68396
716.8474	0.2	mdghlfr	75	verb	phrase	2	2	match	tôt	5	1	y	0.68396
717.0473999999999	0.0	+	75	verb	phrase	2	3	match	tôt	5	1	y	0.68396
717.4472	0.2	xmfn	75	verb	phrase	2	4	match	tôt	5	1	y	0.68396
717.6470999999999	0.0	+	75	verb	phrase	2	5	match	tôt	5	1	y	0.68396
718.0468999999999	0.2	xlrj	75	verb	phrase	2	6	match	tôt	5	1	y	0.68396
718.2468	0.0	+	75	verb	phrase	2	7	match	tôt	5	1	y	0.68396
718.6465999999999	0.2	danser	75	verb	phrase	2	8	match	tôt	5	1	y	0.68396
718.8466	0.0	+	75	verb	phrase	2	9	match	tôt	5	1	y	0.68396
719.2464	0.2	tôt	75	verb	phrase	2	10	match	tôt	5	1	y	0.68396
719.4463	0.0	+	75	verb	phrase	2	11	match	tôt	5	1	y	0.68396
719.8461	0.0	+	75	verb	phrase	2	12	match	tôt	5	1	y	0.68396
721.8452	0.0	TÔT	75	verb	phrase	2	13	match	tôt	5	1	y	0.68396
722.5948999999999	0.0	+	75	verb	phrase	2	14	match	tôt	5	1	y	0.68396
722.5292	0.0	[response]	75	verb	phrase	2	15	match	tôt	5	1	y	0.68396
724.2442	0.0	+	76	noun	list	1	1	nomatch	trop	-1	1	p	1.5969000000000002
724.7939	0.2	czsgfr	76	noun	list	1	2	nomatch	trop	-1	1	p	1.5969000000000002
724.9938999999999	0.0	+	76	noun	list	1	3	nomatch	trop	-1	1	p	1.5969000000000002
725.3937	0.2	qxrj	76	noun	list	1	4	nomatch	trop	-1	1	p	1.5969000000000002
725.5935999999999	0.0	+	76	noun	list	1	5	nomatch	trop	-1	1	p	1.5969000000000002
725.9934	0.2	hls	76	noun	list	1	6	nomatch	trop	-1	1	p	1.5969000000000002
726.1932999999999	0.0	+	76	noun	list	1	7	nomatch	trop	-1	1	p	1.5969000000000002
726.5931999999999	0.2	qxdtsvzr	76	noun	list	1	8	nomatch	trop	-1	1	p	1.5969000000000002
726.7931	0.0	+	76	noun	list	1	9	nomatch	trop	-1	1	p	1.5969000000000002
727.1929	0.2	mieux	76	noun	list	1	10	nomatch	trop	-1	1	p	1.5969000000000002
727.3928	0.0	+	76	noun	list	1	11	nomatch	trop	-1	1	p	1.5969000000000002
727.7926	0.0	+	76	noun	list	1	12	nomatch	trop	-1	1	p	1.5969000000000002
729.7918	0.0	TROP	76	noun	list	1	13	nomatch	trop	-1	1	p	1.5969000000000002
731.4409999999999	0.0	+	76	noun	list	1	14	nomatch	trop	-1	1	p	1.5969000000000002
731.3886	0.0	[response]	76	noun	list	1	15	nomatch	trop	-1	1	p	1.5969000000000002
732.1907	0.0	+	77	verb	list	4	1	match	plonger	5	1	y	0.47855
732.7405	0.2	dlv	77	verb	list	4	2	match	plonger	5	1	y	0.47855
732.9404	0.0	+	77	verb	list	4	3	match	plonger	5	1	y	0.47855
733.3402	0.2	sans	77	verb	list	4	4	match	plonger	5	1	y	0.47855
733.5400999999999	0.0	+	77	verb	list	4	5	match	plonger	5	1	y	0.47855
733.9399	0.2	doit	77	verb	list	4	6	match	plonger	5	1	y	0.47855
734.1397999999999	0.0	+	77	verb	list	4	7	match	plonger	5	1	y	0.47855
734.5396999999999	0.2	nouveau	77	verb	list	4	8	match	plonger	5	1	y	0.47855
734.7396	0.0	+	77	verb	list	4	9	match	plonger	5	1	y	0.47855
735.1393999999999	0.2	plonger	77	verb	list	4	10	match	plonger	5	1	y	0.47855
735.3393	0.0	+	77	verb	list	4	11	match	plonger	5	1	y	0.47855
735.7398	0.0	+	77	verb	list	4	12	match	plonger	5	1	y	0.47855
737.7382	0.0	PLONGER	77	verb	list	4	13	match	plonger	5	1	y	0.47855
738.2715999999999	0.0	+	77	verb	list	4	14	match	plonger	5	1	y	0.47855
738.2167999999999	0.0	[response]	77	verb	list	4	15	match	plonger	5	1	y	0.47855
740.1372	0.0	+	78	noun	phrase	3	1	match	voilier	4	1	y	0.66097
740.6868999999999	0.2	xft	78	noun	phrase	3	2	match	voilier	4	1	y	0.66097
740.8869	0.0	+	78	noun	phrase	3	3	match	voilier	4	1	y	0.66097
741.2867	0.2	gbph	78	noun	phrase	3	4	match	voilier	4	1	y	0.66097
741.4866	0.0	+	78	noun	phrase	3	5	match	voilier	4	1	y	0.66097
741.8864	0.2	leur	78	noun	phrase	3	6	match	voilier	4	1	y	0.66097
742.0862999999999	0.0	+	78	noun	phrase	3	7	match	voilier	4	1	y	0.66097
742.4861999999999	0.2	voilier	78	noun	phrase	3	8	match	voilier	4	1	y	0.66097
742.6861	0.0	+	78	noun	phrase	3	9	match	voilier	4	1	y	0.66097
743.0858999999999	0.2	vert	78	noun	phrase	3	10	match	voilier	4	1	y	0.66097
743.2858	0.0	+	78	noun	phrase	3	11	match	voilier	4	1	y	0.66097
743.6855999999999	0.0	+	78	noun	phrase	3	12	match	voilier	4	1	y	0.66097
745.6848	0.0	VOILIER	78	noun	phrase	3	13	match	voilier	4	1	y	0.66097
746.4010999999999	0.0	+	78	noun	phrase	3	14	match	voilier	4	1	y	0.66097
746.3457	0.0	[response]	78	noun	phrase	3	15	match	voilier	4	1	y	0.66097
748.0836999999999	0.0	+	79	verb	list	4	1	nomatch	petit	-1	1	p	0.77446
748.6501	0.2	cpgbqjw	79	verb	list	4	2	nomatch	petit	-1	1	p	0.77446
748.8499999999999	0.0	+	79	verb	list	4	3	nomatch	petit	-1	1	p	0.77446
749.2498999999999	0.2	sur	79	verb	list	4	4	nomatch	petit	-1	1	p	0.77446
749.4498	0.0	+	79	verb	list	4	5	nomatch	petit	-1	1	p	0.77446
749.8496	0.2	peut	79	verb	list	4	6	nomatch	petit	-1	1	p	0.77446
750.0495	0.0	+	79	verb	list	4	7	nomatch	petit	-1	1	p	0.77446
750.4493	0.2	vieux	79	verb	list	4	8	nomatch	petit	-1	1	p	0.77446
750.6492	0.0	+	79	verb	list	4	9	nomatch	petit	-1	1	p	0.77446
751.0491	0.2	parader	79	verb	list	4	10	nomatch	petit	-1	1	p	0.77446
751.2489999999999	0.0	+	79	verb	list	4	11	nomatch	petit	-1	1	p	0.77446
751.6487999999999	0.0	+	79	verb	list	4	12	nomatch	petit	-1	1	p	0.77446
753.6478999999999	0.0	PETIT	79	verb	list	4	13	nomatch	petit	-1	1	p	0.77446
754.4808999999999	0.0	+	79	verb	list	4	14	nomatch	petit	-1	1	p	0.77446
754.4223999999999	0.0	[response]	79	verb	list	4	15	nomatch	petit	-1	1	p	0.77446
756.0468999999999	0.0	+	80	verb	phrase	2	1	nomatch	tard	-1	1	p	0.6594
756.5966	0.2	pdlszn	80	verb	phrase	2	2	nomatch	tard	-1	1	p	0.6594
756.7964999999999	0.0	+	80	verb	phrase	2	3	nomatch	tard	-1	1	p	0.6594
757.1963999999999	0.2	sbgt	80	verb	phrase	2	4	nomatch	tard	-1	1	p	0.6594
757.3963	0.0	+	80	verb	phrase	2	5	nomatch	tard	-1	1	p	0.6594
757.7960999999999	0.2	drzp	80	verb	phrase	2	6	nomatch	tard	-1	1	p	0.6594
757.996	0.0	+	80	verb	phrase	2	7	nomatch	tard	-1	1	p	0.6594
758.3958	0.2	chasser	80	verb	phrase	2	8	nomatch	tard	-1	1	p	0.6594
758.5957	0.0	+	80	verb	phrase	2	9	nomatch	tard	-1	1	p	0.6594
758.996	0.2	ainsi	80	verb	phrase	2	10	nomatch	tard	-1	1	p	0.6594
759.1954999999999	0.0	+	80	verb	phrase	2	11	nomatch	tard	-1	1	p	0.6594
759.5953	0.0	+	80	verb	phrase	2	12	nomatch	tard	-1	1	p	0.6594
761.5944	0.0	TARD	80	verb	phrase	2	13	nomatch	tard	-1	1	p	0.6594
762.3108	0.0	+	80	verb	phrase	2	14	nomatch	tard	-1	1	p	0.6594
763.9934	0.0	+	80	verb	phrase	2	15	nomatch	tard	-1	1	p	0.6594
765.0096	0.0	+	80	verb	phrase	2	16	nomatch	tard	-1	1	p	0.6594
765.1094999999999	0.0	+	80	verb	phrase	2	17	nomatch	tard	-1	1	p	0.6594
766.5088999999999	0.0	+	80	verb	phrase	2	18	nomatch	tard	-1	1	p	0.6594
766.6089	0.0	+	80	verb	phrase	2	19	nomatch	tard	-1	1	p	0.6594
768.0083	0.0	+	80	verb	phrase	2	20	nomatch	tard	-1	1	p	0.6594
768.1082	0.0	+	80	verb	phrase	2	21	nomatch	tard	-1	1	p	0.6594
769.5075999999999	0.0	+	80	verb	phrase	2	22	nomatch	tard	-1	1	p	0.6594
769.6075999999999	0.0	+	80	verb	phrase	2	23	nomatch	tard	-1	1	p	0.6594
771.0070999999999	0.0	+	80	verb	phrase	2	24	nomatch	tard	-1	1	p	0.6594
771.1069	0.0	+	80	verb	phrase	2	25	nomatch	tard	-1	1	p	0.6594
772.5063	0.0	+	80	verb	phrase	2	26	nomatch	tard	-1	1	p	0.6594
772.6062	0.0	+	80	verb	phrase	2	27	nomatch	tard	-1	1	p	0.6594
774.0223	0.0	+	80	verb	phrase	2	28	nomatch	tard	-1	1	p	0.6594
774.1221999999999	0.0	+	80	verb	phrase	2	29	nomatch	tard	-1	1	p	0.6594
775.505	0.0	+	80	verb	phrase	2	30	nomatch	tard	-1	1	p	0.6594
775.6048999999999	0.0	+	80	verb	phrase	2	31	nomatch	tard	-1	1	p	0.6594
777.021	0.0	+	80	verb	phrase	2	32	nomatch	tard	-1	1	p	0.6594
777.1209	0.0	+	80	verb	phrase	2	33	nomatch	tard	-1	1	p	0.6594
778.5037	0.0	+	80	verb	phrase	2	34	nomatch	tard	-1	1	p	0.6594
778.6035999999999	0.0	+	80	verb	phrase	2	35	nomatch	tard	-1	1	p	0.6594
790.5649999999999	0.0	+	80	verb	phrase	2	36	nomatch	tard	-1	1	p	0.6594
762.2538	0.0	[response]	80	verb	phrase	2	37	nomatch	tard	-1	1	p	0.6594
