onset	duration	stim	trial_number	trial_type	trial_structure	trial_length	sequential_position	probe_type	probe	probe_position	response_correct	response_key	response_time
0.05300000000000438	0.0	+	1	noun	list	4	1	match	jean	2	1	p	1.4582000000000002
0.546200000000006	0.2	ljn	1	noun	list	4	2	match	jean	2	1	p	1.4582000000000002
0.7462000000000018	0.0	+	1	noun	list	4	3	match	jean	2	1	p	1.4582000000000002
1.1458000000000013	0.2	jean	1	noun	list	4	4	match	jean	2	1	p	1.4582000000000002
1.3459000000000003	0.0	+	1	noun	list	4	5	match	jean	2	1	p	1.4582000000000002
1.7457000000000065	0.2	mon	1	noun	list	4	6	match	jean	2	1	p	1.4582000000000002
1.9457000000000022	0.0	+	1	noun	list	4	7	match	jean	2	1	p	1.4582000000000002
2.3455000000000013	0.2	moins	1	noun	list	4	8	match	jean	2	1	p	1.4582000000000002
2.5454000000000008	0.0	+	1	noun	list	4	9	match	jean	2	1	p	1.4582000000000002
2.9452	0.2	panier	1	noun	list	4	10	match	jean	2	1	p	1.4582000000000002
3.1450999999999993	0.0	+	1	noun	list	4	11	match	jean	2	1	p	1.4582000000000002
3.5450000000000017	0.0	+	1	noun	list	4	12	match	jean	2	1	p	1.4582000000000002
5.5441	0.0	JEAN	1	noun	list	4	13	match	jean	2	1	p	1.4582000000000002
7.049900000000008	0.0	+	1	noun	list	4	14	match	jean	2	1	p	1.4582000000000002
7.0023000000000195	0.0	[response]	1	noun	list	4	15	match	jean	2	1	p	1.4582000000000002
7.9298	0.0	+	2	verb	list	2	1	nomatch	beaucoup	-1	1	y	1.0605
8.489500000000007	0.2	mwf	2	verb	list	2	2	nomatch	beaucoup	-1	1	y	1.0605
8.689400000000006	0.0	+	2	verb	list	2	3	nomatch	beaucoup	-1	1	y	1.0605
9.089300000000009	0.2	mvsc	2	verb	list	2	4	nomatch	beaucoup	-1	1	y	1.0605
9.289200000000008	0.0	+	2	verb	list	2	5	nomatch	beaucoup	-1	1	y	1.0605
9.689000000000007	0.2	kq	2	verb	list	2	6	nomatch	beaucoup	-1	1	y	1.0605
9.888900000000007	0.0	+	2	verb	list	2	7	nomatch	beaucoup	-1	1	y	1.0605
10.288700000000006	0.2	beau	2	verb	list	2	8	nomatch	beaucoup	-1	1	y	1.0605
10.488700000000009	0.0	+	2	verb	list	2	9	nomatch	beaucoup	-1	1	y	1.0605
10.888500000000008	0.2	nager	2	verb	list	2	10	nomatch	beaucoup	-1	1	y	1.0605
11.101799999999997	0.0	+	2	verb	list	2	11	nomatch	beaucoup	-1	1	y	1.0605
11.501599999999996	0.0	+	2	verb	list	2	12	nomatch	beaucoup	-1	1	y	1.0605
13.500700000000009	0.0	BEAUCOUP	2	verb	list	2	13	nomatch	beaucoup	-1	1	y	1.0605
14.606800000000007	0.0	+	2	verb	list	2	14	nomatch	beaucoup	-1	1	y	1.0605
14.561200000000014	0.0	[response]	2	verb	list	2	15	nomatch	beaucoup	-1	1	y	1.0605
31.879599999999996	0.0	+	3	noun	phrase	1	1	match	noir	5	1	p	0.6657200000000001
32.4393	0.2	mqvf	3	noun	phrase	1	2	match	noir	5	1	p	0.6657200000000001
32.6392	0.0	+	3	noun	phrase	1	3	match	noir	5	1	p	0.6657200000000001
33.039100000000005	0.2	glcf	3	noun	phrase	1	4	match	noir	5	1	p	0.6657200000000001
33.239000000000004	0.0	+	3	noun	phrase	1	5	match	noir	5	1	p	0.6657200000000001
33.6388	0.2	vpc	3	noun	phrase	1	6	match	noir	5	1	p	0.6657200000000001
33.8387	0.0	+	3	noun	phrase	1	7	match	noir	5	1	p	0.6657200000000001
34.251900000000006	0.2	wkchfqj	3	noun	phrase	1	8	match	noir	5	1	p	0.6657200000000001
34.438500000000005	0.0	+	3	noun	phrase	1	9	match	noir	5	1	p	0.6657200000000001
34.851600000000005	0.2	noir	3	noun	phrase	1	10	match	noir	5	1	p	0.6657200000000001
35.05160000000001	0.0	+	3	noun	phrase	1	11	match	noir	5	1	p	0.6657200000000001
35.45140000000001	0.0	+	3	noun	phrase	1	12	match	noir	5	1	p	0.6657200000000001
37.450500000000005	0.0	NOIR	3	noun	phrase	1	13	match	noir	5	1	p	0.6657200000000001
38.17020000000001	0.0	+	3	noun	phrase	1	14	match	noir	5	1	p	0.6657200000000001
38.11630000000001	0.0	[response]	3	noun	phrase	1	15	match	noir	5	1	p	0.6657200000000001
39.836200000000005	0.0	+	4	verb	phrase	2	1	nomatch	jongler	-1	1	y	0.94931
40.3959	0.2	wkdhvz	4	verb	phrase	2	2	nomatch	jongler	-1	1	y	0.94931
40.5958	0.0	+	4	verb	phrase	2	3	nomatch	jongler	-1	1	y	0.94931
40.9957	0.2	bdrm	4	verb	phrase	2	4	nomatch	jongler	-1	1	y	0.94931
41.1956	0.0	+	4	verb	phrase	2	5	nomatch	jongler	-1	1	y	0.94931
41.5954	0.2	kq	4	verb	phrase	2	6	nomatch	jongler	-1	1	y	0.94931
41.7954	0.0	+	4	verb	phrase	2	7	nomatch	jongler	-1	1	y	0.94931
42.1952	0.2	moins	4	verb	phrase	2	8	nomatch	jongler	-1	1	y	0.94931
42.3951	0.0	+	4	verb	phrase	2	9	nomatch	jongler	-1	1	y	0.94931
42.795	0.2	galoper	4	verb	phrase	2	10	nomatch	jongler	-1	1	y	0.94931
42.9948	0.0	+	4	verb	phrase	2	11	nomatch	jongler	-1	1	y	0.94931
43.3947	0.0	+	4	verb	phrase	2	12	nomatch	jongler	-1	1	y	0.94931
45.3939	0.0	JONGLER	4	verb	phrase	2	13	nomatch	jongler	-1	1	y	0.94931
46.393299999999996	0.0	+	4	verb	phrase	2	14	nomatch	jongler	-1	1	y	0.94931
46.34320000000001	0.0	[response]	4	verb	phrase	2	15	nomatch	jongler	-1	1	y	0.94931
47.7795	0.0	+	5	noun	list	1	1	nomatch	doit	-1	1	y	1.4684
48.33930000000001	0.2	stg	5	noun	list	1	2	nomatch	doit	-1	1	y	1.4684
48.53920000000001	0.0	+	5	noun	list	1	3	nomatch	doit	-1	1	y	1.4684
48.93900000000001	0.2	glcf	5	noun	list	1	4	nomatch	doit	-1	1	y	1.4684
49.13890000000001	0.0	+	5	noun	list	1	5	nomatch	doit	-1	1	y	1.4684
49.5386	0.2	trzk	5	noun	list	1	6	nomatch	doit	-1	1	y	1.4684
49.73870000000001	0.0	+	5	noun	list	1	7	nomatch	doit	-1	1	y	1.4684
50.15180000000001	0.2	vwkrxh	5	noun	list	1	8	nomatch	doit	-1	1	y	1.4684
50.33840000000001	0.0	+	5	noun	list	1	9	nomatch	doit	-1	1	y	1.4684
50.751599999999996	0.2	vite	5	noun	list	1	10	nomatch	doit	-1	1	y	1.4684
50.95150000000001	0.0	+	5	noun	list	1	11	nomatch	doit	-1	1	y	1.4684
51.35130000000001	0.0	+	5	noun	list	1	12	nomatch	doit	-1	1	y	1.4684
53.3505	0.0	DOIT	5	noun	list	1	13	nomatch	doit	-1	1	y	1.4684
54.8698	0.0	+	5	noun	list	1	14	nomatch	doit	-1	1	y	1.4684
54.8189	0.0	[response]	5	noun	list	1	15	nomatch	doit	-1	1	y	1.4684
55.73610000000001	0.0	+	6	noun	phrase	1	1	nomatch	tablier	-1	1	y	1.1245
56.2959	0.2	tbcgp	6	noun	phrase	1	2	nomatch	tablier	-1	1	y	1.1245
56.4958	0.0	+	6	noun	phrase	1	3	nomatch	tablier	-1	1	y	1.1245
56.8956	0.2	xndr	6	noun	phrase	1	4	nomatch	tablier	-1	1	y	1.1245
57.0955	0.0	+	6	noun	phrase	1	5	nomatch	tablier	-1	1	y	1.1245
57.495400000000004	0.2	zqgk	6	noun	phrase	1	6	nomatch	tablier	-1	1	y	1.1245
57.6953	0.0	+	6	noun	phrase	1	7	nomatch	tablier	-1	1	y	1.1245
58.0951	0.2	whkfvtc	6	noun	phrase	1	8	nomatch	tablier	-1	1	y	1.1245
58.295	0.0	+	6	noun	phrase	1	9	nomatch	tablier	-1	1	y	1.1245
58.694900000000004	0.2	grenier	6	noun	phrase	1	10	nomatch	tablier	-1	1	y	1.1245
58.894800000000004	0.0	+	6	noun	phrase	1	11	nomatch	tablier	-1	1	y	1.1245
59.2946	0.0	+	6	noun	phrase	1	12	nomatch	tablier	-1	1	y	1.1245
61.2937	0.0	TABLIER	6	noun	phrase	1	13	nomatch	tablier	-1	1	y	1.1245
62.46640000000001	0.0	+	6	noun	phrase	1	14	nomatch	tablier	-1	1	y	1.1245
62.4182	0.0	[response]	6	noun	phrase	1	15	nomatch	tablier	-1	1	y	1.1245
63.6794	0.0	+	7	verb	phrase	3	1	nomatch	pour	-1	1	y	1.1235
64.2392	0.2	shf	7	verb	phrase	3	2	nomatch	pour	-1	1	y	1.1235
64.4391	0.0	+	7	verb	phrase	3	3	nomatch	pour	-1	1	y	1.1235
64.83890000000001	0.2	zrmn	7	verb	phrase	3	4	nomatch	pour	-1	1	y	1.1235
65.03880000000001	0.0	+	7	verb	phrase	3	5	nomatch	pour	-1	1	y	1.1235
65.4387	0.2	doit	7	verb	phrase	3	6	nomatch	pour	-1	1	y	1.1235
65.63850000000001	0.0	+	7	verb	phrase	3	7	nomatch	pour	-1	1	y	1.1235
66.0518	0.2	parader	7	verb	phrase	3	8	nomatch	pour	-1	1	y	1.1235
66.2516	0.0	+	7	verb	phrase	3	9	nomatch	pour	-1	1	y	1.1235
66.6515	0.2	loin	7	verb	phrase	3	10	nomatch	pour	-1	1	y	1.1235
66.8514	0.0	+	7	verb	phrase	3	11	nomatch	pour	-1	1	y	1.1235
67.2512	0.0	+	7	verb	phrase	3	12	nomatch	pour	-1	1	y	1.1235
69.2504	0.0	POUR	7	verb	phrase	3	13	nomatch	pour	-1	1	y	1.1235
70.4232	0.0	+	7	verb	phrase	3	14	nomatch	pour	-1	1	y	1.1235
70.3739	0.0	[response]	7	verb	phrase	3	15	nomatch	pour	-1	1	y	1.1235
71.63610000000001	0.0	+	8	verb	phrase	4	1	nomatch	jade	-1	1	y	1.1557000000000002
72.1958	0.2	tfqwcps	8	verb	phrase	4	2	nomatch	jade	-1	1	y	1.1557000000000002
72.39569999999999	0.0	+	8	verb	phrase	4	3	nomatch	jade	-1	1	y	1.1557000000000002
72.79549999999999	0.2	marc	8	verb	phrase	4	4	nomatch	jade	-1	1	y	1.1557000000000002
72.9954	0.0	+	8	verb	phrase	4	5	nomatch	jade	-1	1	y	1.1557000000000002
73.3953	0.2	va	8	verb	phrase	4	6	nomatch	jade	-1	1	y	1.1557000000000002
73.5953	0.0	+	8	verb	phrase	4	7	nomatch	jade	-1	1	y	1.1557000000000002
73.9951	0.2	chasser	8	verb	phrase	4	8	nomatch	jade	-1	1	y	1.1557000000000002
74.1949	0.0	+	8	verb	phrase	4	9	nomatch	jade	-1	1	y	1.1557000000000002
74.5948	0.2	vite	8	verb	phrase	4	10	nomatch	jade	-1	1	y	1.1557000000000002
74.79469999999999	0.0	+	8	verb	phrase	4	11	nomatch	jade	-1	1	y	1.1557000000000002
75.19449999999999	0.0	+	8	verb	phrase	4	12	nomatch	jade	-1	1	y	1.1557000000000002
77.19369999999999	0.0	JADE	8	verb	phrase	4	13	nomatch	jade	-1	1	y	1.1557000000000002
78.39309999999999	0.0	+	8	verb	phrase	4	14	nomatch	jade	-1	1	y	1.1557000000000002
78.34940000000002	0.0	[response]	8	verb	phrase	4	15	nomatch	jade	-1	1	y	1.1557000000000002
87.5893	0.0	+	9	verb	phrase	1	1	nomatch	patiner	-1	1	y	0.9479700000000001
88.14890000000001	0.2	jcg	9	verb	phrase	1	2	nomatch	patiner	-1	1	y	0.9479700000000001
88.3489	0.0	+	9	verb	phrase	1	3	nomatch	patiner	-1	1	y	0.9479700000000001
88.7488	0.2	dnbc	9	verb	phrase	1	4	nomatch	patiner	-1	1	y	0.9479700000000001
88.94870000000002	0.0	+	9	verb	phrase	1	5	nomatch	patiner	-1	1	y	0.9479700000000001
89.34850000000002	0.2	trzk	9	verb	phrase	1	6	nomatch	patiner	-1	1	y	0.9479700000000001
89.5484	0.0	+	9	verb	phrase	1	7	nomatch	patiner	-1	1	y	0.9479700000000001
89.9483	0.2	xstcfrw	9	verb	phrase	1	8	nomatch	patiner	-1	1	y	0.9479700000000001
90.14820000000002	0.0	+	9	verb	phrase	1	9	nomatch	patiner	-1	1	y	0.9479700000000001
90.54800000000002	0.2	moins	9	verb	phrase	1	10	nomatch	patiner	-1	1	y	0.9479700000000001
90.7479	0.0	+	9	verb	phrase	1	11	nomatch	patiner	-1	1	y	0.9479700000000001
91.1478	0.0	+	9	verb	phrase	1	12	nomatch	patiner	-1	1	y	0.9479700000000001
93.1469	0.0	PATINER	9	verb	phrase	1	13	nomatch	patiner	-1	1	y	0.9479700000000001
94.14649999999999	0.0	+	9	verb	phrase	1	14	nomatch	patiner	-1	1	y	0.9479700000000001
94.09490000000001	0.0	[response]	9	verb	phrase	1	15	nomatch	patiner	-1	1	y	0.9479700000000001
103.52920000000002	0.0	+	10	noun	list	3	1	nomatch	leur	-1	1	y	1.1995
104.08890000000001	0.2	lcngh	10	noun	list	3	2	nomatch	leur	-1	1	y	1.1995
104.2888	0.0	+	10	noun	list	3	3	nomatch	leur	-1	1	y	1.1995
104.70200000000001	0.2	srp	10	noun	list	3	4	nomatch	leur	-1	1	y	1.1995
104.9019	0.0	+	10	noun	list	3	5	nomatch	leur	-1	1	y	1.1995
105.28850000000001	0.2	mon	10	noun	list	3	6	nomatch	leur	-1	1	y	1.1995
105.50160000000001	0.0	+	10	noun	list	3	7	nomatch	leur	-1	1	y	1.1995
105.90150000000001	0.2	beaucoup	10	noun	list	3	8	nomatch	leur	-1	1	y	1.1995
106.1014	0.0	+	10	noun	list	3	9	nomatch	leur	-1	1	y	1.1995
106.5013	0.2	grenier	10	noun	list	3	10	nomatch	leur	-1	1	y	1.1995
106.70110000000001	0.0	+	10	noun	list	3	11	nomatch	leur	-1	1	y	1.1995
107.10090000000001	0.0	+	10	noun	list	3	12	nomatch	leur	-1	1	y	1.1995
109.10010000000001	0.0	LEUR	10	noun	list	3	13	nomatch	leur	-1	1	y	1.1995
110.35280000000002	0.0	+	10	noun	list	3	14	nomatch	leur	-1	1	y	1.1995
110.29960000000001	0.0	[response]	10	noun	list	3	15	nomatch	leur	-1	1	y	1.1995
111.4858	0.0	+	11	verb	list	1	1	match	plonger	5	0	y	0.7796
112.04549999999999	0.2	hqkfncx	11	verb	list	1	2	match	plonger	5	0	y	0.7796
112.2455	0.0	+	11	verb	list	1	3	match	plonger	5	0	y	0.7796
112.6453	0.2	glcf	11	verb	list	1	4	match	plonger	5	0	y	0.7796
112.84519999999999	0.0	+	11	verb	list	1	5	match	plonger	5	0	y	0.7796
113.24499999999999	0.2	trzk	11	verb	list	1	6	match	plonger	5	0	y	0.7796
113.4449	0.0	+	11	verb	list	1	7	match	plonger	5	0	y	0.7796
113.8448	0.2	whkfvtc	11	verb	list	1	8	match	plonger	5	0	y	0.7796
114.04469999999999	0.0	+	11	verb	list	1	9	match	plonger	5	0	y	0.7796
114.44449999999999	0.2	plonger	11	verb	list	1	10	match	plonger	5	0	y	0.7796
114.6444	0.0	+	11	verb	list	1	11	match	plonger	5	0	y	0.7796
115.0442	0.0	+	11	verb	list	1	12	match	plonger	5	0	y	0.7796
117.0434	0.0	PLONGER	11	verb	list	1	13	match	plonger	5	0	y	0.7796
117.86970000000001	0.0	+	11	verb	list	1	14	match	plonger	5	0	y	0.7796
117.823	0.0	[response]	11	verb	list	1	15	match	plonger	5	0	y	0.7796
127.43900000000001	0.0	+	12	noun	list	2	1	nomatch	grand	-1	1	y	1.0196
127.9987	0.2	ncp	12	noun	list	2	2	nomatch	grand	-1	1	y	1.0196
128.19870000000003	0.0	+	12	noun	list	2	3	nomatch	grand	-1	1	y	1.0196
128.5985	0.2	zrmn	12	noun	list	2	4	nomatch	grand	-1	1	y	1.0196
128.79840000000002	0.0	+	12	noun	list	2	5	nomatch	grand	-1	1	y	1.0196
129.19830000000002	0.2	qmj	12	noun	list	2	6	nomatch	grand	-1	1	y	1.0196
129.39820000000003	0.0	+	12	noun	list	2	7	nomatch	grand	-1	1	y	1.0196
129.798	0.2	moins	12	noun	list	2	8	nomatch	grand	-1	1	y	1.0196
129.99790000000002	0.0	+	12	noun	list	2	9	nomatch	grand	-1	1	y	1.0196
130.3977	0.2	clavier	12	noun	list	2	10	nomatch	grand	-1	1	y	1.0196
130.5976	0.0	+	12	noun	list	2	11	nomatch	grand	-1	1	y	1.0196
130.9975	0.0	+	12	noun	list	2	12	nomatch	grand	-1	1	y	1.0196
132.9966	0.0	GRAND	12	noun	list	2	13	nomatch	grand	-1	1	y	1.0196
134.0627	0.0	+	12	noun	list	2	14	nomatch	grand	-1	1	y	1.0196
134.01630000000006	0.0	[response]	12	noun	list	2	15	nomatch	grand	-1	1	y	1.0196
143.3789	0.0	+	13	noun	phrase	1	1	match	panier	5	1	p	0.59587
143.9386	0.2	gtq	13	noun	phrase	1	2	match	panier	5	1	p	0.59587
144.13850000000002	0.0	+	13	noun	phrase	1	3	match	panier	5	1	p	0.59587
144.55169999999998	0.2	hqkz	13	noun	phrase	1	4	match	panier	5	1	p	0.59587
144.7516	0.0	+	13	noun	phrase	1	5	match	panier	5	1	p	0.59587
145.1515	0.2	zqgk	13	noun	phrase	1	6	match	panier	5	1	p	0.59587
145.3514	0.0	+	13	noun	phrase	1	7	match	panier	5	1	p	0.59587
145.75119999999998	0.2	lfsz	13	noun	phrase	1	8	match	panier	5	1	p	0.59587
145.9511	0.0	+	13	noun	phrase	1	9	match	panier	5	1	p	0.59587
146.35090000000002	0.2	panier	13	noun	phrase	1	10	match	panier	5	1	p	0.59587
146.55079999999998	0.0	+	13	noun	phrase	1	11	match	panier	5	1	p	0.59587
146.95069999999998	0.0	+	13	noun	phrase	1	12	match	panier	5	1	p	0.59587
148.94979999999998	0.0	PANIER	13	noun	phrase	1	13	match	panier	5	1	p	0.59587
149.5895	0.0	+	13	noun	phrase	1	14	match	panier	5	1	p	0.59587
149.5457	0.0	[response]	13	noun	phrase	1	15	match	panier	5	1	p	0.59587
151.33550000000002	0.0	+	14	noun	phrase	2	1	nomatch	doit	-1	1	y	0.78545
151.8952	0.2	dhngmbq	14	noun	phrase	2	2	nomatch	doit	-1	1	y	0.78545
152.09519999999998	0.0	+	14	noun	phrase	2	3	nomatch	doit	-1	1	y	0.78545
152.495	0.2	xhj	14	noun	phrase	2	4	nomatch	doit	-1	1	y	0.78545
152.69490000000002	0.0	+	14	noun	phrase	2	5	nomatch	doit	-1	1	y	0.78545
153.0947	0.2	qmj	14	noun	phrase	2	6	nomatch	doit	-1	1	y	0.78545
153.29469999999998	0.0	+	14	noun	phrase	2	7	nomatch	doit	-1	1	y	0.78545
153.6945	0.2	nouveau	14	noun	phrase	2	8	nomatch	doit	-1	1	y	0.78545
153.89440000000002	0.0	+	14	noun	phrase	2	9	nomatch	doit	-1	1	y	0.78545
154.2942	0.2	casier	14	noun	phrase	2	10	nomatch	doit	-1	1	y	0.78545
154.4941	0.0	+	14	noun	phrase	2	11	nomatch	doit	-1	1	y	0.78545
154.894	0.0	+	14	noun	phrase	2	12	nomatch	doit	-1	1	y	0.78545
156.89319999999998	0.0	DOIT	14	noun	phrase	2	13	nomatch	doit	-1	1	y	0.78545
157.7326	0.0	+	14	noun	phrase	2	14	nomatch	doit	-1	1	y	0.78545
157.67860000000002	0.0	[response]	14	noun	phrase	2	15	nomatch	doit	-1	1	y	0.78545
159.2788	0.0	+	15	noun	phrase	4	1	nomatch	vers	-1	1	y	1.0527
159.8519	0.2	nbqrvk	15	noun	phrase	4	2	nomatch	vers	-1	1	y	1.0527
160.05180000000001	0.0	+	15	noun	phrase	4	3	nomatch	vers	-1	1	y	1.0527
160.43830000000003	0.2	dans	15	noun	phrase	4	4	nomatch	vers	-1	1	y	1.0527
160.6515	0.0	+	15	noun	phrase	4	5	nomatch	vers	-1	1	y	1.0527
161.0514	0.2	mon	15	noun	phrase	4	6	nomatch	vers	-1	1	y	1.0527
161.25130000000001	0.0	+	15	noun	phrase	4	7	nomatch	vers	-1	1	y	1.0527
161.65109999999999	0.2	grand	15	noun	phrase	4	8	nomatch	vers	-1	1	y	1.0527
161.851	0.0	+	15	noun	phrase	4	9	nomatch	vers	-1	1	y	1.0527
162.25080000000003	0.2	tablier	15	noun	phrase	4	10	nomatch	vers	-1	1	y	1.0527
162.45069999999998	0.0	+	15	noun	phrase	4	11	nomatch	vers	-1	1	y	1.0527
162.8506	0.0	+	15	noun	phrase	4	12	nomatch	vers	-1	1	y	1.0527
164.84980000000002	0.0	VERS	15	noun	phrase	4	13	nomatch	vers	-1	1	y	1.0527
165.95589999999999	0.0	+	15	noun	phrase	4	14	nomatch	vers	-1	1	y	1.0527
165.9024	0.0	[response]	15	noun	phrase	4	15	nomatch	vers	-1	1	y	1.0527
175.23200000000003	0.0	+	16	noun	list	1	1	match	rocher	5	0	y	2.0697
175.79180000000002	0.2	fcmz	16	noun	list	1	2	match	rocher	5	0	y	2.0697
175.99169999999998	0.0	+	16	noun	list	1	3	match	rocher	5	0	y	2.0697
176.39139999999998	0.2	bdrm	16	noun	list	1	4	match	rocher	5	0	y	2.0697
176.59140000000002	0.0	+	16	noun	list	1	5	match	rocher	5	0	y	2.0697
176.99130000000002	0.2	qmj	16	noun	list	1	6	match	rocher	5	0	y	2.0697
177.19119999999998	0.0	+	16	noun	list	1	7	match	rocher	5	0	y	2.0697
177.591	0.2	htjrv	16	noun	list	1	8	match	rocher	5	0	y	2.0697
177.79090000000002	0.0	+	16	noun	list	1	9	match	rocher	5	0	y	2.0697
178.1907	0.2	rocher	16	noun	list	1	10	match	rocher	5	0	y	2.0697
178.3906	0.0	+	16	noun	list	1	11	match	rocher	5	0	y	2.0697
178.7905	0.0	+	16	noun	list	1	12	match	rocher	5	0	y	2.0697
180.7896	0.0	ROCHER	16	noun	list	1	13	match	rocher	5	0	y	2.0697
182.9087	0.0	+	16	noun	list	1	14	match	rocher	5	0	y	2.0697
182.8594	0.0	[response]	16	noun	list	1	15	match	rocher	5	0	y	2.0697
183.1886	0.0	+	17	noun	list	1	1	match	tard	5	1	p	0.91968
183.7484	0.2	gxjpczq	17	noun	list	1	2	match	tard	5	1	p	0.91968
183.94830000000002	0.0	+	17	noun	list	1	3	match	tard	5	1	p	0.91968
184.34820000000002	0.2	xndr	17	noun	list	1	4	match	tard	5	1	p	0.91968
184.548	0.0	+	17	noun	list	1	5	match	tard	5	1	p	0.91968
184.9479	0.2	szxj	17	noun	list	1	6	match	tard	5	1	p	0.91968
185.14780000000002	0.0	+	17	noun	list	1	7	match	tard	5	1	p	0.91968
185.5476	0.2	hpmgczv	17	noun	list	1	8	match	tard	5	1	p	0.91968
185.7475	0.0	+	17	noun	list	1	9	match	tard	5	1	p	0.91968
186.1474	0.2	tard	17	noun	list	1	10	match	tard	5	1	p	0.91968
186.34730000000002	0.0	+	17	noun	list	1	11	match	tard	5	1	p	0.91968
186.7471	0.0	+	17	noun	list	1	12	match	tard	5	1	p	0.91968
188.7462	0.0	TARD	17	noun	list	1	13	match	tard	5	1	p	0.91968
189.71910000000003	0.0	+	17	noun	list	1	14	match	tard	5	1	p	0.91968
189.66590000000002	0.0	[response]	17	noun	list	1	15	match	tard	5	1	p	0.91968
191.1322	0.0	+	18	noun	list	4	1	match	avec	2	1	p	0.92967
191.69170000000003	0.2	frvc	18	noun	list	4	2	match	avec	2	1	p	0.92967
191.89159999999998	0.0	+	18	noun	list	4	3	match	avec	2	1	p	0.92967
192.2914	0.2	avec	18	noun	list	4	4	match	avec	2	1	p	0.92967
192.49130000000002	0.0	+	18	noun	list	4	5	match	avec	2	1	p	0.92967
192.8911	0.2	doit	18	noun	list	4	6	match	avec	2	1	p	0.92967
193.09109999999998	0.0	+	18	noun	list	4	7	match	avec	2	1	p	0.92967
193.4909	0.2	clavier	18	noun	list	4	8	match	avec	2	1	p	0.92967
193.69080000000002	0.0	+	18	noun	list	4	9	match	avec	2	1	p	0.92967
194.0906	0.2	loin	18	noun	list	4	10	match	avec	2	1	p	0.92967
194.2905	0.0	+	18	noun	list	4	11	match	avec	2	1	p	0.92967
194.6904	0.0	+	18	noun	list	4	12	match	avec	2	1	p	0.92967
196.6895	0.0	AVEC	18	noun	list	4	13	match	avec	2	1	p	0.92967
197.6624	0.0	+	18	noun	list	4	14	match	avec	2	1	p	0.92967
197.61920000000003	0.0	[response]	18	noun	list	4	15	match	avec	2	1	p	0.92967
199.08860000000004	0.0	+	19	verb	list	1	1	match	noir	5	1	p	0.7303100000000001
199.6483	0.2	qsl	19	verb	list	1	2	match	noir	5	1	p	0.7303100000000001
199.8483	0.0	+	19	verb	list	1	3	match	noir	5	1	p	0.7303100000000001
200.24810000000002	0.2	dnbc	19	verb	list	1	4	match	noir	5	1	p	0.7303100000000001
200.44800000000004	0.0	+	19	verb	list	1	5	match	noir	5	1	p	0.7303100000000001
200.8478	0.2	vpc	19	verb	list	1	6	match	noir	5	1	p	0.7303100000000001
201.04770000000002	0.0	+	19	verb	list	1	7	match	noir	5	1	p	0.7303100000000001
201.4475	0.2	dprwlbn	19	verb	list	1	8	match	noir	5	1	p	0.7303100000000001
201.64750000000004	0.0	+	19	verb	list	1	9	match	noir	5	1	p	0.7303100000000001
202.04720000000003	0.2	noir	19	verb	list	1	10	match	noir	5	1	p	0.7303100000000001
202.24720000000002	0.0	+	19	verb	list	1	11	match	noir	5	1	p	0.7303100000000001
202.647	0.0	+	19	verb	list	1	12	match	noir	5	1	p	0.7303100000000001
204.64620000000002	0.0	NOIR	19	verb	list	1	13	match	noir	5	1	p	0.7303100000000001
205.41900000000004	0.0	+	19	verb	list	1	14	match	noir	5	1	p	0.7303100000000001
205.37650000000002	0.0	[response]	19	verb	list	1	15	match	noir	5	1	p	0.7303100000000001
207.03180000000003	0.0	+	20	noun	list	3	1	match	plus	4	1	p	1.0492
207.59160000000003	0.2	rkg	20	noun	list	3	2	match	plus	4	1	p	1.0492
207.79150000000004	0.0	+	20	noun	list	3	3	match	plus	4	1	p	1.0492
208.1913	0.2	zrmn	20	noun	list	3	4	match	plus	4	1	p	1.0492
208.39120000000003	0.0	+	20	noun	list	3	5	match	plus	4	1	p	1.0492
208.791	0.2	son	20	noun	list	3	6	match	plus	4	1	p	1.0492
208.99100000000004	0.0	+	20	noun	list	3	7	match	plus	4	1	p	1.0492
209.3908	0.2	plus	20	noun	list	3	8	match	plus	4	1	p	1.0492
209.59070000000003	0.0	+	20	noun	list	3	9	match	plus	4	1	p	1.0492
209.99060000000003	0.2	panier	20	noun	list	3	10	match	plus	4	1	p	1.0492
210.19050000000004	0.0	+	20	noun	list	3	11	match	plus	4	1	p	1.0492
210.5903	0.0	+	20	noun	list	3	12	match	plus	4	1	p	1.0492
212.5894	0.0	PLUS	20	noun	list	3	13	match	plus	4	1	p	1.0492
213.6823	0.0	+	20	noun	list	3	14	match	plus	4	1	p	1.0492
213.6386	0.0	[response]	20	noun	list	3	15	match	plus	4	1	p	1.0492
214.9884	0.0	+	21	verb	phrase	4	1	match	marc	2	1	p	0.97577
215.54830000000004	0.2	hvrp	21	verb	phrase	4	2	match	marc	2	1	p	0.97577
215.7482	0.0	+	21	verb	phrase	4	3	match	marc	2	1	p	0.97577
216.1479	0.2	marc	21	verb	phrase	4	4	match	marc	2	1	p	0.97577
216.34790000000004	0.0	+	21	verb	phrase	4	5	match	marc	2	1	p	0.97577
216.7477	0.2	doit	21	verb	phrase	4	6	match	marc	2	1	p	0.97577
216.94760000000002	0.0	+	21	verb	phrase	4	7	match	marc	2	1	p	0.97577
217.3474	0.2	galoper	21	verb	phrase	4	8	match	marc	2	1	p	0.97577
217.5473	0.0	+	21	verb	phrase	4	9	match	marc	2	1	p	0.97577
217.94710000000003	0.2	ainsi	21	verb	phrase	4	10	match	marc	2	1	p	0.97577
218.14710000000002	0.0	+	21	verb	phrase	4	11	match	marc	2	1	p	0.97577
218.5469	0.0	+	21	verb	phrase	4	12	match	marc	2	1	p	0.97577
220.54610000000002	0.0	MARC	21	verb	phrase	4	13	match	marc	2	1	p	0.97577
221.57230000000004	0.0	+	21	verb	phrase	4	14	match	marc	2	1	p	0.97577
221.52190000000002	0.0	[response]	21	verb	phrase	4	15	match	marc	2	1	p	0.97577
222.9318	0.0	+	22	noun	phrase	2	1	nomatch	beau	-1	1	y	1.1233
223.4914	0.2	jkgds	22	noun	phrase	2	2	nomatch	beau	-1	1	y	1.1233
223.69140000000004	0.0	+	22	noun	phrase	2	3	nomatch	beau	-1	1	y	1.1233
224.09120000000001	0.2	mvsc	22	noun	phrase	2	4	nomatch	beau	-1	1	y	1.1233
224.29110000000003	0.0	+	22	noun	phrase	2	5	nomatch	beau	-1	1	y	1.1233
224.69100000000003	0.2	vpc	22	noun	phrase	2	6	nomatch	beau	-1	1	y	1.1233
224.89090000000004	0.0	+	22	noun	phrase	2	7	nomatch	beau	-1	1	y	1.1233
225.29070000000002	0.2	vieux	22	noun	phrase	2	8	nomatch	beau	-1	1	y	1.1233
225.49060000000003	0.0	+	22	noun	phrase	2	9	nomatch	beau	-1	1	y	1.1233
225.8904	0.2	grenier	22	noun	phrase	2	10	nomatch	beau	-1	1	y	1.1233
226.09040000000005	0.0	+	22	noun	phrase	2	11	nomatch	beau	-1	1	y	1.1233
226.49020000000002	0.0	+	22	noun	phrase	2	12	nomatch	beau	-1	1	y	1.1233
228.48930000000001	0.0	BEAU	22	noun	phrase	2	13	nomatch	beau	-1	1	y	1.1233
229.66200000000003	0.0	+	22	noun	phrase	2	14	nomatch	beau	-1	1	y	1.1233
229.61270000000002	0.0	[response]	22	noun	phrase	2	15	nomatch	beau	-1	1	y	1.1233
238.885	0.0	+	23	noun	list	4	1	nomatch	petit	-1	1	y	0.89912
239.4447	0.2	phb	23	noun	list	4	2	nomatch	petit	-1	1	y	0.89912
239.64460000000003	0.0	+	23	noun	list	4	3	nomatch	petit	-1	1	y	0.89912
240.0444	0.2	marc	23	noun	list	4	4	nomatch	petit	-1	1	y	0.89912
240.2443	0.0	+	23	noun	list	4	5	nomatch	petit	-1	1	y	0.89912
240.6442	0.2	leur	23	noun	list	4	6	nomatch	petit	-1	1	y	0.89912
240.84410000000003	0.0	+	23	noun	list	4	7	nomatch	petit	-1	1	y	0.89912
241.2439	0.2	plus	23	noun	list	4	8	nomatch	petit	-1	1	y	0.89912
241.44390000000004	0.0	+	23	noun	list	4	9	nomatch	petit	-1	1	y	0.89912
241.84360000000004	0.2	casier	23	noun	list	4	10	nomatch	petit	-1	1	y	0.89912
242.04360000000003	0.0	+	23	noun	list	4	11	nomatch	petit	-1	1	y	0.89912
242.4434	0.0	+	23	noun	list	4	12	nomatch	petit	-1	1	y	0.89912
244.44260000000003	0.0	PETIT	23	noun	list	4	13	nomatch	petit	-1	1	y	0.89912
245.3886	0.0	+	23	noun	list	4	14	nomatch	petit	-1	1	y	0.89912
245.3417	0.0	[response]	23	noun	list	4	15	nomatch	petit	-1	1	y	0.89912
246.84160000000003	0.0	+	24	noun	list	1	1	nomatch	grenier	-1	1	y	1.1777
247.4013	0.2	dbzg	24	noun	list	1	2	nomatch	grenier	-1	1	y	1.1777
247.6012	0.0	+	24	noun	list	1	3	nomatch	grenier	-1	1	y	1.1777
248.0011	0.2	zhdl	24	noun	list	1	4	nomatch	grenier	-1	1	y	1.1777
248.20100000000002	0.0	+	24	noun	list	1	5	nomatch	grenier	-1	1	y	1.1777
248.6008	0.2	kq	24	noun	list	1	6	nomatch	grenier	-1	1	y	1.1777
248.8007	0.0	+	24	noun	list	1	7	nomatch	grenier	-1	1	y	1.1777
249.2006	0.2	zqcm	24	noun	list	1	8	nomatch	grenier	-1	1	y	1.1777
249.4004	0.0	+	24	noun	list	1	9	nomatch	grenier	-1	1	y	1.1777
249.8003	0.2	panier	24	noun	list	1	10	nomatch	grenier	-1	1	y	1.1777
250.0002	0.0	+	24	noun	list	1	11	nomatch	grenier	-1	1	y	1.1777
250.40000000000003	0.0	+	24	noun	list	1	12	nomatch	grenier	-1	1	y	1.1777
252.3992	0.0	GRENIER	24	noun	list	1	13	nomatch	grenier	-1	1	y	1.1777
253.6252	0.0	+	24	noun	list	1	14	nomatch	grenier	-1	1	y	1.1777
253.57690000000002	0.0	[response]	24	noun	list	1	15	nomatch	grenier	-1	1	y	1.1777
254.7849	0.0	+	25	noun	list	1	1	nomatch	marc	-1	1	y	0.61215
255.3446	0.2	mtbq	25	noun	list	1	2	nomatch	marc	-1	1	y	0.61215
255.54450000000003	0.0	+	25	noun	list	1	3	nomatch	marc	-1	1	y	0.61215
255.9443	0.2	srp	25	noun	list	1	4	nomatch	marc	-1	1	y	0.61215
256.14430000000004	0.0	+	25	noun	list	1	5	nomatch	marc	-1	1	y	0.61215
256.5441	0.2	vpc	25	noun	list	1	6	nomatch	marc	-1	1	y	0.61215
256.744	0.0	+	25	noun	list	1	7	nomatch	marc	-1	1	y	0.61215
257.1438	0.2	flntzqrp	25	noun	list	1	8	nomatch	marc	-1	1	y	0.61215
257.34380000000004	0.0	+	25	noun	list	1	9	nomatch	marc	-1	1	y	0.61215
257.74350000000004	0.2	trop	25	noun	list	1	10	nomatch	marc	-1	1	y	0.61215
257.94350000000003	0.0	+	25	noun	list	1	11	nomatch	marc	-1	1	y	0.61215
258.3433	0.0	+	25	noun	list	1	12	nomatch	marc	-1	1	y	0.61215
260.34250000000003	0.0	MARC	25	noun	list	1	13	nomatch	marc	-1	1	y	0.61215
261.00870000000003	0.0	+	25	noun	list	1	14	nomatch	marc	-1	1	y	0.61215
260.9546	0.0	[response]	25	noun	list	1	15	nomatch	marc	-1	1	y	0.61215
262.74150000000003	0.0	+	26	verb	phrase	1	1	nomatch	tard	-1	1	y	0.91321
263.3012	0.2	qbjd	26	verb	phrase	1	2	nomatch	tard	-1	1	y	0.91321
263.50120000000004	0.0	+	26	verb	phrase	1	3	nomatch	tard	-1	1	y	0.91321
263.90090000000004	0.2	zrmn	26	verb	phrase	1	4	nomatch	tard	-1	1	y	0.91321
264.1009	0.0	+	26	verb	phrase	1	5	nomatch	tard	-1	1	y	0.91321
264.5007	0.2	kq	26	verb	phrase	1	6	nomatch	tard	-1	1	y	0.91321
264.7006	0.0	+	26	verb	phrase	1	7	nomatch	tard	-1	1	y	0.91321
265.1005	0.2	bgcm	26	verb	phrase	1	8	nomatch	tard	-1	1	y	0.91321
265.3004	0.0	+	26	verb	phrase	1	9	nomatch	tard	-1	1	y	0.91321
265.7002	0.2	patiner	26	verb	phrase	1	10	nomatch	tard	-1	1	y	0.91321
265.9001	0.0	+	26	verb	phrase	1	11	nomatch	tard	-1	1	y	0.91321
266.3	0.0	+	26	verb	phrase	1	12	nomatch	tard	-1	1	y	0.91321
268.2991	0.0	TARD	26	verb	phrase	1	13	nomatch	tard	-1	1	y	0.91321
269.2585	0.0	+	26	verb	phrase	1	14	nomatch	tard	-1	1	y	0.91321
269.2123	0.0	[response]	26	verb	phrase	1	15	nomatch	tard	-1	1	y	0.91321
278.6814	0.0	+	27	noun	phrase	1	1	match	blanc	5	1	p	2.0573
279.2411	0.2	lcsq	27	noun	phrase	1	2	match	blanc	5	1	p	2.0573
279.44100000000003	0.0	+	27	noun	phrase	1	3	match	blanc	5	1	p	2.0573
279.8408	0.2	mvsc	27	noun	phrase	1	4	match	blanc	5	1	p	2.0573
280.0408	0.0	+	27	noun	phrase	1	5	match	blanc	5	1	p	2.0573
280.4406	0.2	zqgk	27	noun	phrase	1	6	match	blanc	5	1	p	2.0573
280.64050000000003	0.0	+	27	noun	phrase	1	7	match	blanc	5	1	p	2.0573
281.0403	0.2	tmhlvwr	27	noun	phrase	1	8	match	blanc	5	1	p	2.0573
281.2403	0.0	+	27	noun	phrase	1	9	match	blanc	5	1	p	2.0573
281.64000000000004	0.2	blanc	27	noun	phrase	1	10	match	blanc	5	1	p	2.0573
281.84000000000003	0.0	+	27	noun	phrase	1	11	match	blanc	5	1	p	2.0573
282.2398	0.0	+	27	noun	phrase	1	12	match	blanc	5	1	p	2.0573
284.23900000000003	0.0	BLANC	27	noun	phrase	1	13	match	blanc	5	1	p	2.0573
286.34470000000005	0.0	+	27	noun	phrase	1	14	match	blanc	5	1	p	2.0573
286.2962	0.0	[response]	27	noun	phrase	1	15	match	blanc	5	1	p	2.0573
294.63460000000003	0.0	+	28	noun	phrase	3	1	nomatch	adam	-1	1	y	0.9040800000000001
295.1943	0.2	vhwmbq	28	noun	phrase	3	2	nomatch	adam	-1	1	y	0.9040800000000001
295.39430000000004	0.0	+	28	noun	phrase	3	3	nomatch	adam	-1	1	y	0.9040800000000001
295.79400000000004	0.2	xhj	28	noun	phrase	3	4	nomatch	adam	-1	1	y	0.9040800000000001
295.994	0.0	+	28	noun	phrase	3	5	nomatch	adam	-1	1	y	0.9040800000000001
296.3938	0.2	leur	28	noun	phrase	3	6	nomatch	adam	-1	1	y	0.9040800000000001
296.5937	0.0	+	28	noun	phrase	3	7	nomatch	adam	-1	1	y	0.9040800000000001
296.9936	0.2	grand	28	noun	phrase	3	8	nomatch	adam	-1	1	y	0.9040800000000001
297.19350000000003	0.0	+	28	noun	phrase	3	9	nomatch	adam	-1	1	y	0.9040800000000001
297.5933	0.2	grenier	28	noun	phrase	3	10	nomatch	adam	-1	1	y	0.9040800000000001
297.7932	0.0	+	28	noun	phrase	3	11	nomatch	adam	-1	1	y	0.9040800000000001
298.19300000000004	0.0	+	28	noun	phrase	3	12	nomatch	adam	-1	1	y	0.9040800000000001
300.1922	0.0	ADAM	28	noun	phrase	3	13	nomatch	adam	-1	1	y	0.9040800000000001
301.1384	0.0	+	28	noun	phrase	3	14	nomatch	adam	-1	1	y	0.9040800000000001
301.0962	0.0	[response]	28	noun	phrase	3	15	nomatch	adam	-1	1	y	0.9040800000000001
302.5912	0.0	+	29	noun	list	3	1	match	voilier	5	1	p	1.1148
303.15090000000004	0.2	kdct	29	noun	list	3	2	match	voilier	5	1	p	1.1148
303.3509	0.0	+	29	noun	list	3	3	match	voilier	5	1	p	1.1148
303.7507	0.2	bdrm	29	noun	list	3	4	match	voilier	5	1	p	1.1148
303.9506	0.0	+	29	noun	list	3	5	match	voilier	5	1	p	1.1148
304.3505	0.2	mon	29	noun	list	3	6	match	voilier	5	1	p	1.1148
304.5503	0.0	+	29	noun	list	3	7	match	voilier	5	1	p	1.1148
304.9501	0.2	plus	29	noun	list	3	8	match	voilier	5	1	p	1.1148
305.1501	0.0	+	29	noun	list	3	9	match	voilier	5	1	p	1.1148
305.54990000000004	0.2	voilier	29	noun	list	3	10	match	voilier	5	1	p	1.1148
305.7498	0.0	+	29	noun	list	3	11	match	voilier	5	1	p	1.1148
306.1496	0.0	+	29	noun	list	3	12	match	voilier	5	1	p	1.1148
308.1488	0.0	VOILIER	29	noun	list	3	13	match	voilier	5	1	p	1.1148
309.3081	0.0	+	29	noun	list	3	14	match	voilier	5	1	p	1.1148
309.2636	0.0	[response]	29	noun	list	3	15	match	voilier	5	1	p	1.1148
310.53450000000004	0.0	+	30	noun	list	3	1	nomatch	vite	-1	1	y	0.84527
311.0942	0.2	hdcmtwp	30	noun	list	3	2	nomatch	vite	-1	1	y	0.84527
311.2942	0.0	+	30	noun	list	3	3	nomatch	vite	-1	1	y	0.84527
311.694	0.2	zhdl	30	noun	list	3	4	nomatch	vite	-1	1	y	0.84527
311.89390000000003	0.0	+	30	noun	list	3	5	nomatch	vite	-1	1	y	0.84527
312.2937	0.2	va	30	noun	list	3	6	nomatch	vite	-1	1	y	0.84527
312.4936	0.0	+	30	noun	list	3	7	nomatch	vite	-1	1	y	0.84527
312.89340000000004	0.2	tablier	30	noun	list	3	8	nomatch	vite	-1	1	y	0.84527
313.0933	0.0	+	30	noun	list	3	9	nomatch	vite	-1	1	y	0.84527
313.4932	0.2	tôt	30	noun	list	3	10	nomatch	vite	-1	1	y	0.84527
313.6931	0.0	+	30	noun	list	3	11	nomatch	vite	-1	1	y	0.84527
314.09290000000004	0.0	+	30	noun	list	3	12	nomatch	vite	-1	1	y	0.84527
316.09200000000004	0.0	VITE	30	noun	list	3	13	nomatch	vite	-1	1	y	0.84527
316.98490000000004	0.0	+	30	noun	list	3	14	nomatch	vite	-1	1	y	0.84527
316.9373	0.0	[response]	30	noun	list	3	15	nomatch	vite	-1	1	y	0.84527
318.4911	0.0	+	31	noun	list	1	1	match	casier	5	1	p	1.0104
319.05080000000004	0.2	cmlbz	31	noun	list	1	2	match	casier	5	1	p	1.0104
319.2508	0.0	+	31	noun	list	1	3	match	casier	5	1	p	1.0104
319.6506	0.2	xndr	31	noun	list	1	4	match	casier	5	1	p	1.0104
319.8505	0.0	+	31	noun	list	1	5	match	casier	5	1	p	1.0104
320.25030000000004	0.2	trzk	31	noun	list	1	6	match	casier	5	1	p	1.0104
320.4502	0.0	+	31	noun	list	1	7	match	casier	5	1	p	1.0104
320.8501	0.2	qjfl	31	noun	list	1	8	match	casier	5	1	p	1.0104
321.05	0.0	+	31	noun	list	1	9	match	casier	5	1	p	1.0104
321.44980000000004	0.2	casier	31	noun	list	1	10	match	casier	5	1	p	1.0104
321.6497	0.0	+	31	noun	list	1	11	match	casier	5	1	p	1.0104
322.0495	0.0	+	31	noun	list	1	12	match	casier	5	1	p	1.0104
324.0487	0.0	CASIER	31	noun	list	1	13	match	casier	5	1	p	1.0104
325.10150000000004	0.0	+	31	noun	list	1	14	match	casier	5	1	p	1.0104
325.05910000000006	0.0	[response]	31	noun	list	1	15	match	casier	5	1	p	1.0104
326.43440000000004	0.0	+	32	verb	list	3	1	nomatch	son	-1	1	y	0.9923
326.9941	0.2	mdwztx	32	verb	list	3	2	nomatch	son	-1	1	y	0.9923
327.1941	0.0	+	32	verb	list	3	3	nomatch	son	-1	1	y	0.9923
327.5939	0.2	dnbc	32	verb	list	3	4	nomatch	son	-1	1	y	0.9923
327.79380000000003	0.0	+	32	verb	list	3	5	nomatch	son	-1	1	y	0.9923
328.1936	0.2	mon	32	verb	list	3	6	nomatch	son	-1	1	y	0.9923
328.3935	0.0	+	32	verb	list	3	7	nomatch	son	-1	1	y	0.9923
328.7934	0.2	parader	32	verb	list	3	8	nomatch	son	-1	1	y	0.9923
328.99330000000003	0.0	+	32	verb	list	3	9	nomatch	son	-1	1	y	0.9923
329.3931	0.2	blanc	32	verb	list	3	10	nomatch	son	-1	1	y	0.9923
329.593	0.0	+	32	verb	list	3	11	nomatch	son	-1	1	y	0.9923
329.9929	0.0	+	32	verb	list	3	12	nomatch	son	-1	1	y	0.9923
331.992	0.0	SON	32	verb	list	3	13	nomatch	son	-1	1	y	0.9923
333.0315	0.0	+	32	verb	list	3	14	nomatch	son	-1	1	y	0.9923
332.9843000000001	0.0	[response]	32	verb	list	3	15	nomatch	son	-1	1	y	0.9923
334.391	0.0	+	33	noun	phrase	1	1	nomatch	voilier	-1	1	y	1.0013
334.95070000000004	0.2	bhgdwk	33	noun	phrase	1	2	nomatch	voilier	-1	1	y	1.0013
335.1506	0.0	+	33	noun	phrase	1	3	nomatch	voilier	-1	1	y	1.0013
335.5505	0.2	xhj	33	noun	phrase	1	4	nomatch	voilier	-1	1	y	1.0013
335.7504	0.0	+	33	noun	phrase	1	5	nomatch	voilier	-1	1	y	1.0013
336.15020000000004	0.2	vpc	33	noun	phrase	1	6	nomatch	voilier	-1	1	y	1.0013
336.3501	0.0	+	33	noun	phrase	1	7	nomatch	voilier	-1	1	y	1.0013
336.75	0.2	gdpbv	33	noun	phrase	1	8	nomatch	voilier	-1	1	y	1.0013
336.9499	0.0	+	33	noun	phrase	1	9	nomatch	voilier	-1	1	y	1.0013
337.34970000000004	0.2	tablier	33	noun	phrase	1	10	nomatch	voilier	-1	1	y	1.0013
337.5496	0.0	+	33	noun	phrase	1	11	nomatch	voilier	-1	1	y	1.0013
337.9495	0.0	+	33	noun	phrase	1	12	nomatch	voilier	-1	1	y	1.0013
339.9486	0.0	VOILIER	33	noun	phrase	1	13	nomatch	voilier	-1	1	y	1.0013
341.0014	0.0	+	33	noun	phrase	1	14	nomatch	voilier	-1	1	y	1.0013
340.9499	0.0	[response]	33	noun	phrase	1	15	nomatch	voilier	-1	1	y	1.0013
358.3408	0.0	+	34	noun	list	1	1	match	plus	5	1	p	1.4191000000000003
358.9006	0.2	cdz	34	noun	list	1	2	match	plus	5	1	p	1.4191000000000003
359.1005	0.0	+	34	noun	list	1	3	match	plus	5	1	p	1.4191000000000003
359.50030000000004	0.2	srp	34	noun	list	1	4	match	plus	5	1	p	1.4191000000000003
359.7002	0.0	+	34	noun	list	1	5	match	plus	5	1	p	1.4191000000000003
360.1	0.2	qmj	34	noun	list	1	6	match	plus	5	1	p	1.4191000000000003
360.3	0.0	+	34	noun	list	1	7	match	plus	5	1	p	1.4191000000000003
360.69980000000004	0.2	wkchfqj	34	noun	list	1	8	match	plus	5	1	p	1.4191000000000003
360.8997	0.0	+	34	noun	list	1	9	match	plus	5	1	p	1.4191000000000003
361.2995	0.2	plus	34	noun	list	1	10	match	plus	5	1	p	1.4191000000000003
361.49940000000004	0.0	+	34	noun	list	1	11	match	plus	5	1	p	1.4191000000000003
361.89930000000004	0.0	+	34	noun	list	1	12	match	plus	5	1	p	1.4191000000000003
363.89840000000004	0.0	PLUS	34	noun	list	1	13	match	plus	5	1	p	1.4191000000000003
365.3644	0.0	+	34	noun	list	1	14	match	plus	5	1	p	1.4191000000000003
365.3175	0.0	[response]	34	noun	list	1	15	match	plus	5	1	p	1.4191000000000003
366.2841	0.0	+	35	noun	phrase	3	1	nomatch	clavier	-1	1	y	0.9123
366.84380000000004	0.2	mgb	35	noun	phrase	3	2	nomatch	clavier	-1	1	y	0.9123
367.0437	0.0	+	35	noun	phrase	3	3	nomatch	clavier	-1	1	y	0.9123
367.4436	0.2	xndr	35	noun	phrase	3	4	nomatch	clavier	-1	1	y	0.9123
367.6435	0.0	+	35	noun	phrase	3	5	nomatch	clavier	-1	1	y	0.9123
368.04330000000004	0.2	leur	35	noun	phrase	3	6	nomatch	clavier	-1	1	y	0.9123
368.2432	0.0	+	35	noun	phrase	3	7	nomatch	clavier	-1	1	y	0.9123
368.6431	0.2	beau	35	noun	phrase	3	8	nomatch	clavier	-1	1	y	0.9123
368.843	0.0	+	35	noun	phrase	3	9	nomatch	clavier	-1	1	y	0.9123
369.24280000000005	0.2	tablier	35	noun	phrase	3	10	nomatch	clavier	-1	1	y	0.9123
369.4427	0.0	+	35	noun	phrase	3	11	nomatch	clavier	-1	1	y	0.9123
369.84250000000003	0.0	+	35	noun	phrase	3	12	nomatch	clavier	-1	1	y	0.9123
371.8417	0.0	CLAVIER	35	noun	phrase	3	13	nomatch	clavier	-1	1	y	0.9123
372.8012	0.0	+	35	noun	phrase	3	14	nomatch	clavier	-1	1	y	0.9123
372.754	0.0	[response]	35	noun	phrase	3	15	nomatch	clavier	-1	1	y	0.9123
374.2407	0.0	+	36	verb	list	1	1	match	rouler	5	1	p	1.2522
374.8004	0.2	bhmn	36	verb	list	1	2	match	rouler	5	1	p	1.2522
375.0004	0.0	+	36	verb	list	1	3	match	rouler	5	1	p	1.2522
375.40020000000004	0.2	dnbc	36	verb	list	1	4	match	rouler	5	1	p	1.2522
375.60020000000003	0.0	+	36	verb	list	1	5	match	rouler	5	1	p	1.2522
375.9999	0.2	zqgk	36	verb	list	1	6	match	rouler	5	1	p	1.2522
376.19980000000004	0.0	+	36	verb	list	1	7	match	rouler	5	1	p	1.2522
376.59970000000004	0.2	gdpbv	36	verb	list	1	8	match	rouler	5	1	p	1.2522
376.7996	0.0	+	36	verb	list	1	9	match	rouler	5	1	p	1.2522
377.1994	0.2	rouler	36	verb	list	1	10	match	rouler	5	1	p	1.2522
377.39930000000004	0.0	+	36	verb	list	1	11	match	rouler	5	1	p	1.2522
377.79920000000004	0.0	+	36	verb	list	1	12	match	rouler	5	1	p	1.2522
379.79830000000004	0.0	ROULER	36	verb	list	1	13	match	rouler	5	1	p	1.2522
381.1044	0.0	+	36	verb	list	1	14	match	rouler	5	1	p	1.2522
381.05060000000003	0.0	[response]	36	verb	list	1	15	match	rouler	5	1	p	1.2522
390.1806	0.0	+	37	noun	list	2	1	match	casier	5	1	p	1.2181
390.7403	0.2	vrqljhn	37	noun	list	2	2	match	casier	5	1	p	1.2181
390.9402	0.0	+	37	noun	list	2	3	match	casier	5	1	p	1.2181
391.3401	0.2	lzdr	37	noun	list	2	4	match	casier	5	1	p	1.2181
391.54	0.0	+	37	noun	list	2	5	match	casier	5	1	p	1.2181
391.9398	0.2	qmj	37	noun	list	2	6	match	casier	5	1	p	1.2181
392.1397	0.0	+	37	noun	list	2	7	match	casier	5	1	p	1.2181
392.5396	0.2	trop	37	noun	list	2	8	match	casier	5	1	p	1.2181
392.7395	0.0	+	37	noun	list	2	9	match	casier	5	1	p	1.2181
393.1393	0.2	casier	37	noun	list	2	10	match	casier	5	1	p	1.2181
393.3392	0.0	+	37	noun	list	2	11	match	casier	5	1	p	1.2181
393.73900000000003	0.0	+	37	noun	list	2	12	match	casier	5	1	p	1.2181
395.7515	0.0	CASIER	37	noun	list	2	13	match	casier	5	1	p	1.2181
397.0176	0.0	+	37	noun	list	2	14	match	casier	5	1	p	1.2181
396.9696	0.0	[response]	37	noun	list	2	15	match	casier	5	1	p	1.2181
398.1372	0.0	+	38	noun	phrase	4	1	nomatch	leur	-1	1	y	0.9713100000000001
398.697	0.2	mtn	38	noun	phrase	4	2	nomatch	leur	-1	1	y	0.9713100000000001
398.8969	0.0	+	38	noun	phrase	4	3	nomatch	leur	-1	1	y	0.9713100000000001
399.29670000000004	0.2	vers	38	noun	phrase	4	4	nomatch	leur	-1	1	y	0.9713100000000001
399.4965	0.0	+	38	noun	phrase	4	5	nomatch	leur	-1	1	y	0.9713100000000001
399.8964	0.2	mon	38	noun	phrase	4	6	nomatch	leur	-1	1	y	0.9713100000000001
400.0964	0.0	+	38	noun	phrase	4	7	nomatch	leur	-1	1	y	0.9713100000000001
400.49620000000004	0.2	clavier	38	noun	phrase	4	8	nomatch	leur	-1	1	y	0.9713100000000001
400.6961	0.0	+	38	noun	phrase	4	9	nomatch	leur	-1	1	y	0.9713100000000001
401.09590000000003	0.2	vert	38	noun	phrase	4	10	nomatch	leur	-1	1	y	0.9713100000000001
401.29580000000004	0.0	+	38	noun	phrase	4	11	nomatch	leur	-1	1	y	0.9713100000000001
401.69570000000004	0.0	+	38	noun	phrase	4	12	nomatch	leur	-1	1	y	0.9713100000000001
403.69480000000004	0.0	LEUR	38	noun	phrase	4	13	nomatch	leur	-1	1	y	0.9713100000000001
404.721	0.0	+	38	noun	phrase	4	14	nomatch	leur	-1	1	y	0.9713100000000001
404.66610000000003	0.0	[response]	38	noun	phrase	4	15	nomatch	leur	-1	1	y	0.9713100000000001
406.08050000000003	0.0	+	39	verb	phrase	4	1	match	mieux	4	1	p	1.4629
406.6402	0.2	clvh	39	verb	phrase	4	2	match	mieux	4	1	p	1.4629
406.8401	0.0	+	39	verb	phrase	4	3	match	mieux	4	1	p	1.4629
407.24	0.2	paul	39	verb	phrase	4	4	match	mieux	4	1	p	1.4629
407.4399	0.0	+	39	verb	phrase	4	5	match	mieux	4	1	p	1.4629
407.8397	0.2	doit	39	verb	phrase	4	6	match	mieux	4	1	p	1.4629
408.0396	0.0	+	39	verb	phrase	4	7	match	mieux	4	1	p	1.4629
408.4395	0.2	mieux	39	verb	phrase	4	8	match	mieux	4	1	p	1.4629
408.6394	0.0	+	39	verb	phrase	4	9	match	mieux	4	1	p	1.4629
409.0392	0.2	chasser	39	verb	phrase	4	10	match	mieux	4	1	p	1.4629
409.2391	0.0	+	39	verb	phrase	4	11	match	mieux	4	1	p	1.4629
409.63890000000004	0.0	+	39	verb	phrase	4	12	match	mieux	4	1	p	1.4629
411.6514	0.0	MIEUX	39	verb	phrase	4	13	match	mieux	4	1	p	1.4629
413.1573	0.0	+	39	verb	phrase	4	14	match	mieux	4	1	p	1.4629
413.11430000000007	0.0	[response]	39	verb	phrase	4	15	match	mieux	4	1	p	1.4629
414.0371	0.0	+	40	verb	list	1	1	nomatch	petit	-1	1	y	0.91262
414.5969	0.2	jfmzn	40	verb	list	1	2	nomatch	petit	-1	1	y	0.91262
414.7968	0.0	+	40	verb	list	1	3	nomatch	petit	-1	1	y	0.91262
415.1966	0.2	hqkz	40	verb	list	1	4	nomatch	petit	-1	1	y	0.91262
415.3965	0.0	+	40	verb	list	1	5	nomatch	petit	-1	1	y	0.91262
415.79630000000003	0.2	kq	40	verb	list	1	6	nomatch	petit	-1	1	y	0.91262
415.99620000000004	0.0	+	40	verb	list	1	7	nomatch	petit	-1	1	y	0.91262
416.3961	0.2	xhwmqlt	40	verb	list	1	8	nomatch	petit	-1	1	y	0.91262
416.596	0.0	+	40	verb	list	1	9	nomatch	petit	-1	1	y	0.91262
416.99580000000003	0.2	beau	40	verb	list	1	10	nomatch	petit	-1	1	y	0.91262
417.1958	0.0	+	40	verb	list	1	11	nomatch	petit	-1	1	y	0.91262
417.5956	0.0	+	40	verb	list	1	12	nomatch	petit	-1	1	y	0.91262
419.5948	0.0	PETIT	40	verb	list	1	13	nomatch	petit	-1	1	y	0.91262
420.5543	0.0	+	40	verb	list	1	14	nomatch	petit	-1	1	y	0.91262
420.5074	0.0	[response]	40	verb	list	1	15	nomatch	petit	-1	1	y	0.91262
421.98040000000003	0.0	+	41	noun	list	4	1	match	tablier	4	1	p	1.1423000000000003
422.5401	0.2	xzlg	41	noun	list	4	2	match	tablier	4	1	p	1.1423000000000003
422.74	0.0	+	41	noun	list	4	3	match	tablier	4	1	p	1.1423000000000003
423.1399	0.2	sur	41	noun	list	4	4	match	tablier	4	1	p	1.1423000000000003
423.3398	0.0	+	41	noun	list	4	5	match	tablier	4	1	p	1.1423000000000003
423.7396	0.2	va	41	noun	list	4	6	match	tablier	4	1	p	1.1423000000000003
423.9395	0.0	+	41	noun	list	4	7	match	tablier	4	1	p	1.1423000000000003
424.3394	0.2	tablier	41	noun	list	4	8	match	tablier	4	1	p	1.1423000000000003
424.5393	0.0	+	41	noun	list	4	9	match	tablier	4	1	p	1.1423000000000003
424.9391	0.2	tard	41	noun	list	4	10	match	tablier	4	1	p	1.1423000000000003
425.139	0.0	+	41	noun	list	4	11	match	tablier	4	1	p	1.1423000000000003
425.53880000000004	0.0	+	41	noun	list	4	12	match	tablier	4	1	p	1.1423000000000003
427.5513	0.0	TABLIER	41	noun	list	4	13	match	tablier	4	1	p	1.1423000000000003
428.7373	0.0	+	41	noun	list	4	14	match	tablier	4	1	p	1.1423000000000003
428.69360000000006	0.0	[response]	41	noun	list	4	15	match	tablier	4	1	p	1.1423000000000003
429.937	0.0	+	42	verb	list	3	1	match	vieux	4	1	p	1.0546
430.49670000000003	0.2	kqcj	42	verb	list	3	2	match	vieux	4	1	p	1.0546
430.6966	0.0	+	42	verb	list	3	3	match	vieux	4	1	p	1.0546
431.0965	0.2	xhj	42	verb	list	3	4	match	vieux	4	1	p	1.0546
431.2964	0.0	+	42	verb	list	3	5	match	vieux	4	1	p	1.0546
431.69620000000003	0.2	doit	42	verb	list	3	6	match	vieux	4	1	p	1.0546
431.8961	0.0	+	42	verb	list	3	7	match	vieux	4	1	p	1.0546
432.296	0.2	vieux	42	verb	list	3	8	match	vieux	4	1	p	1.0546
432.4959	0.0	+	42	verb	list	3	9	match	vieux	4	1	p	1.0546
432.89570000000003	0.2	rouler	42	verb	list	3	10	match	vieux	4	1	p	1.0546
433.0956	0.0	+	42	verb	list	3	11	match	vieux	4	1	p	1.0546
433.4955	0.0	+	42	verb	list	3	12	match	vieux	4	1	p	1.0546
435.4947	0.0	VIEUX	42	verb	list	3	13	match	vieux	4	1	p	1.0546
436.6008	0.0	+	42	verb	list	3	14	match	vieux	4	1	p	1.0546
436.5493000000001	0.0	[response]	42	verb	list	3	15	match	vieux	4	1	p	1.0546
437.88030000000003	0.0	+	43	noun	phrase	3	1	match	son	3	1	p	1.7436000000000003
438.44	0.2	wps	43	noun	phrase	3	2	match	son	3	1	p	1.7436000000000003
438.64000000000004	0.0	+	43	noun	phrase	3	3	match	son	3	1	p	1.7436000000000003
439.0398	0.2	xndr	43	noun	phrase	3	4	match	son	3	1	p	1.7436000000000003
439.2397	0.0	+	43	noun	phrase	3	5	match	son	3	1	p	1.7436000000000003
439.6395	0.2	son	43	noun	phrase	3	6	match	son	3	1	p	1.7436000000000003
439.8394	0.0	+	43	noun	phrase	3	7	match	son	3	1	p	1.7436000000000003
440.2393	0.2	grand	43	noun	phrase	3	8	match	son	3	1	p	1.7436000000000003
440.4392	0.0	+	43	noun	phrase	3	9	match	son	3	1	p	1.7436000000000003
440.839	0.2	rocher	43	noun	phrase	3	10	match	son	3	1	p	1.7436000000000003
441.0389	0.0	+	43	noun	phrase	3	11	match	son	3	1	p	1.7436000000000003
441.43870000000004	0.0	+	43	noun	phrase	3	12	match	son	3	1	p	1.7436000000000003
443.45120000000003	0.0	SON	43	noun	phrase	3	13	match	son	3	1	p	1.7436000000000003
445.237	0.0	+	43	noun	phrase	3	14	match	son	3	1	p	1.7436000000000003
445.19480000000004	0.0	[response]	43	noun	phrase	3	15	match	son	3	1	p	1.7436000000000003
445.8369	0.0	+	44	noun	phrase	1	1	nomatch	clavier	-1	1	y	1.3709000000000002
446.39660000000003	0.2	zvfrsk	44	noun	phrase	1	2	nomatch	clavier	-1	1	y	1.3709000000000002
446.5966	0.0	+	44	noun	phrase	1	3	nomatch	clavier	-1	1	y	1.3709000000000002
446.9963	0.2	mvsc	44	noun	phrase	1	4	nomatch	clavier	-1	1	y	1.3709000000000002
447.1963	0.0	+	44	noun	phrase	1	5	nomatch	clavier	-1	1	y	1.3709000000000002
447.5962	0.2	vpc	44	noun	phrase	1	6	nomatch	clavier	-1	1	y	1.3709000000000002
447.7961	0.0	+	44	noun	phrase	1	7	nomatch	clavier	-1	1	y	1.3709000000000002
448.1959	0.2	vztqj	44	noun	phrase	1	8	nomatch	clavier	-1	1	y	1.3709000000000002
448.3958	0.0	+	44	noun	phrase	1	9	nomatch	clavier	-1	1	y	1.3709000000000002
448.79560000000004	0.2	voilier	44	noun	phrase	1	10	nomatch	clavier	-1	1	y	1.3709000000000002
448.9956	0.0	+	44	noun	phrase	1	11	nomatch	clavier	-1	1	y	1.3709000000000002
449.3954	0.0	+	44	noun	phrase	1	12	nomatch	clavier	-1	1	y	1.3709000000000002
451.39450000000005	0.0	CLAVIER	44	noun	phrase	1	13	nomatch	clavier	-1	1	y	1.3709000000000002
452.8204	0.0	+	44	noun	phrase	1	14	nomatch	clavier	-1	1	y	1.3709000000000002
452.76540000000006	0.0	[response]	44	noun	phrase	1	15	nomatch	clavier	-1	1	y	1.3709000000000002
453.7802	0.0	+	45	verb	list	3	1	match	chasser	5	1	p	0.92071
454.3399	0.2	zbrq	45	verb	list	3	2	match	chasser	5	1	p	0.92071
454.53990000000005	0.0	+	45	verb	list	3	3	match	chasser	5	1	p	0.92071
454.9397000000001	0.2	hqkz	45	verb	list	3	4	match	chasser	5	1	p	0.92071
455.13960000000003	0.0	+	45	verb	list	3	5	match	chasser	5	1	p	0.92071
455.53940000000006	0.2	peut	45	verb	list	3	6	match	chasser	5	1	p	0.92071
455.7393	0.0	+	45	verb	list	3	7	match	chasser	5	1	p	0.92071
456.1392	0.2	nouveau	45	verb	list	3	8	match	chasser	5	1	p	0.92071
456.3391	0.0	+	45	verb	list	3	9	match	chasser	5	1	p	0.92071
456.7389	0.2	chasser	45	verb	list	3	10	match	chasser	5	1	p	0.92071
456.93890000000005	0.0	+	45	verb	list	3	11	match	chasser	5	1	p	0.92071
457.3386	0.0	+	45	verb	list	3	12	match	chasser	5	1	p	0.92071
459.35110000000003	0.0	CHASSER	45	verb	list	3	13	match	chasser	5	1	p	0.92071
460.32390000000004	0.0	+	45	verb	list	3	14	match	chasser	5	1	p	0.92071
460.27180000000004	0.0	[response]	45	verb	list	3	15	match	chasser	5	1	p	0.92071
461.7368000000001	0.0	+	46	noun	phrase	2	1	match	grand	4	1	p	0.93702
462.2965	0.2	mwjtgrx	46	noun	phrase	2	2	match	grand	4	1	p	0.93702
462.4965	0.0	+	46	noun	phrase	2	3	match	grand	4	1	p	0.93702
462.89630000000005	0.2	zhdl	46	noun	phrase	2	4	match	grand	4	1	p	0.93702
463.0962	0.0	+	46	noun	phrase	2	5	match	grand	4	1	p	0.93702
463.4961	0.2	vpc	46	noun	phrase	2	6	match	grand	4	1	p	0.93702
463.69599999999997	0.0	+	46	noun	phrase	2	7	match	grand	4	1	p	0.93702
464.0958	0.2	grand	46	noun	phrase	2	8	match	grand	4	1	p	0.93702
464.29570000000007	0.0	+	46	noun	phrase	2	9	match	grand	4	1	p	0.93702
464.6955	0.2	panier	46	noun	phrase	2	10	match	grand	4	1	p	0.93702
464.8955	0.0	+	46	noun	phrase	2	11	match	grand	4	1	p	0.93702
465.29530000000005	0.0	+	46	noun	phrase	2	12	match	grand	4	1	p	0.93702
467.29440000000005	0.0	GRAND	46	noun	phrase	2	13	match	grand	4	1	p	0.93702
468.2806	0.0	+	46	noun	phrase	2	14	match	grand	4	1	p	0.93702
468.23140000000006	0.0	[response]	46	noun	phrase	2	15	match	grand	4	1	p	0.93702
469.6801	0.0	+	47	verb	list	3	1	match	beau	4	0	y	1.1336
470.2398	0.2	jvxhb	47	verb	list	3	2	match	beau	4	0	y	1.1336
470.4397000000001	0.0	+	47	verb	list	3	3	match	beau	4	0	y	1.1336
470.83959999999996	0.2	bmnq	47	verb	list	3	4	match	beau	4	0	y	1.1336
471.03950000000003	0.0	+	47	verb	list	3	5	match	beau	4	0	y	1.1336
471.43930000000006	0.2	va	47	verb	list	3	6	match	beau	4	0	y	1.1336
471.6392	0.0	+	47	verb	list	3	7	match	beau	4	0	y	1.1336
472.0391	0.2	beau	47	verb	list	3	8	match	beau	4	0	y	1.1336
472.239	0.0	+	47	verb	list	3	9	match	beau	4	0	y	1.1336
472.6388	0.2	galoper	47	verb	list	3	10	match	beau	4	0	y	1.1336
472.8387000000001	0.0	+	47	verb	list	3	11	match	beau	4	0	y	1.1336
473.23859999999996	0.0	+	47	verb	list	3	12	match	beau	4	0	y	1.1336
475.25100000000003	0.0	BEAU	47	verb	list	3	13	match	beau	4	0	y	1.1336
476.4372	0.0	+	47	verb	list	3	14	match	beau	4	0	y	1.1336
476.3847000000001	0.0	[response]	47	verb	list	3	15	match	beau	4	0	y	1.1336
477.6366	0.0	+	48	verb	list	4	1	match	blanc	5	1	p	1.3421
478.1964	0.2	qfsx	48	verb	list	4	2	match	blanc	5	1	p	1.3421
478.39630000000005	0.0	+	48	verb	list	4	3	match	blanc	5	1	p	1.3421
478.79620000000006	0.2	adam	48	verb	list	4	4	match	blanc	5	1	p	1.3421
478.9961	0.0	+	48	verb	list	4	5	match	blanc	5	1	p	1.3421
479.39590000000004	0.2	mon	48	verb	list	4	6	match	blanc	5	1	p	1.3421
479.5959	0.0	+	48	verb	list	4	7	match	blanc	5	1	p	1.3421
479.9957	0.2	parader	48	verb	list	4	8	match	blanc	5	1	p	1.3421
480.19560000000007	0.0	+	48	verb	list	4	9	match	blanc	5	1	p	1.3421
480.5954	0.2	blanc	48	verb	list	4	10	match	blanc	5	1	p	1.3421
480.79530000000005	0.0	+	48	verb	list	4	11	match	blanc	5	1	p	1.3421
481.19509999999997	0.0	+	48	verb	list	4	12	match	blanc	5	1	p	1.3421
483.19430000000006	0.0	BLANC	48	verb	list	4	13	match	blanc	5	1	p	1.3421
484.5803	0.0	+	48	verb	list	4	14	match	blanc	5	1	p	1.3421
484.5364	0.0	[response]	48	verb	list	4	15	match	blanc	5	1	p	1.3421
485.58	0.0	+	49	verb	list	4	1	nomatch	jean	-1	1	y	0.92377
486.1397	0.2	kgnj	49	verb	list	4	2	nomatch	jean	-1	1	y	0.92377
486.33959999999996	0.0	+	49	verb	list	4	3	nomatch	jean	-1	1	y	0.92377
486.73949999999996	0.2	vers	49	verb	list	4	4	nomatch	jean	-1	1	y	0.92377
486.93940000000003	0.0	+	49	verb	list	4	5	nomatch	jean	-1	1	y	0.92377
487.33920000000006	0.2	doit	49	verb	list	4	6	nomatch	jean	-1	1	y	0.92377
487.5391	0.0	+	49	verb	list	4	7	nomatch	jean	-1	1	y	0.92377
487.939	0.2	nouveau	49	verb	list	4	8	nomatch	jean	-1	1	y	0.92377
488.1389	0.0	+	49	verb	list	4	9	nomatch	jean	-1	1	y	0.92377
488.5387	0.2	patiner	49	verb	list	4	10	nomatch	jean	-1	1	y	0.92377
488.752	0.0	+	49	verb	list	4	11	nomatch	jean	-1	1	y	0.92377
489.1384	0.0	+	49	verb	list	4	12	nomatch	jean	-1	1	y	0.92377
491.15090000000004	0.0	JEAN	49	verb	list	4	13	nomatch	jean	-1	1	y	0.92377
492.12370000000004	0.0	+	49	verb	list	4	14	nomatch	jean	-1	1	y	0.92377
492.0746	0.0	[response]	49	verb	list	4	15	nomatch	jean	-1	1	y	0.92377
493.53659999999996	0.0	+	50	verb	phrase	1	1	nomatch	son	-1	1	y	1.0475
494.0963	0.2	ldwhtx	50	verb	phrase	1	2	nomatch	son	-1	1	y	1.0475
494.29630000000003	0.0	+	50	verb	phrase	1	3	nomatch	son	-1	1	y	1.0475
494.69610000000006	0.2	bdrm	50	verb	phrase	1	4	nomatch	son	-1	1	y	1.0475
494.8961	0.0	+	50	verb	phrase	1	5	nomatch	son	-1	1	y	1.0475
495.29580000000004	0.2	trzk	50	verb	phrase	1	6	nomatch	son	-1	1	y	1.0475
495.4957	0.0	+	50	verb	phrase	1	7	nomatch	son	-1	1	y	1.0475
495.8956	0.2	mbntjc	50	verb	phrase	1	8	nomatch	son	-1	1	y	1.0475
496.0955000000001	0.0	+	50	verb	phrase	1	9	nomatch	son	-1	1	y	1.0475
496.4953	0.2	vite	50	verb	phrase	1	10	nomatch	son	-1	1	y	1.0475
496.69530000000003	0.0	+	50	verb	phrase	1	11	nomatch	son	-1	1	y	1.0475
497.09499999999997	0.0	+	50	verb	phrase	1	12	nomatch	son	-1	1	y	1.0475
499.09420000000006	0.0	SON	50	verb	phrase	1	13	nomatch	son	-1	1	y	1.0475
500.1869	0.0	+	50	verb	phrase	1	14	nomatch	son	-1	1	y	1.0475
500.14170000000007	0.0	[response]	50	verb	phrase	1	15	nomatch	son	-1	1	y	1.0475
501.4799	0.0	+	51	verb	list	4	1	match	grand	4	1	p	1.3041000000000003
502.0396	0.2	xdrf	51	verb	list	4	2	match	grand	4	1	p	1.3041000000000003
502.23960000000005	0.0	+	51	verb	list	4	3	match	grand	4	1	p	1.3041000000000003
502.63939999999997	0.2	vers	51	verb	list	4	4	match	grand	4	1	p	1.3041000000000003
502.83930000000004	0.0	+	51	verb	list	4	5	match	grand	4	1	p	1.3041000000000003
503.23910000000006	0.2	peut	51	verb	list	4	6	match	grand	4	1	p	1.3041000000000003
503.4391	0.0	+	51	verb	list	4	7	match	grand	4	1	p	1.3041000000000003
503.83880000000005	0.2	grand	51	verb	list	4	8	match	grand	4	1	p	1.3041000000000003
504.0388	0.0	+	51	verb	list	4	9	match	grand	4	1	p	1.3041000000000003
504.4386	0.2	jongler	51	verb	list	4	10	match	grand	4	1	p	1.3041000000000003
504.6519	0.0	+	51	verb	list	4	11	match	grand	4	1	p	1.3041000000000003
505.05170000000004	0.0	+	51	verb	list	4	12	match	grand	4	1	p	1.3041000000000003
507.0509	0.0	GRAND	51	verb	list	4	13	match	grand	4	1	p	1.3041000000000003
508.4101	0.0	+	51	verb	list	4	14	match	grand	4	1	p	1.3041000000000003
508.35499999999996	0.0	[response]	51	verb	list	4	15	match	grand	4	1	p	1.3041000000000003
509.43649999999997	0.0	+	52	noun	phrase	4	1	nomatch	tôt	-1	1	y	0.99139
509.9962	0.2	lzsxbc	52	noun	phrase	4	2	nomatch	tôt	-1	1	y	0.99139
510.19620000000003	0.0	+	52	noun	phrase	4	3	nomatch	tôt	-1	1	y	0.99139
510.59600000000006	0.2	avec	52	noun	phrase	4	4	nomatch	tôt	-1	1	y	0.99139
510.7959	0.0	+	52	noun	phrase	4	5	nomatch	tôt	-1	1	y	0.99139
511.19570000000004	0.2	son	52	noun	phrase	4	6	nomatch	tôt	-1	1	y	0.99139
511.3956	0.0	+	52	noun	phrase	4	7	nomatch	tôt	-1	1	y	0.99139
511.7955	0.2	beau	52	noun	phrase	4	8	nomatch	tôt	-1	1	y	0.99139
511.99539999999996	0.0	+	52	noun	phrase	4	9	nomatch	tôt	-1	1	y	0.99139
512.3951999999999	0.2	casier	52	noun	phrase	4	10	nomatch	tôt	-1	1	y	0.99139
512.5951	0.0	+	52	noun	phrase	4	11	nomatch	tôt	-1	1	y	0.99139
512.9948999999999	0.0	+	52	noun	phrase	4	12	nomatch	tôt	-1	1	y	0.99139
514.9941	0.0	TÔT	52	noun	phrase	4	13	nomatch	tôt	-1	1	y	0.99139
516.0335	0.0	+	52	noun	phrase	4	14	nomatch	tôt	-1	1	y	0.99139
515.9855000000001	0.0	[response]	52	noun	phrase	4	15	nomatch	tôt	-1	1	y	0.99139
517.3797999999999	0.0	+	53	verb	list	4	1	match	mon	3	1	p	1.3013
517.9395	0.2	kpb	53	verb	list	4	2	match	mon	3	1	p	1.3013
518.1393999999999	0.0	+	53	verb	list	4	3	match	mon	3	1	p	1.3013
518.5392999999999	0.2	yves	53	verb	list	4	4	match	mon	3	1	p	1.3013
518.7392	0.0	+	53	verb	list	4	5	match	mon	3	1	p	1.3013
519.139	0.2	mon	53	verb	list	4	6	match	mon	3	1	p	1.3013
519.3389	0.0	+	53	verb	list	4	7	match	mon	3	1	p	1.3013
519.7388	0.2	jongler	53	verb	list	4	8	match	mon	3	1	p	1.3013
519.9386999999999	0.0	+	53	verb	list	4	9	match	mon	3	1	p	1.3013
520.3517999999999	0.2	bleu	53	verb	list	4	10	match	mon	3	1	p	1.3013
520.5517	0.0	+	53	verb	list	4	11	match	mon	3	1	p	1.3013
520.9516	0.0	+	53	verb	list	4	12	match	mon	3	1	p	1.3013
522.9507	0.0	MON	53	verb	list	4	13	match	mon	3	1	p	1.3013
524.2967	0.0	+	53	verb	list	4	14	match	mon	3	1	p	1.3013
524.2520999999999	0.0	[response]	53	verb	list	4	15	match	mon	3	1	p	1.3013
525.3363999999999	0.0	+	54	verb	phrase	2	1	nomatch	nouveau	-1	1	y	1.1146000000000003
525.8961999999999	0.2	ptcnx	54	verb	phrase	2	2	nomatch	nouveau	-1	1	y	1.1146000000000003
526.0961	0.0	+	54	verb	phrase	2	3	nomatch	nouveau	-1	1	y	1.1146000000000003
526.4959	0.2	vhrw	54	verb	phrase	2	4	nomatch	nouveau	-1	1	y	1.1146000000000003
526.6958	0.0	+	54	verb	phrase	2	5	nomatch	nouveau	-1	1	y	1.1146000000000003
527.0957	0.2	szxj	54	verb	phrase	2	6	nomatch	nouveau	-1	1	y	1.1146000000000003
527.2955999999999	0.0	+	54	verb	phrase	2	7	nomatch	nouveau	-1	1	y	1.1146000000000003
527.6954	0.2	galoper	54	verb	phrase	2	8	nomatch	nouveau	-1	1	y	1.1146000000000003
527.8952999999999	0.0	+	54	verb	phrase	2	9	nomatch	nouveau	-1	1	y	1.1146000000000003
528.2950999999999	0.2	vite	54	verb	phrase	2	10	nomatch	nouveau	-1	1	y	1.1146000000000003
528.495	0.0	+	54	verb	phrase	2	11	nomatch	nouveau	-1	1	y	1.1146000000000003
528.8949	0.0	+	54	verb	phrase	2	12	nomatch	nouveau	-1	1	y	1.1146000000000003
530.894	0.0	NOUVEAU	54	verb	phrase	2	13	nomatch	nouveau	-1	1	y	1.1146000000000003
532.0535	0.0	+	54	verb	phrase	2	14	nomatch	nouveau	-1	1	y	1.1146000000000003
532.0086	0.0	[response]	54	verb	phrase	2	15	nomatch	nouveau	-1	1	y	1.1146000000000003
533.2796999999999	0.0	+	55	verb	list	2	1	match	grand	4	1	p	0.96636
533.8394	0.2	pdqtz	55	verb	list	2	2	match	grand	4	1	p	0.96636
534.0394	0.0	+	55	verb	list	2	3	match	grand	4	1	p	0.96636
534.4391999999999	0.2	mvsc	55	verb	list	2	4	match	grand	4	1	p	0.96636
534.6391	0.0	+	55	verb	list	2	5	match	grand	4	1	p	0.96636
535.0389	0.2	trzk	55	verb	list	2	6	match	grand	4	1	p	0.96636
535.2388	0.0	+	55	verb	list	2	7	match	grand	4	1	p	0.96636
535.6386	0.2	grand	55	verb	list	2	8	match	grand	4	1	p	0.96636
535.8519	0.0	+	55	verb	list	2	9	match	grand	4	1	p	0.96636
536.2516999999999	0.2	patiner	55	verb	list	2	10	match	grand	4	1	p	0.96636
536.4516	0.0	+	55	verb	list	2	11	match	grand	4	1	p	0.96636
536.8514	0.0	+	55	verb	list	2	12	match	grand	4	1	p	0.96636
538.8507	0.0	GRAND	55	verb	list	2	13	match	grand	4	1	p	0.96636
539.8634	0.0	+	55	verb	list	2	14	match	grand	4	1	p	0.96636
539.8170000000001	0.0	[response]	55	verb	list	2	15	match	grand	4	1	p	0.96636
541.2362999999999	0.0	+	56	verb	list	2	1	match	nouveau	4	0	TIMEOUT	-1.0
541.7960999999999	0.2	lszg	56	verb	list	2	2	match	nouveau	4	0	TIMEOUT	-1.0
541.996	0.0	+	56	verb	list	2	3	match	nouveau	4	0	TIMEOUT	-1.0
542.3958	0.2	bmnq	56	verb	list	2	4	match	nouveau	4	0	TIMEOUT	-1.0
542.5957	0.0	+	56	verb	list	2	5	match	nouveau	4	0	TIMEOUT	-1.0
542.9955	0.2	szxj	56	verb	list	2	6	match	nouveau	4	0	TIMEOUT	-1.0
543.1954	0.0	+	56	verb	list	2	7	match	nouveau	4	0	TIMEOUT	-1.0
543.5953	0.2	nouveau	56	verb	list	2	8	match	nouveau	4	0	TIMEOUT	-1.0
543.7951999999999	0.0	+	56	verb	list	2	9	match	nouveau	4	0	TIMEOUT	-1.0
544.1949999999999	0.2	parader	56	verb	list	2	10	match	nouveau	4	0	TIMEOUT	-1.0
544.3949	0.0	+	56	verb	list	2	11	match	nouveau	4	0	TIMEOUT	-1.0
544.7948	0.0	+	56	verb	list	2	12	match	nouveau	4	0	TIMEOUT	-1.0
546.7939	0.0	NOUVEAU	56	verb	list	2	13	match	nouveau	4	0	TIMEOUT	-1.0
549.1794	0.0	+	57	verb	phrase	3	1	nomatch	vite	-1	1	y	1.4049
549.7926	0.2	tzjqhnw	57	verb	phrase	3	2	nomatch	vite	-1	1	y	1.4049
549.9925999999999	0.0	+	57	verb	phrase	3	3	nomatch	vite	-1	1	y	1.4049
550.3924	0.2	bdrm	57	verb	phrase	3	4	nomatch	vite	-1	1	y	1.4049
550.5922999999999	0.0	+	57	verb	phrase	3	5	nomatch	vite	-1	1	y	1.4049
550.9920999999999	0.2	doit	57	verb	phrase	3	6	nomatch	vite	-1	1	y	1.4049
551.192	0.0	+	57	verb	phrase	3	7	nomatch	vite	-1	1	y	1.4049
551.5919	0.2	rouler	57	verb	phrase	3	8	nomatch	vite	-1	1	y	1.4049
551.7918	0.0	+	57	verb	phrase	3	9	nomatch	vite	-1	1	y	1.4049
552.1916	0.2	tôt	57	verb	phrase	3	10	nomatch	vite	-1	1	y	1.4049
552.3915	0.0	+	57	verb	phrase	3	11	nomatch	vite	-1	1	y	1.4049
552.7914	0.0	+	57	verb	phrase	3	12	nomatch	vite	-1	1	y	1.4049
554.7905	0.0	VITE	57	verb	phrase	3	13	nomatch	vite	-1	1	y	1.4049
556.2432	0.0	+	57	verb	phrase	3	14	nomatch	vite	-1	1	y	1.4049
556.1953	0.0	[response]	57	verb	phrase	3	15	nomatch	vite	-1	1	y	1.4049
565.1861	0.0	+	58	noun	list	1	1	nomatch	rocher	-1	1	y	1.6779
565.7459	0.2	rgqf	58	noun	list	1	2	nomatch	rocher	-1	1	y	1.6779
565.9458	0.0	+	58	noun	list	1	3	nomatch	rocher	-1	1	y	1.6779
566.3456	0.2	srp	58	noun	list	1	4	nomatch	rocher	-1	1	y	1.6779
566.5455	0.0	+	58	noun	list	1	5	nomatch	rocher	-1	1	y	1.6779
566.9453	0.2	qmj	58	noun	list	1	6	nomatch	rocher	-1	1	y	1.6779
567.1452999999999	0.0	+	58	noun	list	1	7	nomatch	rocher	-1	1	y	1.6779
567.5450999999999	0.2	svqkdtfc	58	noun	list	1	8	nomatch	rocher	-1	1	y	1.6779
567.745	0.0	+	58	noun	list	1	9	nomatch	rocher	-1	1	y	1.6779
568.1447999999999	0.2	panier	58	noun	list	1	10	nomatch	rocher	-1	1	y	1.6779
568.3447	0.0	+	58	noun	list	1	11	nomatch	rocher	-1	1	y	1.6779
568.7446	0.0	+	58	noun	list	1	12	nomatch	rocher	-1	1	y	1.6779
570.7437	0.0	ROCHER	58	noun	list	1	13	nomatch	rocher	-1	1	y	1.6779
572.4762	0.0	+	58	noun	list	1	14	nomatch	rocher	-1	1	y	1.6779
572.4216	0.0	[response]	58	noun	list	1	15	nomatch	rocher	-1	1	y	1.6779
573.1293999999999	0.0	+	59	noun	phrase	1	1	match	grenier	5	1	p	1.1484
573.6890999999999	0.2	vdpzt	59	noun	phrase	1	2	match	grenier	5	1	p	1.1484
573.8891	0.0	+	59	noun	phrase	1	3	match	grenier	5	1	p	1.1484
574.2889	0.2	zhdl	59	noun	phrase	1	4	match	grenier	5	1	p	1.1484
574.4888	0.0	+	59	noun	phrase	1	5	match	grenier	5	1	p	1.1484
574.8884999999999	0.2	zqgk	59	noun	phrase	1	6	match	grenier	5	1	p	1.1484
575.0885999999999	0.0	+	59	noun	phrase	1	7	match	grenier	5	1	p	1.1484
575.4884	0.2	lzfn	59	noun	phrase	1	8	match	grenier	5	1	p	1.1484
575.7016	0.0	+	59	noun	phrase	1	9	match	grenier	5	1	p	1.1484
576.1014	0.2	grenier	59	noun	phrase	1	10	match	grenier	5	1	p	1.1484
576.3013	0.0	+	59	noun	phrase	1	11	match	grenier	5	1	p	1.1484
576.7012	0.0	+	59	noun	phrase	1	12	match	grenier	5	1	p	1.1484
578.7004	0.0	GRENIER	59	noun	phrase	1	13	match	grenier	5	1	p	1.1484
579.8996999999999	0.0	+	59	noun	phrase	1	14	match	grenier	5	1	p	1.1484
579.8488	0.0	[response]	59	noun	phrase	1	15	match	grenier	5	1	p	1.1484
581.086	0.0	+	60	verb	list	2	1	nomatch	mon	-1	1	y	0.92144
581.6458	0.2	vbtsr	60	verb	list	2	2	nomatch	mon	-1	1	y	0.92144
581.8457	0.0	+	60	verb	list	2	3	nomatch	mon	-1	1	y	0.92144
582.2455	0.2	xhj	60	verb	list	2	4	nomatch	mon	-1	1	y	0.92144
582.4454999999999	0.0	+	60	verb	list	2	5	nomatch	mon	-1	1	y	0.92144
582.8452	0.2	trzk	60	verb	list	2	6	nomatch	mon	-1	1	y	0.92144
583.0450999999999	0.0	+	60	verb	list	2	7	nomatch	mon	-1	1	y	0.92144
583.4449999999999	0.2	nouveau	60	verb	list	2	8	nomatch	mon	-1	1	y	0.92144
583.6449	0.0	+	60	verb	list	2	9	nomatch	mon	-1	1	y	0.92144
584.0446999999999	0.2	jongler	60	verb	list	2	10	nomatch	mon	-1	1	y	0.92144
584.2447	0.0	+	60	verb	list	2	11	nomatch	mon	-1	1	y	0.92144
584.6445	0.0	+	60	verb	list	2	12	nomatch	mon	-1	1	y	0.92144
586.6436	0.0	MON	60	verb	list	2	13	nomatch	mon	-1	1	y	0.92144
587.6165	0.0	+	60	verb	list	2	14	nomatch	mon	-1	1	y	0.92144
587.5650999999999	0.0	[response]	60	verb	list	2	15	nomatch	mon	-1	1	y	0.92144
589.0292999999999	0.0	+	61	verb	phrase	1	1	nomatch	blanc	-1	1	y	0.95243
589.5889999999999	0.2	nhsz	61	verb	phrase	1	2	nomatch	blanc	-1	1	y	0.95243
589.789	0.0	+	61	verb	phrase	1	3	nomatch	blanc	-1	1	y	0.95243
590.1888	0.2	bdrm	61	verb	phrase	1	4	nomatch	blanc	-1	1	y	0.95243
590.3887	0.0	+	61	verb	phrase	1	5	nomatch	blanc	-1	1	y	0.95243
590.8018999999999	0.2	kq	61	verb	phrase	1	6	nomatch	blanc	-1	1	y	0.95243
591.0018	0.0	+	61	verb	phrase	1	7	nomatch	blanc	-1	1	y	0.95243
591.4015999999999	0.2	mjwg	61	verb	phrase	1	8	nomatch	blanc	-1	1	y	0.95243
591.6015	0.0	+	61	verb	phrase	1	9	nomatch	blanc	-1	1	y	0.95243
592.0013	0.2	parader	61	verb	phrase	1	10	nomatch	blanc	-1	1	y	0.95243
592.2013	0.0	+	61	verb	phrase	1	11	nomatch	blanc	-1	1	y	0.95243
592.6011	0.0	+	61	verb	phrase	1	12	nomatch	blanc	-1	1	y	0.95243
594.6002	0.0	BLANC	61	verb	phrase	1	13	nomatch	blanc	-1	1	y	0.95243
595.5997	0.0	+	61	verb	phrase	1	14	nomatch	blanc	-1	1	y	0.95243
595.5527000000001	0.0	[response]	61	verb	phrase	1	15	nomatch	blanc	-1	1	y	0.95243
596.9859	0.0	+	62	verb	list	1	1	nomatch	avec	-1	1	y	1.5989000000000002
597.5457	0.2	btgnzxk	62	verb	list	1	2	nomatch	avec	-1	1	y	1.5989000000000002
597.7456	0.0	+	62	verb	list	1	3	nomatch	avec	-1	1	y	1.5989000000000002
598.1454	0.2	lzdr	62	verb	list	1	4	nomatch	avec	-1	1	y	1.5989000000000002
598.3453	0.0	+	62	verb	list	1	5	nomatch	avec	-1	1	y	1.5989000000000002
598.7451	0.2	zqgk	62	verb	list	1	6	nomatch	avec	-1	1	y	1.5989000000000002
598.9450999999999	0.0	+	62	verb	list	1	7	nomatch	avec	-1	1	y	1.5989000000000002
599.3448999999999	0.2	lfsz	62	verb	list	1	8	nomatch	avec	-1	1	y	1.5989000000000002
599.5448	0.0	+	62	verb	list	1	9	nomatch	avec	-1	1	y	1.5989000000000002
599.9445999999999	0.2	plonger	62	verb	list	1	10	nomatch	avec	-1	1	y	1.5989000000000002
600.1445	0.0	+	62	verb	list	1	11	nomatch	avec	-1	1	y	1.5989000000000002
600.5444	0.0	+	62	verb	list	1	12	nomatch	avec	-1	1	y	1.5989000000000002
602.5436	0.0	AVEC	62	verb	list	1	13	nomatch	avec	-1	1	y	1.5989000000000002
604.1959999999999	0.0	+	62	verb	list	1	14	nomatch	avec	-1	1	y	1.5989000000000002
604.1424999999999	0.0	[response]	62	verb	list	1	15	nomatch	avec	-1	1	y	1.5989000000000002
604.9291	0.0	+	63	verb	phrase	2	1	nomatch	jongler	-1	1	y	1.3216
605.4889	0.2	fxtj	63	verb	phrase	2	2	nomatch	jongler	-1	1	y	1.3216
605.6889	0.0	+	63	verb	phrase	2	3	nomatch	jongler	-1	1	y	1.3216
606.0887	0.2	bdrm	63	verb	phrase	2	4	nomatch	jongler	-1	1	y	1.3216
606.2886	0.0	+	63	verb	phrase	2	5	nomatch	jongler	-1	1	y	1.3216
606.7017999999999	0.2	kq	63	verb	phrase	2	6	nomatch	jongler	-1	1	y	1.3216
606.9017	0.0	+	63	verb	phrase	2	7	nomatch	jongler	-1	1	y	1.3216
607.3014999999999	0.2	beaucoup	63	verb	phrase	2	8	nomatch	jongler	-1	1	y	1.3216
607.5014	0.0	+	63	verb	phrase	2	9	nomatch	jongler	-1	1	y	1.3216
607.9013	0.2	nager	63	verb	phrase	2	10	nomatch	jongler	-1	1	y	1.3216
608.1012	0.0	+	63	verb	phrase	2	11	nomatch	jongler	-1	1	y	1.3216
608.501	0.0	+	63	verb	phrase	2	12	nomatch	jongler	-1	1	y	1.3216
610.5002	0.0	JONGLER	63	verb	phrase	2	13	nomatch	jongler	-1	1	y	1.3216
611.8727	0.0	+	63	verb	phrase	2	14	nomatch	jongler	-1	1	y	1.3216
611.8218	0.0	[response]	63	verb	phrase	2	15	nomatch	jongler	-1	1	y	1.3216
612.8857999999999	0.0	+	64	noun	phrase	2	1	match	cendrier	5	1	p	0.88897
613.4456	0.2	dnw	64	noun	phrase	2	2	match	cendrier	5	1	p	0.88897
613.6455	0.0	+	64	noun	phrase	2	3	match	cendrier	5	1	p	0.88897
614.0453	0.2	hqkz	64	noun	phrase	2	4	match	cendrier	5	1	p	0.88897
614.2452	0.0	+	64	noun	phrase	2	5	match	cendrier	5	1	p	0.88897
614.6451	0.2	qmj	64	noun	phrase	2	6	match	cendrier	5	1	p	0.88897
614.8449999999999	0.0	+	64	noun	phrase	2	7	match	cendrier	5	1	p	0.88897
615.2447999999999	0.2	beau	64	noun	phrase	2	8	match	cendrier	5	1	p	0.88897
615.4447	0.0	+	64	noun	phrase	2	9	match	cendrier	5	1	p	0.88897
615.8446	0.2	cendrier	64	noun	phrase	2	10	match	cendrier	5	1	p	0.88897
616.0445	0.0	+	64	noun	phrase	2	11	match	cendrier	5	1	p	0.88897
616.4443	0.0	+	64	noun	phrase	2	12	match	cendrier	5	1	p	0.88897
618.4434	0.0	CENDRIER	64	noun	phrase	2	13	match	cendrier	5	1	p	0.88897
619.3761999999999	0.0	+	64	noun	phrase	2	14	match	cendrier	5	1	p	0.88897
619.3324	0.0	[response]	64	noun	phrase	2	15	match	cendrier	5	1	p	0.88897
620.8290999999999	0.0	+	65	verb	list	1	1	match	grand	5	1	p	1.0881
621.3888999999999	0.2	czwx	65	verb	list	1	2	match	grand	5	1	p	1.0881
621.5888	0.0	+	65	verb	list	1	3	match	grand	5	1	p	1.0881
621.9885999999999	0.2	mvsc	65	verb	list	1	4	match	grand	5	1	p	1.0881
622.2018999999999	0.0	+	65	verb	list	1	5	match	grand	5	1	p	1.0881
622.6016999999999	0.2	szxj	65	verb	list	1	6	match	grand	5	1	p	1.0881
622.8016	0.0	+	65	verb	list	1	7	match	grand	5	1	p	1.0881
623.2013	0.2	dxzsrbm	65	verb	list	1	8	match	grand	5	1	p	1.0881
623.4013	0.0	+	65	verb	list	1	9	match	grand	5	1	p	1.0881
623.8012	0.2	grand	65	verb	list	1	10	match	grand	5	1	p	1.0881
624.001	0.0	+	65	verb	list	1	11	match	grand	5	1	p	1.0881
624.4009	0.0	+	65	verb	list	1	12	match	grand	5	1	p	1.0881
626.4001	0.0	GRAND	65	verb	list	1	13	match	grand	5	1	p	1.0881
627.5328	0.0	+	65	verb	list	1	14	match	grand	5	1	p	1.0881
627.4880999999999	0.0	[response]	65	verb	list	1	15	match	grand	5	1	p	1.0881
628.7858	0.0	+	66	verb	list	1	1	nomatch	casier	-1	1	y	0.90954
629.3455	0.2	dhg	66	verb	list	1	2	nomatch	casier	-1	1	y	0.90954
629.5454	0.0	+	66	verb	list	1	3	nomatch	casier	-1	1	y	0.90954
629.9452	0.2	hqkz	66	verb	list	1	4	nomatch	casier	-1	1	y	0.90954
630.1451	0.0	+	66	verb	list	1	5	nomatch	casier	-1	1	y	0.90954
630.545	0.2	trzk	66	verb	list	1	6	nomatch	casier	-1	1	y	0.90954
630.7448999999999	0.0	+	66	verb	list	1	7	nomatch	casier	-1	1	y	0.90954
631.1447	0.2	dqjh	66	verb	list	1	8	nomatch	casier	-1	1	y	0.90954
631.3446	0.0	+	66	verb	list	1	9	nomatch	casier	-1	1	y	0.90954
631.7445	0.2	galoper	66	verb	list	1	10	nomatch	casier	-1	1	y	0.90954
631.9444	0.0	+	66	verb	list	1	11	nomatch	casier	-1	1	y	0.90954
632.3442	0.0	+	66	verb	list	1	12	nomatch	casier	-1	1	y	0.90954
634.3434	0.0	CASIER	66	verb	list	1	13	nomatch	casier	-1	1	y	0.90954
635.3027999999999	0.0	+	66	verb	list	1	14	nomatch	casier	-1	1	y	0.90954
635.2529	0.0	[response]	66	verb	list	1	15	nomatch	casier	-1	1	y	0.90954
636.7291	0.0	+	67	noun	list	2	1	nomatch	beaucoup	-1	1	y	1.3323
637.2887	0.2	hxcdt	67	noun	list	2	2	nomatch	beaucoup	-1	1	y	1.3323
637.4887	0.0	+	67	noun	list	2	3	nomatch	beaucoup	-1	1	y	1.3323
637.9019	0.2	bdrm	67	noun	list	2	4	nomatch	beaucoup	-1	1	y	1.3323
638.1017999999999	0.0	+	67	noun	list	2	5	nomatch	beaucoup	-1	1	y	1.3323
638.5015	0.2	zqgk	67	noun	list	2	6	nomatch	beaucoup	-1	1	y	1.3323
638.7015	0.0	+	67	noun	list	2	7	nomatch	beaucoup	-1	1	y	1.3323
639.1012999999999	0.2	plus	67	noun	list	2	8	nomatch	beaucoup	-1	1	y	1.3323
639.3013	0.0	+	67	noun	list	2	9	nomatch	beaucoup	-1	1	y	1.3323
639.7011	0.2	cendrier	67	noun	list	2	10	nomatch	beaucoup	-1	1	y	1.3323
639.9010999999999	0.0	+	67	noun	list	2	11	nomatch	beaucoup	-1	1	y	1.3323
640.3008	0.0	+	67	noun	list	2	12	nomatch	beaucoup	-1	1	y	1.3323
642.3	0.0	BEAUCOUP	67	noun	list	2	13	nomatch	beaucoup	-1	1	y	1.3323
643.6859999999999	0.0	+	67	noun	list	2	14	nomatch	beaucoup	-1	1	y	1.3323
643.6322	0.0	[response]	67	noun	list	2	15	nomatch	beaucoup	-1	1	y	1.3323
644.6855999999999	0.0	+	68	verb	phrase	2	1	nomatch	rouler	-1	1	y	1.8257
645.2453999999999	0.2	rnfm	68	verb	phrase	2	2	nomatch	rouler	-1	1	y	1.8257
645.4456	0.0	+	68	verb	phrase	2	3	nomatch	rouler	-1	1	y	1.8257
645.8451	0.2	trvp	68	verb	phrase	2	4	nomatch	rouler	-1	1	y	1.8257
646.0450999999999	0.0	+	68	verb	phrase	2	5	nomatch	rouler	-1	1	y	1.8257
646.4449	0.2	kq	68	verb	phrase	2	6	nomatch	rouler	-1	1	y	1.8257
646.6447999999999	0.0	+	68	verb	phrase	2	7	nomatch	rouler	-1	1	y	1.8257
647.0446	0.2	chasser	68	verb	phrase	2	8	nomatch	rouler	-1	1	y	1.8257
647.2445	0.0	+	68	verb	phrase	2	9	nomatch	rouler	-1	1	y	1.8257
647.6443999999999	0.2	tôt	68	verb	phrase	2	10	nomatch	rouler	-1	1	y	1.8257
647.8443	0.0	+	68	verb	phrase	2	11	nomatch	rouler	-1	1	y	1.8257
648.2441	0.0	+	68	verb	phrase	2	12	nomatch	rouler	-1	1	y	1.8257
650.2433	0.0	ROULER	68	verb	phrase	2	13	nomatch	rouler	-1	1	y	1.8257
652.1224	0.0	+	68	verb	phrase	2	14	nomatch	rouler	-1	1	y	1.8257
652.069	0.0	[response]	68	verb	phrase	2	15	nomatch	rouler	-1	1	y	1.8257
668.6354	0.0	+	69	noun	phrase	4	1	match	sur	2	1	p	1.0438
669.1952	0.2	zxl	69	noun	phrase	4	2	match	sur	2	1	p	1.0438
669.3951	0.0	+	69	noun	phrase	4	3	match	sur	2	1	p	1.0438
669.7949	0.2	sur	69	noun	phrase	4	4	match	sur	2	1	p	1.0438
669.9947999999999	0.0	+	69	noun	phrase	4	5	match	sur	2	1	p	1.0438
670.3947	0.2	leur	69	noun	phrase	4	6	match	sur	2	1	p	1.0438
670.5946	0.0	+	69	noun	phrase	4	7	match	sur	2	1	p	1.0438
670.9943999999999	0.2	tablier	69	noun	phrase	4	8	match	sur	2	1	p	1.0438
671.1943	0.0	+	69	noun	phrase	4	9	match	sur	2	1	p	1.0438
671.5940999999999	0.2	blanc	69	noun	phrase	4	10	match	sur	2	1	p	1.0438
671.7941	0.0	+	69	noun	phrase	4	11	match	sur	2	1	p	1.0438
672.1939	0.0	+	69	noun	phrase	4	12	match	sur	2	1	p	1.0438
674.193	0.0	SUR	69	noun	phrase	4	13	match	sur	2	1	p	1.0438
675.2858	0.0	+	69	noun	phrase	4	14	match	sur	2	1	p	1.0438
675.2369	0.0	[response]	69	noun	phrase	4	15	match	sur	2	1	p	1.0438
676.5786999999999	0.0	+	70	verb	phrase	3	1	match	doit	3	1	p	1.031
677.1383999999999	0.2	dfnl	70	verb	phrase	3	2	match	doit	3	1	p	1.031
677.3516999999999	0.0	+	70	verb	phrase	3	3	match	doit	3	1	p	1.031
677.7515	0.2	bdrm	70	verb	phrase	3	4	match	doit	3	1	p	1.031
677.9513999999999	0.0	+	70	verb	phrase	3	5	match	doit	3	1	p	1.031
678.3512999999999	0.2	doit	70	verb	phrase	3	6	match	doit	3	1	p	1.031
678.5512	0.0	+	70	verb	phrase	3	7	match	doit	3	1	p	1.031
678.9509999999999	0.2	beaucoup	70	verb	phrase	3	8	match	doit	3	1	p	1.031
679.1509	0.0	+	70	verb	phrase	3	9	match	doit	3	1	p	1.031
679.5508	0.2	rouler	70	verb	phrase	3	10	match	doit	3	1	p	1.031
679.7506999999999	0.0	+	70	verb	phrase	3	11	match	doit	3	1	p	1.031
680.1505	0.0	+	70	verb	phrase	3	12	match	doit	3	1	p	1.031
682.1496	0.0	DOIT	70	verb	phrase	3	13	match	doit	3	1	p	1.031
683.2291	0.0	+	70	verb	phrase	3	14	match	doit	3	1	p	1.031
683.1805999999999	0.0	[response]	70	verb	phrase	3	15	match	doit	3	1	p	1.031
684.5354	0.0	+	71	noun	phrase	3	1	match	blanc	5	1	p	1.0751
685.0951	0.2	hjgndbl	71	noun	phrase	3	2	match	blanc	5	1	p	1.0751
685.295	0.0	+	71	noun	phrase	3	3	match	blanc	5	1	p	1.0751
685.6948	0.2	mvsc	71	noun	phrase	3	4	match	blanc	5	1	p	1.0751
685.8947	0.0	+	71	noun	phrase	3	5	match	blanc	5	1	p	1.0751
686.2945	0.2	mon	71	noun	phrase	3	6	match	blanc	5	1	p	1.0751
686.4945	0.0	+	71	noun	phrase	3	7	match	blanc	5	1	p	1.0751
686.8942999999999	0.2	casier	71	noun	phrase	3	8	match	blanc	5	1	p	1.0751
687.0942	0.0	+	71	noun	phrase	3	9	match	blanc	5	1	p	1.0751
687.4939999999999	0.2	blanc	71	noun	phrase	3	10	match	blanc	5	1	p	1.0751
687.694	0.0	+	71	noun	phrase	3	11	match	blanc	5	1	p	1.0751
688.0938	0.0	+	71	noun	phrase	3	12	match	blanc	5	1	p	1.0751
690.0929	0.0	BLANC	71	noun	phrase	3	13	match	blanc	5	1	p	1.0751
691.2124	0.0	+	71	noun	phrase	3	14	match	blanc	5	1	p	1.0751
691.1680000000001	0.0	[response]	71	noun	phrase	3	15	match	blanc	5	1	p	1.0751
692.4785999999999	0.0	+	72	verb	list	1	1	match	bleu	5	0	y	2.0759
693.0517	0.2	pgwvr	72	verb	list	1	2	match	bleu	5	0	y	2.0759
693.2515999999999	0.0	+	72	verb	list	1	3	match	bleu	5	0	y	2.0759
693.6514999999999	0.2	dnbc	72	verb	list	1	4	match	bleu	5	0	y	2.0759
693.8514	0.0	+	72	verb	list	1	5	match	bleu	5	0	y	2.0759
694.2511999999999	0.2	qmj	72	verb	list	1	6	match	bleu	5	0	y	2.0759
694.4512	0.0	+	72	verb	list	1	7	match	bleu	5	0	y	2.0759
694.8508999999999	0.2	xfpwgcb	72	verb	list	1	8	match	bleu	5	0	y	2.0759
695.0509	0.0	+	72	verb	list	1	9	match	bleu	5	0	y	2.0759
695.4507	0.2	bleu	72	verb	list	1	10	match	bleu	5	0	y	2.0759
695.6505999999999	0.0	+	72	verb	list	1	11	match	bleu	5	0	y	2.0759
696.0504	0.0	+	72	verb	list	1	12	match	bleu	5	0	y	2.0759
698.0495999999999	0.0	BLEU	72	verb	list	1	13	match	bleu	5	0	y	2.0759
700.1686	0.0	+	72	verb	list	1	14	match	bleu	5	0	y	2.0759
700.1255	0.0	[response]	72	verb	list	1	15	match	bleu	5	0	y	2.0759
700.4353	0.0	+	73	verb	phrase	3	1	nomatch	beaucoup	-1	1	y	0.94156
700.995	0.2	xhdqnps	73	verb	phrase	3	2	nomatch	beaucoup	-1	1	y	0.94156
701.1948	0.0	+	73	verb	phrase	3	3	nomatch	beaucoup	-1	1	y	0.94156
701.5947	0.2	zrmn	73	verb	phrase	3	4	nomatch	beaucoup	-1	1	y	0.94156
701.7946	0.0	+	73	verb	phrase	3	5	nomatch	beaucoup	-1	1	y	0.94156
702.1945	0.2	va	73	verb	phrase	3	6	nomatch	beaucoup	-1	1	y	0.94156
702.3943999999999	0.0	+	73	verb	phrase	3	7	nomatch	beaucoup	-1	1	y	0.94156
702.7941999999999	0.2	plus	73	verb	phrase	3	8	nomatch	beaucoup	-1	1	y	0.94156
702.9941	0.0	+	73	verb	phrase	3	9	nomatch	beaucoup	-1	1	y	0.94156
703.394	0.2	jongler	73	verb	phrase	3	10	nomatch	beaucoup	-1	1	y	0.94156
703.5939	0.0	+	73	verb	phrase	3	11	nomatch	beaucoup	-1	1	y	0.94156
703.9937	0.0	+	73	verb	phrase	3	12	nomatch	beaucoup	-1	1	y	0.94156
705.9929	0.0	BEAUCOUP	73	verb	phrase	3	13	nomatch	beaucoup	-1	1	y	0.94156
706.9791	0.0	+	73	verb	phrase	3	14	nomatch	beaucoup	-1	1	y	0.94156
706.9344	0.0	[response]	73	verb	phrase	3	15	nomatch	beaucoup	-1	1	y	0.94156
708.3919	0.0	+	74	noun	list	2	1	match	rocher	4	1	p	0.79122
708.9516	0.2	lrqfpx	74	noun	list	2	2	match	rocher	4	1	p	0.79122
709.1514999999999	0.0	+	74	noun	list	2	3	match	rocher	4	1	p	0.79122
709.5513	0.2	zhdl	74	noun	list	2	4	match	rocher	4	1	p	0.79122
709.7511999999999	0.0	+	74	noun	list	2	5	match	rocher	4	1	p	0.79122
710.151	0.2	trzk	74	noun	list	2	6	match	rocher	4	1	p	0.79122
710.351	0.0	+	74	noun	list	2	7	match	rocher	4	1	p	0.79122
710.7507999999999	0.2	rocher	74	noun	list	2	8	match	rocher	4	1	p	0.79122
710.9508	0.0	+	74	noun	list	2	9	match	rocher	4	1	p	0.79122
711.3506	0.2	vite	74	noun	list	2	10	match	rocher	4	1	p	0.79122
711.5504999999999	0.0	+	74	noun	list	2	11	match	rocher	4	1	p	0.79122
711.9503	0.0	+	74	noun	list	2	12	match	rocher	4	1	p	0.79122
713.9495	0.0	ROCHER	74	noun	list	2	13	match	rocher	4	1	p	0.79122
714.7891	0.0	+	74	noun	list	2	14	match	rocher	4	1	p	0.79122
714.7407	0.0	[response]	74	noun	list	2	15	match	rocher	4	1	p	0.79122
716.3352	0.0	+	75	verb	phrase	1	1	nomatch	plus	-1	1	y	0.77642
716.8949	0.2	bzck	75	verb	phrase	1	2	nomatch	plus	-1	1	y	0.77642
717.0948	0.0	+	75	verb	phrase	1	3	nomatch	plus	-1	1	y	0.77642
717.4946	0.2	zrmn	75	verb	phrase	1	4	nomatch	plus	-1	1	y	0.77642
717.6945999999999	0.0	+	75	verb	phrase	1	5	nomatch	plus	-1	1	y	0.77642
718.0944	0.2	szxj	75	verb	phrase	1	6	nomatch	plus	-1	1	y	0.77642
718.2942999999999	0.0	+	75	verb	phrase	1	7	nomatch	plus	-1	1	y	0.77642
718.6940999999999	0.2	dprwlbn	75	verb	phrase	1	8	nomatch	plus	-1	1	y	0.77642
718.8941	0.0	+	75	verb	phrase	1	9	nomatch	plus	-1	1	y	0.77642
719.2939	0.2	trop	75	verb	phrase	1	10	nomatch	plus	-1	1	y	0.77642
719.4938	0.0	+	75	verb	phrase	1	11	nomatch	plus	-1	1	y	0.77642
719.8936	0.0	+	75	verb	phrase	1	12	nomatch	plus	-1	1	y	0.77642
721.8928	0.0	PLUS	75	verb	phrase	1	13	nomatch	plus	-1	1	y	0.77642
722.7189	0.0	+	75	verb	phrase	1	14	nomatch	plus	-1	1	y	0.77642
722.6691999999999	0.0	[response]	75	verb	phrase	1	15	nomatch	plus	-1	1	y	0.77642
724.2783999999999	0.0	+	76	verb	phrase	1	1	match	chasser	5	1	p	0.83427
724.8515	0.2	nsl	76	verb	phrase	1	2	match	chasser	5	1	p	0.83427
725.0514	0.0	+	76	verb	phrase	1	3	match	chasser	5	1	p	0.83427
725.4512	0.2	bdrm	76	verb	phrase	1	4	match	chasser	5	1	p	0.83427
725.6512	0.0	+	76	verb	phrase	1	5	match	chasser	5	1	p	0.83427
726.0509999999999	0.2	trzk	76	verb	phrase	1	6	match	chasser	5	1	p	0.83427
726.2509	0.0	+	76	verb	phrase	1	7	match	chasser	5	1	p	0.83427
726.6508	0.2	zqcm	76	verb	phrase	1	8	match	chasser	5	1	p	0.83427
726.8507	0.0	+	76	verb	phrase	1	9	match	chasser	5	1	p	0.83427
727.2505	0.2	chasser	76	verb	phrase	1	10	match	chasser	5	1	p	0.83427
727.4504	0.0	+	76	verb	phrase	1	11	match	chasser	5	1	p	0.83427
727.8502	0.0	+	76	verb	phrase	1	12	match	chasser	5	1	p	0.83427
729.8494	0.0	CHASSER	76	verb	phrase	1	13	match	chasser	5	1	p	0.83427
730.7288	0.0	+	76	verb	phrase	1	14	match	chasser	5	1	p	0.83427
730.6836	0.0	[response]	76	verb	phrase	1	15	match	chasser	5	1	p	0.83427
732.2351	0.0	+	77	verb	phrase	4	1	nomatch	beaucoup	-1	1	y	0.99556
732.7948	0.2	wsv	77	verb	phrase	4	2	nomatch	beaucoup	-1	1	y	0.99556
732.9947	0.0	+	77	verb	phrase	4	3	nomatch	beaucoup	-1	1	y	0.99556
733.3945	0.2	jean	77	verb	phrase	4	4	nomatch	beaucoup	-1	1	y	0.99556
733.5944999999999	0.0	+	77	verb	phrase	4	5	nomatch	beaucoup	-1	1	y	0.99556
733.9943	0.2	va	77	verb	phrase	4	6	nomatch	beaucoup	-1	1	y	0.99556
734.1941999999999	0.0	+	77	verb	phrase	4	7	nomatch	beaucoup	-1	1	y	0.99556
734.5939999999999	0.2	trop	77	verb	phrase	4	8	nomatch	beaucoup	-1	1	y	0.99556
734.7939	0.0	+	77	verb	phrase	4	9	nomatch	beaucoup	-1	1	y	0.99556
735.1938	0.2	galoper	77	verb	phrase	4	10	nomatch	beaucoup	-1	1	y	0.99556
735.3937	0.0	+	77	verb	phrase	4	11	nomatch	beaucoup	-1	1	y	0.99556
735.7935	0.0	+	77	verb	phrase	4	12	nomatch	beaucoup	-1	1	y	0.99556
737.7927	0.0	BEAUCOUP	77	verb	phrase	4	13	nomatch	beaucoup	-1	1	y	0.99556
738.8321	0.0	+	77	verb	phrase	4	14	nomatch	beaucoup	-1	1	y	0.99556
738.7882000000001	0.0	[response]	77	verb	phrase	4	15	nomatch	beaucoup	-1	1	y	0.99556
740.1917	0.0	+	78	verb	phrase	1	1	match	nager	5	0	TIMEOUT	-1.0
740.7514	0.2	rvwsglt	78	verb	phrase	1	2	match	nager	5	0	TIMEOUT	-1.0
740.9513	0.0	+	78	verb	phrase	1	3	match	nager	5	0	TIMEOUT	-1.0
741.3512	0.2	vhrw	78	verb	phrase	1	4	match	nager	5	0	TIMEOUT	-1.0
741.5510999999999	0.0	+	78	verb	phrase	1	5	match	nager	5	0	TIMEOUT	-1.0
741.9508999999999	0.2	trzk	78	verb	phrase	1	6	match	nager	5	0	TIMEOUT	-1.0
742.1509	0.0	+	78	verb	phrase	1	7	match	nager	5	0	TIMEOUT	-1.0
742.5507	0.2	fls	78	verb	phrase	1	8	match	nager	5	0	TIMEOUT	-1.0
742.7506	0.0	+	78	verb	phrase	1	9	match	nager	5	0	TIMEOUT	-1.0
743.1504	0.2	nager	78	verb	phrase	1	10	match	nager	5	0	TIMEOUT	-1.0
743.3503	0.0	+	78	verb	phrase	1	11	match	nager	5	0	TIMEOUT	-1.0
743.7502	0.0	+	78	verb	phrase	1	12	match	nager	5	0	TIMEOUT	-1.0
745.7493	0.0	NAGER	78	verb	phrase	1	13	match	nager	5	0	TIMEOUT	-1.0
748.1349	0.0	+	79	noun	phrase	1	1	nomatch	trop	-1	1	y	0.73367
748.7479999999999	0.2	xnwkrh	79	noun	phrase	1	2	nomatch	trop	-1	1	y	0.73367
748.948	0.0	+	79	noun	phrase	1	3	nomatch	trop	-1	1	y	0.73367
749.3478	0.2	xhj	79	noun	phrase	1	4	nomatch	trop	-1	1	y	0.73367
749.5477999999999	0.0	+	79	noun	phrase	1	5	nomatch	trop	-1	1	y	0.73367
749.9475	0.2	qmj	79	noun	phrase	1	6	nomatch	trop	-1	1	y	0.73367
750.1474	0.0	+	79	noun	phrase	1	7	nomatch	trop	-1	1	y	0.73367
750.5473	0.2	whkfvtc	79	noun	phrase	1	8	nomatch	trop	-1	1	y	0.73367
750.7471999999999	0.0	+	79	noun	phrase	1	9	nomatch	trop	-1	1	y	0.73367
751.1469	0.2	tablier	79	noun	phrase	1	10	nomatch	trop	-1	1	y	0.73367
751.3469	0.0	+	79	noun	phrase	1	11	nomatch	trop	-1	1	y	0.73367
751.7466999999999	0.0	+	79	noun	phrase	1	12	nomatch	trop	-1	1	y	0.73367
753.7459	0.0	TROP	79	noun	phrase	1	13	nomatch	trop	-1	1	y	0.73367
754.5322	0.0	+	79	noun	phrase	1	14	nomatch	trop	-1	1	y	0.73367
754.4796	0.0	[response]	79	noun	phrase	1	15	nomatch	trop	-1	1	y	0.73367
756.1315999999999	0.0	+	80	verb	phrase	1	1	nomatch	vite	-1	1	y	0.89792
756.6913	0.2	jftmb	80	verb	phrase	1	2	nomatch	vite	-1	1	y	0.89792
756.8911999999999	0.0	+	80	verb	phrase	1	3	nomatch	vite	-1	1	y	0.89792
757.2910999999999	0.2	srp	80	verb	phrase	1	4	nomatch	vite	-1	1	y	0.89792
757.491	0.0	+	80	verb	phrase	1	5	nomatch	vite	-1	1	y	0.89792
757.8908	0.2	szxj	80	verb	phrase	1	6	nomatch	vite	-1	1	y	0.89792
758.0907	0.0	+	80	verb	phrase	1	7	nomatch	vite	-1	1	y	0.89792
758.4905	0.2	xtsjdfm	80	verb	phrase	1	8	nomatch	vite	-1	1	y	0.89792
758.6904	0.0	+	80	verb	phrase	1	9	nomatch	vite	-1	1	y	0.89792
759.0903	0.2	tôt	80	verb	phrase	1	10	nomatch	vite	-1	1	y	0.89792
759.2901999999999	0.0	+	80	verb	phrase	1	11	nomatch	vite	-1	1	y	0.89792
759.6899999999999	0.0	+	80	verb	phrase	1	12	nomatch	vite	-1	1	y	0.89792
761.6891999999999	0.0	VITE	80	verb	phrase	1	13	nomatch	vite	-1	1	y	0.89792
762.6354	0.0	+	80	verb	phrase	1	14	nomatch	vite	-1	1	y	0.89792
764.0881999999999	0.0	+	80	verb	phrase	1	15	nomatch	vite	-1	1	y	0.89792
764.981	0.0	+	80	verb	phrase	1	16	nomatch	vite	-1	1	y	0.89792
765.0744	0.0	+	80	verb	phrase	1	17	nomatch	vite	-1	1	y	0.89792
766.487	0.0	+	80	verb	phrase	1	18	nomatch	vite	-1	1	y	0.89792
766.5803999999999	0.0	+	80	verb	phrase	1	19	nomatch	vite	-1	1	y	0.89792
767.9797	0.0	+	80	verb	phrase	1	20	nomatch	vite	-1	1	y	0.89792
768.0731999999999	0.0	+	80	verb	phrase	1	21	nomatch	vite	-1	1	y	0.89792
769.4857	0.0	+	80	verb	phrase	1	22	nomatch	vite	-1	1	y	0.89792
769.5792	0.0	+	80	verb	phrase	1	23	nomatch	vite	-1	1	y	0.89792
770.9784	0.0	+	80	verb	phrase	1	24	nomatch	vite	-1	1	y	0.89792
771.0717999999999	0.0	+	80	verb	phrase	1	25	nomatch	vite	-1	1	y	0.89792
772.4844999999999	0.0	+	80	verb	phrase	1	26	nomatch	vite	-1	1	y	0.89792
772.5779	0.0	+	80	verb	phrase	1	27	nomatch	vite	-1	1	y	0.89792
773.9903999999999	0.0	+	80	verb	phrase	1	28	nomatch	vite	-1	1	y	0.89792
774.0839	0.0	+	80	verb	phrase	1	29	nomatch	vite	-1	1	y	0.89792
775.4832	0.0	+	80	verb	phrase	1	30	nomatch	vite	-1	1	y	0.89792
775.5766	0.0	+	80	verb	phrase	1	31	nomatch	vite	-1	1	y	0.89792
776.9892	0.0	+	80	verb	phrase	1	32	nomatch	vite	-1	1	y	0.89792
777.0826	0.0	+	80	verb	phrase	1	33	nomatch	vite	-1	1	y	0.89792
778.4819	0.0	+	80	verb	phrase	1	34	nomatch	vite	-1	1	y	0.89792
778.5753	0.0	+	80	verb	phrase	1	35	nomatch	vite	-1	1	y	0.89792
781.6938	0.0	+	80	verb	phrase	1	36	nomatch	vite	-1	1	y	0.89792
762.5871	0.0	[response]	80	verb	phrase	1	37	nomatch	vite	-1	1	y	0.89792
