onset	duration	stim	trial_number	trial_type	trial_structure	trial_length	sequential_position	probe_type	probe	probe_position	response_correct	response_key	response_time
0.04609999999999559	0.0	+	1	verb	phrase	1	1	match	beaucoup	5	1	p	0.9791900000000001
0.5394000000000005	0.2	tzr	1	verb	phrase	1	2	match	beaucoup	5	1	p	0.9791900000000001
0.7393999999999963	0.0	+	1	verb	phrase	1	3	match	beaucoup	5	1	p	0.9791900000000001
1.1390999999999991	0.2	dnbc	1	verb	phrase	1	4	match	beaucoup	5	1	p	0.9791900000000001
1.339100000000002	0.0	+	1	verb	phrase	1	5	match	beaucoup	5	1	p	0.9791900000000001
1.738900000000001	0.2	kq	1	verb	phrase	1	6	match	beaucoup	5	1	p	0.9791900000000001
1.9388000000000005	0.0	+	1	verb	phrase	1	7	match	beaucoup	5	1	p	0.9791900000000001
2.3385999999999996	0.2	dxzsrbm	1	verb	phrase	1	8	match	beaucoup	5	1	p	0.9791900000000001
2.538499999999999	0.0	+	1	verb	phrase	1	9	match	beaucoup	5	1	p	0.9791900000000001
2.9384000000000015	0.2	beaucoup	1	verb	phrase	1	10	match	beaucoup	5	1	p	0.9791900000000001
3.151699999999998	0.0	+	1	verb	phrase	1	11	match	beaucoup	5	1	p	0.9791900000000001
3.551499999999997	0.0	+	1	verb	phrase	1	12	match	beaucoup	5	1	p	0.9791900000000001
5.550599999999996	0.0	BEAUCOUP	1	verb	phrase	1	13	match	beaucoup	5	1	p	0.9791900000000001
6.576799999999999	0.0	+	1	verb	phrase	1	14	match	beaucoup	5	1	p	0.9791900000000001
6.529800000000002	0.0	[response]	1	verb	phrase	1	15	match	beaucoup	5	1	p	0.9791900000000001
7.936299999999996	0.0	+	2	noun	phrase	1	1	match	voilier	5	1	p	0.72051
8.495999999999995	0.2	bxdvpzg	2	noun	phrase	1	2	match	voilier	5	1	p	0.72051
8.695999999999998	0.0	+	2	noun	phrase	1	3	match	voilier	5	1	p	0.72051
9.095799999999997	0.2	hqkz	2	noun	phrase	1	4	match	voilier	5	1	p	0.72051
9.295699999999997	0.0	+	2	noun	phrase	1	5	match	voilier	5	1	p	0.72051
9.695499999999996	0.2	qmj	2	noun	phrase	1	6	match	voilier	5	1	p	0.72051
9.895499999999998	0.0	+	2	noun	phrase	1	7	match	voilier	5	1	p	0.72051
10.295299999999997	0.2	khtbf	2	noun	phrase	1	8	match	voilier	5	1	p	0.72051
10.495199999999997	0.0	+	2	noun	phrase	1	9	match	voilier	5	1	p	0.72051
10.894999999999996	0.2	voilier	2	noun	phrase	1	10	match	voilier	5	1	p	0.72051
11.094999999999999	0.0	+	2	noun	phrase	1	11	match	voilier	5	1	p	0.72051
11.494700000000002	0.0	+	2	noun	phrase	1	12	match	voilier	5	1	p	0.72051
13.493900000000004	0.0	VOILIER	2	noun	phrase	1	13	match	voilier	5	1	p	0.72051
14.266799999999996	0.0	+	2	noun	phrase	1	14	match	voilier	5	1	p	0.72051
14.214400000000005	0.0	[response]	2	noun	phrase	1	15	match	voilier	5	1	p	0.72051
15.8795	0.0	+	3	verb	phrase	1	1	nomatch	parader	-1	1	y	1.0573
16.439299999999996	0.2	fgldqn	3	verb	phrase	1	2	nomatch	parader	-1	1	y	1.0573
16.639199999999995	0.0	+	3	verb	phrase	1	3	nomatch	parader	-1	1	y	1.0573
17.038999999999994	0.2	vhrw	3	verb	phrase	1	4	nomatch	parader	-1	1	y	1.0573
17.238999999999997	0.0	+	3	verb	phrase	1	5	nomatch	parader	-1	1	y	1.0573
17.638799999999996	0.2	trzk	3	verb	phrase	1	6	nomatch	parader	-1	1	y	1.0573
17.838699999999996	0.0	+	3	verb	phrase	1	7	nomatch	parader	-1	1	y	1.0573
18.238599999999998	0.2	mjwg	3	verb	phrase	1	8	nomatch	parader	-1	1	y	1.0573
18.4518	0.0	+	3	verb	phrase	1	9	nomatch	parader	-1	1	y	1.0573
18.8517	0.2	plonger	3	verb	phrase	1	10	nomatch	parader	-1	1	y	1.0573
19.0516	0.0	+	3	verb	phrase	1	11	nomatch	parader	-1	1	y	1.0573
19.4514	0.0	+	3	verb	phrase	1	12	nomatch	parader	-1	1	y	1.0573
21.450499999999998	0.0	PARADER	3	verb	phrase	1	13	nomatch	parader	-1	1	y	1.0573
22.556599999999996	0.0	+	3	verb	phrase	1	14	nomatch	parader	-1	1	y	1.0573
22.5079	0.0	[response]	3	verb	phrase	1	15	nomatch	parader	-1	1	y	1.0573
23.836199999999998	0.0	+	4	noun	list	1	1	nomatch	leur	-1	1	y	0.70046
24.395999999999994	0.2	pnzxfj	4	noun	list	1	2	nomatch	leur	-1	1	y	0.70046
24.595800000000004	0.0	+	4	noun	list	1	3	nomatch	leur	-1	1	y	0.70046
24.995699999999992	0.2	xndr	4	noun	list	1	4	nomatch	leur	-1	1	y	0.70046
25.195599999999992	0.0	+	4	noun	list	1	5	nomatch	leur	-1	1	y	0.70046
25.595499999999994	0.2	szxj	4	noun	list	1	6	nomatch	leur	-1	1	y	0.70046
25.795399999999994	0.0	+	4	noun	list	1	7	nomatch	leur	-1	1	y	0.70046
26.195199999999993	0.2	mzqv	4	noun	list	1	8	nomatch	leur	-1	1	y	0.70046
26.395099999999992	0.0	+	4	noun	list	1	9	nomatch	leur	-1	1	y	0.70046
26.794900000000005	0.2	tablier	4	noun	list	1	10	nomatch	leur	-1	1	y	0.70046
26.994800000000005	0.0	+	4	noun	list	1	11	nomatch	leur	-1	1	y	0.70046
27.394699999999993	0.0	+	4	noun	list	1	12	nomatch	leur	-1	1	y	0.70046
29.39379999999999	0.0	LEUR	4	noun	list	1	13	nomatch	leur	-1	1	y	0.70046
30.139999999999993	0.0	+	4	noun	list	1	14	nomatch	leur	-1	1	y	0.70046
30.094299999999997	0.0	[response]	4	noun	list	1	15	nomatch	leur	-1	1	y	0.70046
31.77949999999999	0.0	+	5	noun	list	1	1	nomatch	beaucoup	-1	1	y	0.98967
32.3392	0.2	hcgbjd	5	noun	list	1	2	nomatch	beaucoup	-1	1	y	0.98967
32.5392	0.0	+	5	noun	list	1	3	nomatch	beaucoup	-1	1	y	0.98967
32.939	0.2	trvp	5	noun	list	1	4	nomatch	beaucoup	-1	1	y	0.98967
33.1389	0.0	+	5	noun	list	1	5	nomatch	beaucoup	-1	1	y	0.98967
33.5387	0.2	zqgk	5	noun	list	1	6	nomatch	beaucoup	-1	1	y	0.98967
33.7387	0.0	+	5	noun	list	1	7	nomatch	beaucoup	-1	1	y	0.98967
34.1518	0.2	vwkrxh	5	noun	list	1	8	nomatch	beaucoup	-1	1	y	0.98967
34.351800000000004	0.0	+	5	noun	list	1	9	nomatch	beaucoup	-1	1	y	0.98967
34.7516	0.2	plus	5	noun	list	1	10	nomatch	beaucoup	-1	1	y	0.98967
34.9515	0.0	+	5	noun	list	1	11	nomatch	beaucoup	-1	1	y	0.98967
35.3513	0.0	+	5	noun	list	1	12	nomatch	beaucoup	-1	1	y	0.98967
37.350500000000004	0.0	BEAUCOUP	5	noun	list	1	13	nomatch	beaucoup	-1	1	y	0.98967
38.3898	0.0	+	5	noun	list	1	14	nomatch	beaucoup	-1	1	y	0.98967
38.3401	0.0	[response]	5	noun	list	1	15	nomatch	beaucoup	-1	1	y	0.98967
39.736	0.0	+	6	verb	list	2	1	match	plonger	5	1	p	0.95983
40.295899999999996	0.2	nfq	6	verb	list	2	2	match	plonger	5	1	p	0.95983
40.495799999999996	0.0	+	6	verb	list	2	3	match	plonger	5	1	p	0.95983
40.895599999999995	0.2	hqkz	6	verb	list	2	4	match	plonger	5	1	p	0.95983
41.095499999999994	0.0	+	6	verb	list	2	5	match	plonger	5	1	p	0.95983
41.4954	0.2	szxj	6	verb	list	2	6	match	plonger	5	1	p	0.95983
41.695299999999996	0.0	+	6	verb	list	2	7	match	plonger	5	1	p	0.95983
42.095099999999995	0.2	grand	6	verb	list	2	8	match	plonger	5	1	p	0.95983
42.294999999999995	0.0	+	6	verb	list	2	9	match	plonger	5	1	p	0.95983
42.6949	0.2	plonger	6	verb	list	2	10	match	plonger	5	1	p	0.95983
42.8948	0.0	+	6	verb	list	2	11	match	plonger	5	1	p	0.95983
43.294599999999996	0.0	+	6	verb	list	2	12	match	plonger	5	1	p	0.95983
45.2938	0.0	PLONGER	6	verb	list	2	13	match	plonger	5	1	p	0.95983
46.30649999999999	0.0	+	6	verb	list	2	14	match	plonger	5	1	p	0.95983
46.2536	0.0	[response]	6	verb	list	2	15	match	plonger	5	1	p	0.95983
47.679399999999994	0.0	+	7	noun	list	4	1	match	sans	2	1	p	0.82102
48.239200000000004	0.2	qflvhdt	7	noun	list	4	2	match	sans	2	1	p	0.82102
48.439	0.0	+	7	noun	list	4	3	match	sans	2	1	p	0.82102
48.8389	0.2	sans	7	noun	list	4	4	match	sans	2	1	p	0.82102
49.0387	0.0	+	7	noun	list	4	5	match	sans	2	1	p	0.82102
49.4386	0.2	doit	7	noun	list	4	6	match	sans	2	1	p	0.82102
49.6385	0.0	+	7	noun	list	4	7	match	sans	2	1	p	0.82102
50.051700000000004	0.2	voilier	7	noun	list	4	8	match	sans	2	1	p	0.82102
50.2516	0.0	+	7	noun	list	4	9	match	sans	2	1	p	0.82102
50.6514	0.2	tôt	7	noun	list	4	10	match	sans	2	1	p	0.82102
50.851400000000005	0.0	+	7	noun	list	4	11	match	sans	2	1	p	0.82102
51.251200000000004	0.0	+	7	noun	list	4	12	match	sans	2	1	p	0.82102
53.25039999999999	0.0	SANS	7	noun	list	4	13	match	sans	2	1	p	0.82102
54.1166	0.0	+	7	noun	list	4	14	match	sans	2	1	p	0.82102
54.071400000000004	0.0	[response]	7	noun	list	4	15	match	sans	2	1	p	0.82102
71.6293	0.0	+	8	noun	phrase	3	1	nomatch	nager	-1	1	y	1.0326
72.18889999999999	0.2	vdpjl	8	noun	phrase	3	2	nomatch	nager	-1	1	y	1.0326
72.3889	0.0	+	8	noun	phrase	3	3	nomatch	nager	-1	1	y	1.0326
72.80199999999999	0.2	glcf	8	noun	phrase	3	4	nomatch	nager	-1	1	y	1.0326
72.98859999999999	0.0	+	8	noun	phrase	3	5	nomatch	nager	-1	1	y	1.0326
73.40180000000001	0.2	son	8	noun	phrase	3	6	nomatch	nager	-1	1	y	1.0326
73.6017	0.0	+	8	noun	phrase	3	7	nomatch	nager	-1	1	y	1.0326
74.0015	0.2	panier	8	noun	phrase	3	8	nomatch	nager	-1	1	y	1.0326
74.20150000000001	0.0	+	8	noun	phrase	3	9	nomatch	nager	-1	1	y	1.0326
74.60130000000001	0.2	bleu	8	noun	phrase	3	10	nomatch	nager	-1	1	y	1.0326
74.8012	0.0	+	8	noun	phrase	3	11	nomatch	nager	-1	1	y	1.0326
75.201	0.0	+	8	noun	phrase	3	12	nomatch	nager	-1	1	y	1.0326
77.2002	0.0	NAGER	8	noun	phrase	3	13	nomatch	nager	-1	1	y	1.0326
78.27959999999999	0.0	+	8	noun	phrase	3	14	nomatch	nager	-1	1	y	1.0326
78.2327	0.0	[response]	8	noun	phrase	3	15	nomatch	nager	-1	1	y	1.0326
79.58589999999998	0.0	+	9	noun	list	2	1	nomatch	plus	-1	1	y	0.9225400000000001
80.1456	0.2	dlhrn	9	noun	list	2	2	nomatch	plus	-1	1	y	0.9225400000000001
80.34549999999999	0.0	+	9	noun	list	2	3	nomatch	plus	-1	1	y	0.9225400000000001
80.74529999999999	0.2	zhdl	9	noun	list	2	4	nomatch	plus	-1	1	y	0.9225400000000001
80.9452	0.0	+	9	noun	list	2	5	nomatch	plus	-1	1	y	0.9225400000000001
81.3451	0.2	kq	9	noun	list	2	6	nomatch	plus	-1	1	y	0.9225400000000001
81.54499999999999	0.0	+	9	noun	list	2	7	nomatch	plus	-1	1	y	0.9225400000000001
81.94479999999999	0.2	tablier	9	noun	list	2	8	nomatch	plus	-1	1	y	0.9225400000000001
82.1447	0.0	+	9	noun	list	2	9	nomatch	plus	-1	1	y	0.9225400000000001
82.5446	0.2	tard	9	noun	list	2	10	nomatch	plus	-1	1	y	0.9225400000000001
82.74449999999999	0.0	+	9	noun	list	2	11	nomatch	plus	-1	1	y	0.9225400000000001
83.14429999999999	0.0	+	9	noun	list	2	12	nomatch	plus	-1	1	y	0.9225400000000001
85.14349999999999	0.0	PLUS	9	noun	list	2	13	nomatch	plus	-1	1	y	0.9225400000000001
86.1163	0.0	+	9	noun	list	2	14	nomatch	plus	-1	1	y	0.9225400000000001
86.06600000000003	0.0	[response]	9	noun	list	2	15	nomatch	plus	-1	1	y	0.9225400000000001
103.53569999999999	0.0	+	10	noun	phrase	1	1	match	cendrier	5	1	p	0.75251
104.09539999999998	0.2	hbsld	10	noun	phrase	1	2	match	cendrier	5	1	p	0.75251
104.2953	0.0	+	10	noun	phrase	1	3	match	cendrier	5	1	p	0.75251
104.6952	0.2	mvsc	10	noun	phrase	1	4	match	cendrier	5	1	p	0.75251
104.89509999999999	0.0	+	10	noun	phrase	1	5	match	cendrier	5	1	p	0.75251
105.29479999999998	0.2	vpc	10	noun	phrase	1	6	match	cendrier	5	1	p	0.75251
105.4948	0.0	+	10	noun	phrase	1	7	match	cendrier	5	1	p	0.75251
105.8946	0.2	dqjh	10	noun	phrase	1	8	match	cendrier	5	1	p	0.75251
106.09459999999999	0.0	+	10	noun	phrase	1	9	match	cendrier	5	1	p	0.75251
106.49439999999998	0.2	cendrier	10	noun	phrase	1	10	match	cendrier	5	1	p	0.75251
106.6943	0.0	+	10	noun	phrase	1	11	match	cendrier	5	1	p	0.75251
107.0941	0.0	+	10	noun	phrase	1	12	match	cendrier	5	1	p	0.75251
109.0933	0.0	CENDRIER	10	noun	phrase	1	13	match	cendrier	5	1	p	0.75251
109.8929	0.0	+	10	noun	phrase	1	14	match	cendrier	5	1	p	0.75251
109.8458	0.0	[response]	10	noun	phrase	1	15	match	cendrier	5	1	p	0.75251
111.47899999999998	0.0	+	11	noun	phrase	2	1	nomatch	panier	-1	1	y	0.9183
112.03869999999998	0.2	mcjdpkn	11	noun	phrase	2	2	nomatch	panier	-1	1	y	0.9183
112.23859999999999	0.0	+	11	noun	phrase	2	3	nomatch	panier	-1	1	y	0.9183
112.65179999999998	0.2	glcf	11	noun	phrase	2	4	nomatch	panier	-1	1	y	0.9183
112.8517	0.0	+	11	noun	phrase	2	5	nomatch	panier	-1	1	y	0.9183
113.2515	0.2	zqgk	11	noun	phrase	2	6	nomatch	panier	-1	1	y	0.9183
113.45139999999998	0.0	+	11	noun	phrase	2	7	nomatch	panier	-1	1	y	0.9183
113.85129999999998	0.2	voilier	11	noun	phrase	2	8	nomatch	panier	-1	1	y	0.9183
114.0512	0.0	+	11	noun	phrase	2	9	nomatch	panier	-1	1	y	0.9183
114.451	0.2	noir	11	noun	phrase	2	10	nomatch	panier	-1	1	y	0.9183
114.65089999999998	0.0	+	11	noun	phrase	2	11	nomatch	panier	-1	1	y	0.9183
115.05069999999998	0.0	+	11	noun	phrase	2	12	nomatch	panier	-1	1	y	0.9183
117.04989999999998	0.0	PANIER	11	noun	phrase	2	13	nomatch	panier	-1	1	y	0.9183
118.02279999999999	0.0	+	11	noun	phrase	2	14	nomatch	panier	-1	1	y	0.9183
117.9682	0.0	[response]	11	noun	phrase	2	15	nomatch	panier	-1	1	y	0.9183
119.4356	0.0	+	12	noun	list	4	1	nomatch	son	-1	1	y	0.89851
119.99529999999999	0.2	xzjr	12	noun	list	4	2	nomatch	son	-1	1	y	0.89851
120.1953	0.0	+	12	noun	list	4	3	nomatch	son	-1	1	y	0.89851
120.595	0.2	pour	12	noun	list	4	4	nomatch	son	-1	1	y	0.89851
120.79499999999999	0.0	+	12	noun	list	4	5	nomatch	son	-1	1	y	0.89851
121.19479999999999	0.2	va	12	noun	list	4	6	nomatch	son	-1	1	y	0.89851
121.3947	0.0	+	12	noun	list	4	7	nomatch	son	-1	1	y	0.89851
121.7946	0.2	casier	12	noun	list	4	8	nomatch	son	-1	1	y	0.89851
121.99449999999999	0.0	+	12	noun	list	4	9	nomatch	son	-1	1	y	0.89851
122.39429999999999	0.2	vite	12	noun	list	4	10	nomatch	son	-1	1	y	0.89851
122.5943	0.0	+	12	noun	list	4	11	nomatch	son	-1	1	y	0.89851
122.994	0.0	+	12	noun	list	4	12	nomatch	son	-1	1	y	0.89851
124.9932	0.0	SON	12	noun	list	4	13	nomatch	son	-1	1	y	0.89851
125.93939999999998	0.0	+	12	noun	list	4	14	nomatch	son	-1	1	y	0.89851
125.89170000000001	0.0	[response]	12	noun	list	4	15	nomatch	son	-1	1	y	0.89851
127.37889999999999	0.0	+	13	noun	list	4	1	match	trop	4	1	p	1.1066000000000003
127.93859999999998	0.2	ngs	13	noun	list	4	2	match	trop	4	1	p	1.1066000000000003
128.15189999999998	0.0	+	13	noun	list	4	3	match	trop	4	1	p	1.1066000000000003
128.5381	0.2	adam	13	noun	list	4	4	match	trop	4	1	p	1.1066000000000003
128.7516	0.0	+	13	noun	list	4	5	match	trop	4	1	p	1.1066000000000003
129.1514	0.2	leur	13	noun	list	4	6	match	trop	4	1	p	1.1066000000000003
129.35139999999998	0.0	+	13	noun	list	4	7	match	trop	4	1	p	1.1066000000000003
129.75119999999998	0.2	trop	13	noun	list	4	8	match	trop	4	1	p	1.1066000000000003
129.951	0.0	+	13	noun	list	4	9	match	trop	4	1	p	1.1066000000000003
130.3509	0.2	voilier	13	noun	list	4	10	match	trop	4	1	p	1.1066000000000003
130.55079999999998	0.0	+	13	noun	list	4	11	match	trop	4	1	p	1.1066000000000003
130.95059999999998	0.0	+	13	noun	list	4	12	match	trop	4	1	p	1.1066000000000003
132.94979999999998	0.0	TROP	13	noun	list	4	13	match	trop	4	1	p	1.1066000000000003
134.1093	0.0	+	13	noun	list	4	14	match	trop	4	1	p	1.1066000000000003
134.05640000000002	0.0	[response]	13	noun	list	4	15	match	trop	4	1	p	1.1066000000000003
135.3355	0.0	+	14	noun	list	2	1	match	beaucoup	4	1	p	0.8782
135.8952	0.2	kfpnl	14	noun	list	2	2	match	beaucoup	4	1	p	0.8782
136.0951	0.0	+	14	noun	list	2	3	match	beaucoup	4	1	p	0.8782
136.495	0.2	srp	14	noun	list	2	4	match	beaucoup	4	1	p	0.8782
136.6949	0.0	+	14	noun	list	2	5	match	beaucoup	4	1	p	0.8782
137.0947	0.2	vpc	14	noun	list	2	6	match	beaucoup	4	1	p	0.8782
137.2946	0.0	+	14	noun	list	2	7	match	beaucoup	4	1	p	0.8782
137.6944	0.2	beaucoup	14	noun	list	2	8	match	beaucoup	4	1	p	0.8782
137.8944	0.0	+	14	noun	list	2	9	match	beaucoup	4	1	p	0.8782
138.2942	0.2	grenier	14	noun	list	2	10	match	beaucoup	4	1	p	0.8782
138.4941	0.0	+	14	noun	list	2	11	match	beaucoup	4	1	p	0.8782
138.8939	0.0	+	14	noun	list	2	12	match	beaucoup	4	1	p	0.8782
140.8931	0.0	BEAUCOUP	14	noun	list	2	13	match	beaucoup	4	1	p	0.8782
141.8259	0.0	+	14	noun	list	2	14	match	beaucoup	4	1	p	0.8782
141.7713	0.0	[response]	14	noun	list	2	15	match	beaucoup	4	1	p	0.8782
143.2788	0.0	+	15	noun	phrase	1	1	match	casier	5	1	p	0.49371
143.8518	0.2	jlw	15	noun	phrase	1	2	match	casier	5	1	p	0.49371
144.05169999999998	0.0	+	15	noun	phrase	1	3	match	casier	5	1	p	0.49371
144.45159999999998	0.2	bmnq	15	noun	phrase	1	4	match	casier	5	1	p	0.49371
144.6515	0.0	+	15	noun	phrase	1	5	match	casier	5	1	p	0.49371
145.0513	0.2	qmj	15	noun	phrase	1	6	match	casier	5	1	p	0.49371
145.25119999999998	0.0	+	15	noun	phrase	1	7	match	casier	5	1	p	0.49371
145.65109999999999	0.2	snxb	15	noun	phrase	1	8	match	casier	5	1	p	0.49371
145.851	0.0	+	15	noun	phrase	1	9	match	casier	5	1	p	0.49371
146.2508	0.2	casier	15	noun	phrase	1	10	match	casier	5	1	p	0.49371
146.4508	0.0	+	15	noun	phrase	1	11	match	casier	5	1	p	0.49371
146.8506	0.0	+	15	noun	phrase	1	12	match	casier	5	1	p	0.49371
148.84969999999998	0.0	CASIER	15	noun	phrase	1	13	match	casier	5	1	p	0.49371
149.3962	0.0	+	15	noun	phrase	1	14	match	casier	5	1	p	0.49371
149.34349999999998	0.0	[response]	15	noun	phrase	1	15	match	casier	5	1	p	0.49371
151.2354	0.0	+	16	verb	list	4	1	nomatch	beau	-1	1	y	0.87073
151.7952	0.2	vtkgcl	16	verb	list	4	2	nomatch	beau	-1	1	y	0.87073
151.995	0.0	+	16	verb	list	4	3	nomatch	beau	-1	1	y	0.87073
152.39489999999998	0.2	avec	16	verb	list	4	4	nomatch	beau	-1	1	y	0.87073
152.5948	0.0	+	16	verb	list	4	5	nomatch	beau	-1	1	y	0.87073
152.9946	0.2	va	16	verb	list	4	6	nomatch	beau	-1	1	y	0.87073
153.1945	0.0	+	16	verb	list	4	7	nomatch	beau	-1	1	y	0.87073
153.5943	0.2	nouveau	16	verb	list	4	8	nomatch	beau	-1	1	y	0.87073
153.7943	0.0	+	16	verb	list	4	9	nomatch	beau	-1	1	y	0.87073
154.1941	0.2	plonger	16	verb	list	4	10	nomatch	beau	-1	1	y	0.87073
154.394	0.0	+	16	verb	list	4	11	nomatch	beau	-1	1	y	0.87073
154.79389999999998	0.0	+	16	verb	list	4	12	nomatch	beau	-1	1	y	0.87073
156.79299999999998	0.0	BEAU	16	verb	list	4	13	nomatch	beau	-1	1	y	0.87073
157.71259999999998	0.0	+	16	verb	list	4	14	nomatch	beau	-1	1	y	0.87073
157.66379999999998	0.0	[response]	16	verb	list	4	15	nomatch	beau	-1	1	y	0.87073
159.1787	0.0	+	17	noun	phrase	4	1	nomatch	cendrier	-1	1	y	1.0597
159.73839999999998	0.2	jqmfbs	17	noun	phrase	4	2	nomatch	cendrier	-1	1	y	1.0597
159.9383	0.0	+	17	noun	phrase	4	3	nomatch	cendrier	-1	1	y	1.0597
160.3515	0.2	sans	17	noun	phrase	4	4	nomatch	cendrier	-1	1	y	1.0597
160.5514	0.0	+	17	noun	phrase	4	5	nomatch	cendrier	-1	1	y	1.0597
160.9513	0.2	leur	17	noun	phrase	4	6	nomatch	cendrier	-1	1	y	1.0597
161.1512	0.0	+	17	noun	phrase	4	7	nomatch	cendrier	-1	1	y	1.0597
161.551	0.2	grenier	17	noun	phrase	4	8	nomatch	cendrier	-1	1	y	1.0597
161.7509	0.0	+	17	noun	phrase	4	9	nomatch	cendrier	-1	1	y	1.0597
162.1508	0.2	bleu	17	noun	phrase	4	10	nomatch	cendrier	-1	1	y	1.0597
162.3506	0.0	+	17	noun	phrase	4	11	nomatch	cendrier	-1	1	y	1.0597
162.7505	0.0	+	17	noun	phrase	4	12	nomatch	cendrier	-1	1	y	1.0597
164.7496	0.0	CENDRIER	17	noun	phrase	4	13	nomatch	cendrier	-1	1	y	1.0597
165.85569999999998	0.0	+	17	noun	phrase	4	14	nomatch	cendrier	-1	1	y	1.0597
165.80929999999998	0.0	[response]	17	noun	phrase	4	15	nomatch	cendrier	-1	1	y	1.0597
167.1353	0.0	+	18	noun	list	1	1	match	tard	5	1	p	0.57654
167.695	0.2	jfxzb	18	noun	list	1	2	match	tard	5	1	p	0.57654
167.89499999999998	0.0	+	18	noun	list	1	3	match	tard	5	1	p	0.57654
168.29479999999998	0.2	xhj	18	noun	list	1	4	match	tard	5	1	p	0.57654
168.4947	0.0	+	18	noun	list	1	5	match	tard	5	1	p	0.57654
168.8945	0.2	szxj	18	noun	list	1	6	match	tard	5	1	p	0.57654
169.09439999999998	0.0	+	18	noun	list	1	7	match	tard	5	1	p	0.57654
169.49419999999998	0.2	wgvqrj	18	noun	list	1	8	match	tard	5	1	p	0.57654
169.6942	0.0	+	18	noun	list	1	9	match	tard	5	1	p	0.57654
170.094	0.2	tard	18	noun	list	1	10	match	tard	5	1	p	0.57654
170.29399999999998	0.0	+	18	noun	list	1	11	match	tard	5	1	p	0.57654
170.69379999999998	0.0	+	18	noun	list	1	12	match	tard	5	1	p	0.57654
172.69289999999998	0.0	TARD	18	noun	list	1	13	match	tard	5	1	p	0.57654
173.3192	0.0	+	18	noun	list	1	14	match	tard	5	1	p	0.57654
173.2695	0.0	[response]	18	noun	list	1	15	match	tard	5	1	p	0.57654
175.09189999999998	0.0	+	19	noun	phrase	3	1	nomatch	vert	-1	1	y	1.1074
175.6516	0.2	gcnbr	19	noun	phrase	3	2	nomatch	vert	-1	1	y	1.1074
175.8515	0.0	+	19	noun	phrase	3	3	nomatch	vert	-1	1	y	1.1074
176.2514	0.2	zhdl	19	noun	phrase	3	4	nomatch	vert	-1	1	y	1.1074
176.4513	0.0	+	19	noun	phrase	3	5	nomatch	vert	-1	1	y	1.1074
176.8511	0.2	mon	19	noun	phrase	3	6	nomatch	vert	-1	1	y	1.1074
177.051	0.0	+	19	noun	phrase	3	7	nomatch	vert	-1	1	y	1.1074
177.4509	0.2	petit	19	noun	phrase	3	8	nomatch	vert	-1	1	y	1.1074
177.6508	0.0	+	19	noun	phrase	3	9	nomatch	vert	-1	1	y	1.1074
178.0506	0.2	voilier	19	noun	phrase	3	10	nomatch	vert	-1	1	y	1.1074
178.2505	0.0	+	19	noun	phrase	3	11	nomatch	vert	-1	1	y	1.1074
178.6503	0.0	+	19	noun	phrase	3	12	nomatch	vert	-1	1	y	1.1074
180.6495	0.0	VERT	19	noun	phrase	3	13	nomatch	vert	-1	1	y	1.1074
181.809	0.0	+	19	noun	phrase	3	14	nomatch	vert	-1	1	y	1.1074
181.7569	0.0	[response]	19	noun	phrase	3	15	nomatch	vert	-1	1	y	1.1074
183.0352	0.0	+	20	noun	phrase	2	1	nomatch	pour	-1	1	y	0.78536
183.5949	0.2	cmdjbx	20	noun	phrase	2	2	nomatch	pour	-1	1	y	0.78536
183.79489999999998	0.0	+	20	noun	phrase	2	3	nomatch	pour	-1	1	y	0.78536
184.19459999999998	0.2	bmnq	20	noun	phrase	2	4	nomatch	pour	-1	1	y	0.78536
184.3946	0.0	+	20	noun	phrase	2	5	nomatch	pour	-1	1	y	0.78536
184.7945	0.2	vpc	20	noun	phrase	2	6	nomatch	pour	-1	1	y	0.78536
184.99439999999998	0.0	+	20	noun	phrase	2	7	nomatch	pour	-1	1	y	0.78536
185.39419999999998	0.2	grenier	20	noun	phrase	2	8	nomatch	pour	-1	1	y	0.78536
185.5941	0.0	+	20	noun	phrase	2	9	nomatch	pour	-1	1	y	0.78536
185.994	0.2	bleu	20	noun	phrase	2	10	nomatch	pour	-1	1	y	0.78536
186.19389999999999	0.0	+	20	noun	phrase	2	11	nomatch	pour	-1	1	y	0.78536
186.59369999999998	0.0	+	20	noun	phrase	2	12	nomatch	pour	-1	1	y	0.78536
188.59279999999998	0.0	POUR	20	noun	phrase	2	13	nomatch	pour	-1	1	y	0.78536
189.4323	0.0	+	20	noun	phrase	2	14	nomatch	pour	-1	1	y	0.78536
189.3782	0.0	[response]	20	noun	phrase	2	15	nomatch	pour	-1	1	y	0.78536
190.9785	0.0	+	21	noun	phrase	1	1	match	rocher	5	1	p	0.65131
191.55159999999998	0.2	hfktxcn	21	noun	phrase	1	2	match	rocher	5	1	p	0.65131
191.7515	0.0	+	21	noun	phrase	1	3	match	rocher	5	1	p	0.65131
192.1513	0.2	xndr	21	noun	phrase	1	4	match	rocher	5	1	p	0.65131
192.35119999999998	0.0	+	21	noun	phrase	1	5	match	rocher	5	1	p	0.65131
192.75109999999998	0.2	qmj	21	noun	phrase	1	6	match	rocher	5	1	p	0.65131
192.951	0.0	+	21	noun	phrase	1	7	match	rocher	5	1	p	0.65131
193.3508	0.2	lfsz	21	noun	phrase	1	8	match	rocher	5	1	p	0.65131
193.55069999999998	0.0	+	21	noun	phrase	1	9	match	rocher	5	1	p	0.65131
193.9505	0.2	rocher	21	noun	phrase	1	10	match	rocher	5	1	p	0.65131
194.1505	0.0	+	21	noun	phrase	1	11	match	rocher	5	1	p	0.65131
194.5503	0.0	+	21	noun	phrase	1	12	match	rocher	5	1	p	0.65131
196.5495	0.0	ROCHER	21	noun	phrase	1	13	match	rocher	5	1	p	0.65131
197.2557	0.0	+	21	noun	phrase	1	14	match	rocher	5	1	p	0.65131
197.2008	0.0	[response]	21	noun	phrase	1	15	match	rocher	5	1	p	0.65131
198.9351	0.0	+	22	noun	list	3	1	match	moins	4	1	p	0.83093
199.4949	0.2	tndp	22	noun	list	3	2	match	moins	4	1	p	0.83093
199.6948	0.0	+	22	noun	list	3	3	match	moins	4	1	p	0.83093
200.09459999999999	0.2	bdrm	22	noun	list	3	4	match	moins	4	1	p	0.83093
200.2945	0.0	+	22	noun	list	3	5	match	moins	4	1	p	0.83093
200.6943	0.2	leur	22	noun	list	3	6	match	moins	4	1	p	0.83093
200.8943	0.0	+	22	noun	list	3	7	match	moins	4	1	p	0.83093
201.2941	0.2	moins	22	noun	list	3	8	match	moins	4	1	p	0.83093
201.494	0.0	+	22	noun	list	3	9	match	moins	4	1	p	0.83093
201.8938	0.2	casier	22	noun	list	3	10	match	moins	4	1	p	0.83093
202.0938	0.0	+	22	noun	list	3	11	match	moins	4	1	p	0.83093
202.4936	0.0	+	22	noun	list	3	12	match	moins	4	1	p	0.83093
204.49269999999999	0.0	MOINS	22	noun	list	3	13	match	moins	4	1	p	0.83093
205.37229999999997	0.0	+	22	noun	list	3	14	match	moins	4	1	p	0.83093
205.32359999999997	0.0	[response]	22	noun	list	3	15	match	moins	4	1	p	0.83093
206.8916	0.0	+	23	noun	list	3	1	nomatch	trop	-1	1	y	1.1571
207.45149999999998	0.2	swxcd	23	noun	list	3	2	nomatch	trop	-1	1	y	1.1571
207.6514	0.0	+	23	noun	list	3	3	nomatch	trop	-1	1	y	1.1571
208.05119999999997	0.2	hqkz	23	noun	list	3	4	nomatch	trop	-1	1	y	1.1571
208.25109999999998	0.0	+	23	noun	list	3	5	nomatch	trop	-1	1	y	1.1571
208.65099999999998	0.2	peut	23	noun	list	3	6	nomatch	trop	-1	1	y	1.1571
208.8509	0.0	+	23	noun	list	3	7	nomatch	trop	-1	1	y	1.1571
209.25069999999997	0.2	grenier	23	noun	list	3	8	nomatch	trop	-1	1	y	1.1571
209.45059999999998	0.0	+	23	noun	list	3	9	nomatch	trop	-1	1	y	1.1571
209.85049999999998	0.2	tard	23	noun	list	3	10	nomatch	trop	-1	1	y	1.1571
210.0504	0.0	+	23	noun	list	3	11	nomatch	trop	-1	1	y	1.1571
210.45019999999997	0.0	+	23	noun	list	3	12	nomatch	trop	-1	1	y	1.1571
212.44929999999997	0.0	TROP	23	noun	list	3	13	nomatch	trop	-1	1	y	1.1571
213.64879999999997	0.0	+	23	noun	list	3	14	nomatch	trop	-1	1	y	1.1571
213.6063	0.0	[response]	23	noun	list	3	15	nomatch	trop	-1	1	y	1.1571
222.8316	0.0	+	24	verb	list	4	1	match	marc	2	1	p	0.88712
223.3914	0.2	mpsnqr	24	verb	list	4	2	match	marc	2	1	p	0.88712
223.59130000000002	0.0	+	24	verb	list	4	3	match	marc	2	1	p	0.88712
223.9911	0.2	marc	24	verb	list	4	4	match	marc	2	1	p	0.88712
224.191	0.0	+	24	verb	list	4	5	match	marc	2	1	p	0.88712
224.5909	0.2	son	24	verb	list	4	6	match	marc	2	1	p	0.88712
224.79080000000002	0.0	+	24	verb	list	4	7	match	marc	2	1	p	0.88712
225.1906	0.2	galoper	24	verb	list	4	8	match	marc	2	1	p	0.88712
225.3905	0.0	+	24	verb	list	4	9	match	marc	2	1	p	0.88712
225.79029999999997	0.2	bleu	24	verb	list	4	10	match	marc	2	1	p	0.88712
225.9902	0.0	+	24	verb	list	4	11	match	marc	2	1	p	0.88712
226.3901	0.0	+	24	verb	list	4	12	match	marc	2	1	p	0.88712
228.3892	0.0	MARC	24	verb	list	4	13	match	marc	2	1	p	0.88712
229.32199999999997	0.0	+	24	verb	list	4	14	match	marc	2	1	p	0.88712
229.2764	0.0	[response]	24	verb	list	4	15	match	marc	2	1	p	0.88712
238.78489999999996	0.0	+	25	noun	list	3	1	match	doit	3	1	p	1.3114
239.3445	0.2	lfp	25	noun	list	3	2	match	doit	3	1	p	1.3114
239.5445	0.0	+	25	noun	list	3	3	match	doit	3	1	p	1.3114
239.94429999999997	0.2	xndr	25	noun	list	3	4	match	doit	3	1	p	1.3114
240.14419999999998	0.0	+	25	noun	list	3	5	match	doit	3	1	p	1.3114
240.5441	0.2	doit	25	noun	list	3	6	match	doit	3	1	p	1.3114
240.744	0.0	+	25	noun	list	3	7	match	doit	3	1	p	1.3114
241.14379999999997	0.2	rocher	25	noun	list	3	8	match	doit	3	1	p	1.3114
241.34369999999998	0.0	+	25	noun	list	3	9	match	doit	3	1	p	1.3114
241.7436	0.2	vite	25	noun	list	3	10	match	doit	3	1	p	1.3114
241.9435	0.0	+	25	noun	list	3	11	match	doit	3	1	p	1.3114
242.34329999999997	0.0	+	25	noun	list	3	12	match	doit	3	1	p	1.3114
244.34239999999997	0.0	DOIT	25	noun	list	3	13	match	doit	3	1	p	1.3114
245.7017	0.0	+	25	noun	list	3	14	match	doit	3	1	p	1.3114
245.65380000000002	0.0	[response]	25	noun	list	3	15	match	doit	3	1	p	1.3114
246.74139999999997	0.0	+	26	noun	list	1	1	match	grenier	5	1	p	0.42384
247.30119999999997	0.2	tkpjd	26	noun	list	1	2	match	grenier	5	1	p	0.42384
247.50109999999998	0.0	+	26	noun	list	1	3	match	grenier	5	1	p	0.42384
247.90099999999998	0.2	glcf	26	noun	list	1	4	match	grenier	5	1	p	0.42384
248.10079999999996	0.0	+	26	noun	list	1	5	match	grenier	5	1	p	0.42384
248.50069999999997	0.2	trzk	26	noun	list	1	6	match	grenier	5	1	p	0.42384
248.70059999999998	0.0	+	26	noun	list	1	7	match	grenier	5	1	p	0.42384
249.10049999999998	0.2	qjfl	26	noun	list	1	8	match	grenier	5	1	p	0.42384
249.30029999999996	0.0	+	26	noun	list	1	9	match	grenier	5	1	p	0.42384
249.70019999999997	0.2	grenier	26	noun	list	1	10	match	grenier	5	1	p	0.42384
249.90009999999998	0.0	+	26	noun	list	1	11	match	grenier	5	1	p	0.42384
250.2999	0.0	+	26	noun	list	1	12	match	grenier	5	1	p	0.42384
252.29909999999998	0.0	GRENIER	26	noun	list	1	13	match	grenier	5	1	p	0.42384
252.7655	0.0	+	26	noun	list	1	14	match	grenier	5	1	p	0.42384
252.72290000000007	0.0	[response]	26	noun	list	1	15	match	grenier	5	1	p	0.42384
254.68479999999997	0.0	+	27	verb	list	4	1	match	leur	3	1	p	0.99994
255.2445	0.2	xdz	27	verb	list	4	2	match	leur	3	1	p	0.99994
255.4444	0.0	+	27	verb	list	4	3	match	leur	3	1	p	0.99994
255.84419999999997	0.2	paul	27	verb	list	4	4	match	leur	3	1	p	0.99994
256.04420000000005	0.0	+	27	verb	list	4	5	match	leur	3	1	p	0.99994
256.444	0.2	leur	27	verb	list	4	6	match	leur	3	1	p	0.99994
256.64390000000003	0.0	+	27	verb	list	4	7	match	leur	3	1	p	0.99994
257.0437	0.2	nager	27	verb	list	4	8	match	leur	3	1	p	0.99994
257.2436	0.0	+	27	verb	list	4	9	match	leur	3	1	p	0.99994
257.64340000000004	0.2	vert	27	verb	list	4	10	match	leur	3	1	p	0.99994
257.84340000000003	0.0	+	27	verb	list	4	11	match	leur	3	1	p	0.99994
258.2432	0.0	+	27	verb	list	4	12	match	leur	3	1	p	0.99994
260.24240000000003	0.0	LEUR	27	verb	list	4	13	match	leur	3	1	p	0.99994
261.2953	0.0	+	27	verb	list	4	14	match	leur	3	1	p	0.99994
261.2423	0.0	[response]	27	verb	list	4	15	match	leur	3	1	p	0.99994
262.6413	0.0	+	28	verb	phrase	3	1	match	beaucoup	4	1	p	0.80417
263.2011	0.2	snd	28	verb	phrase	3	2	match	beaucoup	4	1	p	0.80417
263.40110000000004	0.0	+	28	verb	phrase	3	3	match	beaucoup	4	1	p	0.80417
263.80080000000004	0.2	vhrw	28	verb	phrase	3	4	match	beaucoup	4	1	p	0.80417
264.0008	0.0	+	28	verb	phrase	3	5	match	beaucoup	4	1	p	0.80417
264.4006	0.2	va	28	verb	phrase	3	6	match	beaucoup	4	1	p	0.80417
264.6005	0.0	+	28	verb	phrase	3	7	match	beaucoup	4	1	p	0.80417
265.0004	0.2	beaucoup	28	verb	phrase	3	8	match	beaucoup	4	1	p	0.80417
265.2003	0.0	+	28	verb	phrase	3	9	match	beaucoup	4	1	p	0.80417
265.6001	0.2	chasser	28	verb	phrase	3	10	match	beaucoup	4	1	p	0.80417
265.8	0.0	+	28	verb	phrase	3	11	match	beaucoup	4	1	p	0.80417
266.19980000000004	0.0	+	28	verb	phrase	3	12	match	beaucoup	4	1	p	0.80417
268.199	0.0	BEAUCOUP	28	verb	phrase	3	13	match	beaucoup	4	1	p	0.80417
269.0518	0.0	+	28	verb	phrase	3	14	match	beaucoup	4	1	p	0.80417
269.0032	0.0	[response]	28	verb	phrase	3	15	match	beaucoup	4	1	p	0.80417
270.5847	0.0	+	29	noun	phrase	4	1	match	pour	2	1	p	0.69363
271.1444	0.2	dnfb	29	noun	phrase	4	2	match	pour	2	1	p	0.69363
271.34430000000003	0.0	+	29	noun	phrase	4	3	match	pour	2	1	p	0.69363
271.74420000000003	0.2	pour	29	noun	phrase	4	4	match	pour	2	1	p	0.69363
271.9441	0.0	+	29	noun	phrase	4	5	match	pour	2	1	p	0.69363
272.3439	0.2	mon	29	noun	phrase	4	6	match	pour	2	1	p	0.69363
272.54380000000003	0.0	+	29	noun	phrase	4	7	match	pour	2	1	p	0.69363
272.9436	0.2	voilier	29	noun	phrase	4	8	match	pour	2	1	p	0.69363
273.1436	0.0	+	29	noun	phrase	4	9	match	pour	2	1	p	0.69363
273.5434	0.2	vert	29	noun	phrase	4	10	match	pour	2	1	p	0.69363
273.74330000000003	0.0	+	29	noun	phrase	4	11	match	pour	2	1	p	0.69363
274.1431	0.0	+	29	noun	phrase	4	12	match	pour	2	1	p	0.69363
276.14230000000003	0.0	POUR	29	noun	phrase	4	13	match	pour	2	1	p	0.69363
276.8886	0.0	+	29	noun	phrase	4	14	match	pour	2	1	p	0.69363
276.8359000000001	0.0	[response]	29	noun	phrase	4	15	match	pour	2	1	p	0.69363
278.54130000000004	0.0	+	30	noun	list	3	1	nomatch	jean	-1	1	y	0.71226
279.101	0.2	jhkp	30	noun	list	3	2	nomatch	jean	-1	1	y	0.71226
279.3009	0.0	+	30	noun	list	3	3	nomatch	jean	-1	1	y	0.71226
279.7008	0.2	srp	30	noun	list	3	4	nomatch	jean	-1	1	y	0.71226
279.90070000000003	0.0	+	30	noun	list	3	5	nomatch	jean	-1	1	y	0.71226
280.3005	0.2	son	30	noun	list	3	6	nomatch	jean	-1	1	y	0.71226
280.5004	0.0	+	30	noun	list	3	7	nomatch	jean	-1	1	y	0.71226
280.9003	0.2	trop	30	noun	list	3	8	nomatch	jean	-1	1	y	0.71226
281.10020000000003	0.0	+	30	noun	list	3	9	nomatch	jean	-1	1	y	0.71226
281.5	0.2	cendrier	30	noun	list	3	10	nomatch	jean	-1	1	y	0.71226
281.6999	0.0	+	30	noun	list	3	11	nomatch	jean	-1	1	y	0.71226
282.0998	0.0	+	30	noun	list	3	12	nomatch	jean	-1	1	y	0.71226
284.0989	0.0	JEAN	30	noun	list	3	13	nomatch	jean	-1	1	y	0.71226
284.8584	0.0	+	30	noun	list	3	14	nomatch	jean	-1	1	y	0.71226
284.81120000000004	0.0	[response]	30	noun	list	3	15	nomatch	jean	-1	1	y	0.71226
286.4846	0.0	+	31	noun	list	2	1	match	tard	5	1	p	0.90716
287.0443	0.2	klvhcpb	31	noun	list	2	2	match	tard	5	1	p	0.90716
287.24420000000003	0.0	+	31	noun	list	2	3	match	tard	5	1	p	0.90716
287.64410000000004	0.2	mvsc	31	noun	list	2	4	match	tard	5	1	p	0.90716
287.844	0.0	+	31	noun	list	2	5	match	tard	5	1	p	0.90716
288.2438	0.2	kq	31	noun	list	2	6	match	tard	5	1	p	0.90716
288.44370000000004	0.0	+	31	noun	list	2	7	match	tard	5	1	p	0.90716
288.84360000000004	0.2	casier	31	noun	list	2	8	match	tard	5	1	p	0.90716
289.0435	0.0	+	31	noun	list	2	9	match	tard	5	1	p	0.90716
289.4433	0.2	tard	31	noun	list	2	10	match	tard	5	1	p	0.90716
289.64320000000004	0.0	+	31	noun	list	2	11	match	tard	5	1	p	0.90716
290.043	0.0	+	31	noun	list	2	12	match	tard	5	1	p	0.90716
292.04220000000004	0.0	TARD	31	noun	list	2	13	match	tard	5	1	p	0.90716
293.0018	0.0	+	31	noun	list	2	14	match	tard	5	1	p	0.90716
292.9493	0.0	[response]	31	noun	list	2	15	match	tard	5	1	p	0.90716
294.44120000000004	0.0	+	32	noun	list	1	1	nomatch	plus	-1	1	y	0.86869
295.0009	0.2	hlxms	32	noun	list	1	2	nomatch	plus	-1	1	y	0.86869
295.2008	0.0	+	32	noun	list	1	3	nomatch	plus	-1	1	y	0.86869
295.6007	0.2	lzdr	32	noun	list	1	4	nomatch	plus	-1	1	y	0.86869
295.80060000000003	0.0	+	32	noun	list	1	5	nomatch	plus	-1	1	y	0.86869
296.2004	0.2	vpc	32	noun	list	1	6	nomatch	plus	-1	1	y	0.86869
296.4003	0.0	+	32	noun	list	1	7	nomatch	plus	-1	1	y	0.86869
296.80010000000004	0.2	tmhlvwr	32	noun	list	1	8	nomatch	plus	-1	1	y	0.86869
297.00010000000003	0.0	+	32	noun	list	1	9	nomatch	plus	-1	1	y	0.86869
297.3999	0.2	beaucoup	32	noun	list	1	10	nomatch	plus	-1	1	y	0.86869
297.5998	0.0	+	32	noun	list	1	11	nomatch	plus	-1	1	y	0.86869
297.99960000000004	0.0	+	32	noun	list	1	12	nomatch	plus	-1	1	y	0.86869
299.9988	0.0	PLUS	32	noun	list	1	13	nomatch	plus	-1	1	y	0.86869
300.91830000000004	0.0	+	32	noun	list	1	14	nomatch	plus	-1	1	y	0.86869
300.8675	0.0	[response]	32	noun	list	1	15	nomatch	plus	-1	1	y	0.86869
310.3811	0.0	+	33	noun	phrase	2	1	match	vert	5	1	p	0.74913
310.9408	0.2	dqx	33	noun	phrase	2	2	match	vert	5	1	p	0.74913
311.1408	0.0	+	33	noun	phrase	2	3	match	vert	5	1	p	0.74913
311.54060000000004	0.2	mvsc	33	noun	phrase	2	4	match	vert	5	1	p	0.74913
311.7405	0.0	+	33	noun	phrase	2	5	match	vert	5	1	p	0.74913
312.1403	0.2	zqgk	33	noun	phrase	2	6	match	vert	5	1	p	0.74913
312.34020000000004	0.0	+	33	noun	phrase	2	7	match	vert	5	1	p	0.74913
312.74	0.2	panier	33	noun	phrase	2	8	match	vert	5	1	p	0.74913
312.94	0.0	+	33	noun	phrase	2	9	match	vert	5	1	p	0.74913
313.3398	0.2	vert	33	noun	phrase	2	10	match	vert	5	1	p	0.74913
313.53970000000004	0.0	+	33	noun	phrase	2	11	match	vert	5	1	p	0.74913
313.93960000000004	0.0	+	33	noun	phrase	2	12	match	vert	5	1	p	0.74913
315.93870000000004	0.0	VERT	33	noun	phrase	2	13	match	vert	5	1	p	0.74913
316.7382	0.0	+	33	noun	phrase	2	14	match	vert	5	1	p	0.74913
316.68780000000004	0.0	[response]	33	noun	phrase	2	15	match	vert	5	1	p	0.74913
318.33770000000004	0.0	+	34	verb	phrase	3	1	nomatch	vite	-1	1	y	0.95809
318.89750000000004	0.2	qvdwzn	34	verb	phrase	3	2	nomatch	vite	-1	1	y	0.95809
319.0974	0.0	+	34	verb	phrase	3	3	nomatch	vite	-1	1	y	0.95809
319.4972	0.2	bdrm	34	verb	phrase	3	4	nomatch	vite	-1	1	y	0.95809
319.69710000000003	0.0	+	34	verb	phrase	3	5	nomatch	vite	-1	1	y	0.95809
320.09700000000004	0.2	peut	34	verb	phrase	3	6	nomatch	vite	-1	1	y	0.95809
320.2969	0.0	+	34	verb	phrase	3	7	nomatch	vite	-1	1	y	0.95809
320.6967	0.2	trop	34	verb	phrase	3	8	nomatch	vite	-1	1	y	0.95809
320.89660000000003	0.0	+	34	verb	phrase	3	9	nomatch	vite	-1	1	y	0.95809
321.2964	0.2	patiner	34	verb	phrase	3	10	nomatch	vite	-1	1	y	0.95809
321.4963	0.0	+	34	verb	phrase	3	11	nomatch	vite	-1	1	y	0.95809
321.8962	0.0	+	34	verb	phrase	3	12	nomatch	vite	-1	1	y	0.95809
323.8953	0.0	VITE	34	verb	phrase	3	13	nomatch	vite	-1	1	y	0.95809
324.90810000000005	0.0	+	34	verb	phrase	3	14	nomatch	vite	-1	1	y	0.95809
324.8534	0.0	[response]	34	verb	phrase	3	15	nomatch	vite	-1	1	y	0.95809
326.281	0.0	+	35	verb	list	1	1	match	parader	5	1	p	0.84804
326.8407	0.2	mhc	35	verb	list	1	2	match	parader	5	1	p	0.84804
327.04060000000004	0.0	+	35	verb	list	1	3	match	parader	5	1	p	0.84804
327.4404	0.2	trvp	35	verb	list	1	4	match	parader	5	1	p	0.84804
327.6404	0.0	+	35	verb	list	1	5	match	parader	5	1	p	0.84804
328.0402	0.2	vpc	35	verb	list	1	6	match	parader	5	1	p	0.84804
328.2402	0.0	+	35	verb	list	1	7	match	parader	5	1	p	0.84804
328.64000000000004	0.2	lzfn	35	verb	list	1	8	match	parader	5	1	p	0.84804
328.8399	0.0	+	35	verb	list	1	9	match	parader	5	1	p	0.84804
329.2397	0.2	parader	35	verb	list	1	10	match	parader	5	1	p	0.84804
329.43960000000004	0.0	+	35	verb	list	1	11	match	parader	5	1	p	0.84804
329.8394	0.0	+	35	verb	list	1	12	match	parader	5	1	p	0.84804
331.83860000000004	0.0	PARADER	35	verb	list	1	13	match	parader	5	1	p	0.84804
332.7314	0.0	+	35	verb	list	1	14	match	parader	5	1	p	0.84804
332.68660000000006	0.0	[response]	35	verb	list	1	15	match	parader	5	1	p	0.84804
342.23420000000004	0.0	+	36	noun	phrase	4	1	match	leur	3	1	p	1.1092
342.7939	0.2	skl	36	noun	phrase	4	2	match	leur	3	1	p	1.1092
342.9939	0.0	+	36	noun	phrase	4	3	match	leur	3	1	p	1.1092
343.3936	0.2	avec	36	noun	phrase	4	4	match	leur	3	1	p	1.1092
343.59360000000004	0.0	+	36	noun	phrase	4	5	match	leur	3	1	p	1.1092
343.9934	0.2	leur	36	noun	phrase	4	6	match	leur	3	1	p	1.1092
344.1934	0.0	+	36	noun	phrase	4	7	match	leur	3	1	p	1.1092
344.5932	0.2	petit	36	noun	phrase	4	8	match	leur	3	1	p	1.1092
344.79310000000004	0.0	+	36	noun	phrase	4	9	match	leur	3	1	p	1.1092
345.1929	0.2	voilier	36	noun	phrase	4	10	match	leur	3	1	p	1.1092
345.3929	0.0	+	36	noun	phrase	4	11	match	leur	3	1	p	1.1092
345.7927	0.0	+	36	noun	phrase	4	12	match	leur	3	1	p	1.1092
347.7918	0.0	LEUR	36	noun	phrase	4	13	match	leur	3	1	p	1.1092
348.9513	0.0	+	36	noun	phrase	4	14	match	leur	3	1	p	1.1092
348.90110000000004	0.0	[response]	36	noun	phrase	4	15	match	leur	3	1	p	1.1092
350.1908	0.0	+	37	noun	phrase	1	1	match	grand	5	1	p	1.0527
350.7506	0.2	dmrxcw	37	noun	phrase	1	2	match	grand	5	1	p	1.0527
350.95050000000003	0.0	+	37	noun	phrase	1	3	match	grand	5	1	p	1.0527
351.3503	0.2	xhj	37	noun	phrase	1	4	match	grand	5	1	p	1.0527
351.5502	0.0	+	37	noun	phrase	1	5	match	grand	5	1	p	1.0527
351.95000000000005	0.2	qmj	37	noun	phrase	1	6	match	grand	5	1	p	1.0527
352.15000000000003	0.0	+	37	noun	phrase	1	7	match	grand	5	1	p	1.0527
352.54970000000003	0.2	kqjhmw	37	noun	phrase	1	8	match	grand	5	1	p	1.0527
352.7497	0.0	+	37	noun	phrase	1	9	match	grand	5	1	p	1.0527
353.1494	0.2	grand	37	noun	phrase	1	10	match	grand	5	1	p	1.0527
353.3494	0.0	+	37	noun	phrase	1	11	match	grand	5	1	p	1.0527
353.7493	0.0	+	37	noun	phrase	1	12	match	grand	5	1	p	1.0527
355.7484	0.0	GRAND	37	noun	phrase	1	13	match	grand	5	1	p	1.0527
356.8544	0.0	+	37	noun	phrase	1	14	match	grand	5	1	p	1.0527
356.8011	0.0	[response]	37	noun	phrase	1	15	match	grand	5	1	p	1.0527
358.13410000000005	0.0	+	38	verb	list	1	1	match	nouveau	5	1	p	0.4911400000000001
358.6938	0.2	cjpb	38	verb	list	1	2	match	nouveau	5	1	p	0.4911400000000001
358.8938	0.0	+	38	verb	list	1	3	match	nouveau	5	1	p	0.4911400000000001
359.2936	0.2	hqkz	38	verb	list	1	4	match	nouveau	5	1	p	0.4911400000000001
359.49350000000004	0.0	+	38	verb	list	1	5	match	nouveau	5	1	p	0.4911400000000001
359.89340000000004	0.2	szxj	38	verb	list	1	6	match	nouveau	5	1	p	0.4911400000000001
360.0933	0.0	+	38	verb	list	1	7	match	nouveau	5	1	p	0.4911400000000001
360.4931	0.2	xfpwgcb	38	verb	list	1	8	match	nouveau	5	1	p	0.4911400000000001
360.69300000000004	0.0	+	38	verb	list	1	9	match	nouveau	5	1	p	0.4911400000000001
361.0928	0.2	nouveau	38	verb	list	1	10	match	nouveau	5	1	p	0.4911400000000001
361.2928	0.0	+	38	verb	list	1	11	match	nouveau	5	1	p	0.4911400000000001
361.6926	0.0	+	38	verb	list	1	12	match	nouveau	5	1	p	0.4911400000000001
363.6917	0.0	NOUVEAU	38	verb	list	1	13	match	nouveau	5	1	p	0.4911400000000001
364.238	0.0	+	38	verb	list	1	14	match	nouveau	5	1	p	0.4911400000000001
364.1829	0.0	[response]	38	verb	list	1	15	match	nouveau	5	1	p	0.4911400000000001
366.0907	0.0	+	39	verb	phrase	1	1	match	galoper	5	1	p	0.68794
366.6505	0.2	rzfjp	39	verb	phrase	1	2	match	galoper	5	1	p	0.68794
366.85040000000004	0.0	+	39	verb	phrase	1	3	match	galoper	5	1	p	0.68794
367.2502	0.2	srp	39	verb	phrase	1	4	match	galoper	5	1	p	0.68794
367.4501	0.0	+	39	verb	phrase	1	5	match	galoper	5	1	p	0.68794
367.85	0.2	trzk	39	verb	phrase	1	6	match	galoper	5	1	p	0.68794
368.04990000000004	0.0	+	39	verb	phrase	1	7	match	galoper	5	1	p	0.68794
368.4497	0.2	bgcm	39	verb	phrase	1	8	match	galoper	5	1	p	0.68794
368.6496	0.0	+	39	verb	phrase	1	9	match	galoper	5	1	p	0.68794
369.04940000000005	0.2	galoper	39	verb	phrase	1	10	match	galoper	5	1	p	0.68794
369.2493	0.0	+	39	verb	phrase	1	11	match	galoper	5	1	p	0.68794
369.6492	0.0	+	39	verb	phrase	1	12	match	galoper	5	1	p	0.68794
371.64840000000004	0.0	GALOPER	39	verb	phrase	1	13	match	galoper	5	1	p	0.68794
372.38120000000004	0.0	+	39	verb	phrase	1	14	match	galoper	5	1	p	0.68794
372.3363	0.0	[response]	39	verb	phrase	1	15	match	galoper	5	1	p	0.68794
374.034	0.0	+	40	noun	phrase	4	1	nomatch	bleu	-1	1	y	0.8336
374.5937	0.2	dpvlfwx	40	noun	phrase	4	2	nomatch	bleu	-1	1	y	0.8336
374.7937	0.0	+	40	noun	phrase	4	3	nomatch	bleu	-1	1	y	0.8336
375.19350000000003	0.2	dans	40	noun	phrase	4	4	nomatch	bleu	-1	1	y	0.8336
375.39340000000004	0.0	+	40	noun	phrase	4	5	nomatch	bleu	-1	1	y	0.8336
375.7932	0.2	mon	40	noun	phrase	4	6	nomatch	bleu	-1	1	y	0.8336
375.9932	0.0	+	40	noun	phrase	4	7	nomatch	bleu	-1	1	y	0.8336
376.39300000000003	0.2	cendrier	40	noun	phrase	4	8	nomatch	bleu	-1	1	y	0.8336
376.59290000000004	0.0	+	40	noun	phrase	4	9	nomatch	bleu	-1	1	y	0.8336
376.9927	0.2	noir	40	noun	phrase	4	10	nomatch	bleu	-1	1	y	0.8336
377.1927	0.0	+	40	noun	phrase	4	11	nomatch	bleu	-1	1	y	0.8336
377.59250000000003	0.0	+	40	noun	phrase	4	12	nomatch	bleu	-1	1	y	0.8336
379.5916	0.0	BLEU	40	noun	phrase	4	13	nomatch	bleu	-1	1	y	0.8336
380.47130000000004	0.0	+	40	noun	phrase	4	14	nomatch	bleu	-1	1	y	0.8336
380.4252	0.0	[response]	40	noun	phrase	4	15	nomatch	bleu	-1	1	y	0.8336
389.98720000000003	0.0	+	41	noun	phrase	2	1	match	clavier	5	1	p	0.73205
390.547	0.2	clvq	41	noun	phrase	2	2	match	clavier	5	1	p	0.73205
390.74690000000004	0.0	+	41	noun	phrase	2	3	match	clavier	5	1	p	0.73205
391.1467	0.2	xndr	41	noun	phrase	2	4	match	clavier	5	1	p	0.73205
391.3467	0.0	+	41	noun	phrase	2	5	match	clavier	5	1	p	0.73205
391.7465	0.2	qmj	41	noun	phrase	2	6	match	clavier	5	1	p	0.73205
391.94640000000004	0.0	+	41	noun	phrase	2	7	match	clavier	5	1	p	0.73205
392.3462	0.2	beau	41	noun	phrase	2	8	match	clavier	5	1	p	0.73205
392.5461	0.0	+	41	noun	phrase	2	9	match	clavier	5	1	p	0.73205
392.946	0.2	clavier	41	noun	phrase	2	10	match	clavier	5	1	p	0.73205
393.14590000000004	0.0	+	41	noun	phrase	2	11	match	clavier	5	1	p	0.73205
393.5457	0.0	+	41	noun	phrase	2	12	match	clavier	5	1	p	0.73205
395.5448	0.0	CLAVIER	41	noun	phrase	2	13	match	clavier	5	1	p	0.73205
396.331	0.0	+	41	noun	phrase	2	14	match	clavier	5	1	p	0.73205
396.2769	0.0	[response]	41	noun	phrase	2	15	match	clavier	5	1	p	0.73205
397.9306	0.0	+	42	verb	phrase	2	1	match	chasser	5	1	p	0.60443
398.4902	0.2	gtdfkvn	42	verb	phrase	2	2	match	chasser	5	1	p	0.60443
398.69010000000003	0.0	+	42	verb	phrase	2	3	match	chasser	5	1	p	0.60443
399.09000000000003	0.2	zrmn	42	verb	phrase	2	4	match	chasser	5	1	p	0.60443
399.28990000000005	0.0	+	42	verb	phrase	2	5	match	chasser	5	1	p	0.60443
399.6897	0.2	szxj	42	verb	phrase	2	6	match	chasser	5	1	p	0.60443
399.8897	0.0	+	42	verb	phrase	2	7	match	chasser	5	1	p	0.60443
400.28950000000003	0.2	beaucoup	42	verb	phrase	2	8	match	chasser	5	1	p	0.60443
400.48940000000005	0.0	+	42	verb	phrase	2	9	match	chasser	5	1	p	0.60443
400.8892	0.2	chasser	42	verb	phrase	2	10	match	chasser	5	1	p	0.60443
401.08910000000003	0.0	+	42	verb	phrase	2	11	match	chasser	5	1	p	0.60443
401.4889	0.0	+	42	verb	phrase	2	12	match	chasser	5	1	p	0.60443
403.5015	0.0	CHASSER	42	verb	phrase	2	13	match	chasser	5	1	p	0.60443
404.15430000000003	0.0	+	42	verb	phrase	2	14	match	chasser	5	1	p	0.60443
404.1059	0.0	[response]	42	verb	phrase	2	15	match	chasser	5	1	p	0.60443
405.8872	0.0	+	43	noun	list	1	1	nomatch	tard	-1	1	y	0.7422
406.4469	0.2	dfjtw	43	noun	list	1	2	nomatch	tard	-1	1	y	0.7422
406.64680000000004	0.0	+	43	noun	list	1	3	nomatch	tard	-1	1	y	0.7422
407.0466	0.2	mvsc	43	noun	list	1	4	nomatch	tard	-1	1	y	0.7422
407.2465	0.0	+	43	noun	list	1	5	nomatch	tard	-1	1	y	0.7422
407.6464	0.2	kq	43	noun	list	1	6	nomatch	tard	-1	1	y	0.7422
407.84630000000004	0.0	+	43	noun	list	1	7	nomatch	tard	-1	1	y	0.7422
408.2461	0.2	tmhlvwr	43	noun	list	1	8	nomatch	tard	-1	1	y	0.7422
408.446	0.0	+	43	noun	list	1	9	nomatch	tard	-1	1	y	0.7422
408.8458	0.2	loin	43	noun	list	1	10	nomatch	tard	-1	1	y	0.7422
409.04580000000004	0.0	+	43	noun	list	1	11	nomatch	tard	-1	1	y	0.7422
409.4456	0.0	+	43	noun	list	1	12	nomatch	tard	-1	1	y	0.7422
411.44480000000004	0.0	TARD	43	noun	list	1	13	nomatch	tard	-1	1	y	0.7422
412.2309	0.0	+	43	noun	list	1	14	nomatch	tard	-1	1	y	0.7422
412.187	0.0	[response]	43	noun	list	1	15	nomatch	tard	-1	1	y	0.7422
421.8403	0.0	+	44	noun	phrase	1	1	nomatch	chasser	-1	1	y	1.0032
422.4001	0.2	tclpgxd	44	noun	phrase	1	2	nomatch	chasser	-1	1	y	1.0032
422.6	0.0	+	44	noun	phrase	1	3	nomatch	chasser	-1	1	y	1.0032
422.9998	0.2	bmnq	44	noun	phrase	1	4	nomatch	chasser	-1	1	y	1.0032
423.1997	0.0	+	44	noun	phrase	1	5	nomatch	chasser	-1	1	y	1.0032
423.5996	0.2	vpc	44	noun	phrase	1	6	nomatch	chasser	-1	1	y	1.0032
423.7995	0.0	+	44	noun	phrase	1	7	nomatch	chasser	-1	1	y	1.0032
424.1993	0.2	hpmgczv	44	noun	phrase	1	8	nomatch	chasser	-1	1	y	1.0032
424.3992	0.0	+	44	noun	phrase	1	9	nomatch	chasser	-1	1	y	1.0032
424.7991	0.2	beau	44	noun	phrase	1	10	nomatch	chasser	-1	1	y	1.0032
424.999	0.0	+	44	noun	phrase	1	11	nomatch	chasser	-1	1	y	1.0032
425.3988	0.0	+	44	noun	phrase	1	12	nomatch	chasser	-1	1	y	1.0032
427.398	0.0	CHASSER	44	noun	phrase	1	13	nomatch	chasser	-1	1	y	1.0032
428.4508	0.0	+	44	noun	phrase	1	14	nomatch	chasser	-1	1	y	1.0032
428.4012	0.0	[response]	44	noun	phrase	1	15	nomatch	chasser	-1	1	y	1.0032
429.7837	0.0	+	45	verb	phrase	2	1	match	tard	5	1	p	0.61652
430.34340000000003	0.2	bmdcjl	45	verb	phrase	2	2	match	tard	5	1	p	0.61652
430.54330000000004	0.0	+	45	verb	phrase	2	3	match	tard	5	1	p	0.61652
430.9431	0.2	trvp	45	verb	phrase	2	4	match	tard	5	1	p	0.61652
431.14300000000003	0.0	+	45	verb	phrase	2	5	match	tard	5	1	p	0.61652
431.5428	0.2	szxj	45	verb	phrase	2	6	match	tard	5	1	p	0.61652
431.74280000000005	0.0	+	45	verb	phrase	2	7	match	tard	5	1	p	0.61652
432.1426	0.2	parader	45	verb	phrase	2	8	match	tard	5	1	p	0.61652
432.34250000000003	0.0	+	45	verb	phrase	2	9	match	tard	5	1	p	0.61652
432.74240000000003	0.2	tard	45	verb	phrase	2	10	match	tard	5	1	p	0.61652
432.9422	0.0	+	45	verb	phrase	2	11	match	tard	5	1	p	0.61652
433.3421	0.0	+	45	verb	phrase	2	12	match	tard	5	1	p	0.61652
435.34130000000005	0.0	TARD	45	verb	phrase	2	13	match	tard	5	1	p	0.61652
436.0076	0.0	+	45	verb	phrase	2	14	match	tard	5	1	p	0.61652
435.9578	0.0	[response]	45	verb	phrase	2	15	match	tard	5	1	p	0.61652
437.7402	0.0	+	46	verb	phrase	4	1	nomatch	peut	-1	1	y	1.0994
438.30010000000004	0.2	gmc	46	verb	phrase	4	2	nomatch	peut	-1	1	y	1.0994
438.4999	0.0	+	46	verb	phrase	4	3	nomatch	peut	-1	1	y	1.0994
438.8997	0.2	jade	46	verb	phrase	4	4	nomatch	peut	-1	1	y	1.0994
439.09970000000004	0.0	+	46	verb	phrase	4	5	nomatch	peut	-1	1	y	1.0994
439.4995	0.2	va	46	verb	phrase	4	6	nomatch	peut	-1	1	y	1.0994
439.6994	0.0	+	46	verb	phrase	4	7	nomatch	peut	-1	1	y	1.0994
440.0992	0.2	plus	46	verb	phrase	4	8	nomatch	peut	-1	1	y	1.0994
440.2991	0.0	+	46	verb	phrase	4	9	nomatch	peut	-1	1	y	1.0994
440.69890000000004	0.2	jongler	46	verb	phrase	4	10	nomatch	peut	-1	1	y	1.0994
440.8989	0.0	+	46	verb	phrase	4	11	nomatch	peut	-1	1	y	1.0994
441.2987	0.0	+	46	verb	phrase	4	12	nomatch	peut	-1	1	y	1.0994
443.2979	0.0	PEUT	46	verb	phrase	4	13	nomatch	peut	-1	1	y	1.0994
444.444	0.0	+	46	verb	phrase	4	14	nomatch	peut	-1	1	y	1.0994
444.39730000000003	0.0	[response]	46	verb	phrase	4	15	nomatch	peut	-1	1	y	1.0994
445.6836	0.0	+	47	verb	phrase	2	1	match	parader	5	1	p	0.80259
446.24330000000003	0.2	rcm	47	verb	phrase	2	2	match	parader	5	1	p	0.80259
446.44320000000005	0.0	+	47	verb	phrase	2	3	match	parader	5	1	p	0.80259
446.843	0.2	lzdr	47	verb	phrase	2	4	match	parader	5	1	p	0.80259
447.04290000000003	0.0	+	47	verb	phrase	2	5	match	parader	5	1	p	0.80259
447.44280000000003	0.2	szxj	47	verb	phrase	2	6	match	parader	5	1	p	0.80259
447.64270000000005	0.0	+	47	verb	phrase	2	7	match	parader	5	1	p	0.80259
448.0425	0.2	mieux	47	verb	phrase	2	8	match	parader	5	1	p	0.80259
448.24240000000003	0.0	+	47	verb	phrase	2	9	match	parader	5	1	p	0.80259
448.6422	0.2	parader	47	verb	phrase	2	10	match	parader	5	1	p	0.80259
448.84220000000005	0.0	+	47	verb	phrase	2	11	match	parader	5	1	p	0.80259
449.242	0.0	+	47	verb	phrase	2	12	match	parader	5	1	p	0.80259
451.2411	0.0	PARADER	47	verb	phrase	2	13	match	parader	5	1	p	0.80259
452.094	0.0	+	47	verb	phrase	2	14	match	parader	5	1	p	0.80259
452.0437	0.0	[response]	47	verb	phrase	2	15	match	parader	5	1	p	0.80259
461.63680000000005	0.0	+	48	verb	phrase	1	1	nomatch	trop	-1	0	p	2.193
462.19650000000007	0.2	mkj	48	verb	phrase	1	2	nomatch	trop	-1	0	p	2.193
462.3964	0.0	+	48	verb	phrase	1	3	nomatch	trop	-1	0	p	2.193
462.79620000000006	0.2	vhrw	48	verb	phrase	1	4	nomatch	trop	-1	0	p	2.193
462.9961	0.0	+	48	verb	phrase	1	5	nomatch	trop	-1	0	p	2.193
463.396	0.2	kq	48	verb	phrase	1	6	nomatch	trop	-1	0	p	2.193
463.5959	0.0	+	48	verb	phrase	1	7	nomatch	trop	-1	0	p	2.193
463.9957	0.2	wmbxd	48	verb	phrase	1	8	nomatch	trop	-1	0	p	2.193
464.19560000000007	0.0	+	48	verb	phrase	1	9	nomatch	trop	-1	0	p	2.193
464.5954	0.2	plus	48	verb	phrase	1	10	nomatch	trop	-1	0	p	2.193
464.79540000000003	0.0	+	48	verb	phrase	1	11	nomatch	trop	-1	0	p	2.193
465.19520000000006	0.0	+	48	verb	phrase	1	12	nomatch	trop	-1	0	p	2.193
467.19440000000003	0.0	TROP	48	verb	phrase	1	13	nomatch	trop	-1	0	p	2.193
469.43340000000006	0.0	+	48	verb	phrase	1	14	nomatch	trop	-1	0	p	2.193
469.3874	0.0	[response]	48	verb	phrase	1	15	nomatch	trop	-1	0	p	2.193
477.59	0.0	+	49	verb	list	1	1	nomatch	rouler	-1	1	y	0.59144
478.1496	0.2	pmx	49	verb	list	1	2	nomatch	rouler	-1	1	y	0.59144
478.34960000000007	0.0	+	49	verb	list	1	3	nomatch	rouler	-1	1	y	0.59144
478.7494	0.2	hqkz	49	verb	list	1	4	nomatch	rouler	-1	1	y	0.59144
478.94930000000005	0.0	+	49	verb	list	1	5	nomatch	rouler	-1	1	y	0.59144
479.34909999999996	0.2	szxj	49	verb	list	1	6	nomatch	rouler	-1	1	y	0.59144
479.5491	0.0	+	49	verb	list	1	7	nomatch	rouler	-1	1	y	0.59144
479.94890000000004	0.2	dqjh	49	verb	list	1	8	nomatch	rouler	-1	1	y	0.59144
480.14889999999997	0.0	+	49	verb	list	1	9	nomatch	rouler	-1	1	y	0.59144
480.5487	0.2	patiner	49	verb	list	1	10	nomatch	rouler	-1	1	y	0.59144
480.74860000000007	0.0	+	49	verb	list	1	11	nomatch	rouler	-1	1	y	0.59144
481.1484	0.0	+	49	verb	list	1	12	nomatch	rouler	-1	1	y	0.59144
483.14760000000007	0.0	ROULER	49	verb	list	1	13	nomatch	rouler	-1	1	y	0.59144
483.7873	0.0	+	49	verb	list	1	14	nomatch	rouler	-1	1	y	0.59144
483.739	0.0	[response]	49	verb	list	1	15	nomatch	rouler	-1	1	y	0.59144
485.5333	0.0	+	50	verb	list	2	1	nomatch	blanc	-1	1	y	0.72941
486.093	0.2	tpr	50	verb	list	2	2	nomatch	blanc	-1	1	y	0.72941
486.2929	0.0	+	50	verb	list	2	3	nomatch	blanc	-1	1	y	0.72941
486.6927	0.2	dnbc	50	verb	list	2	4	nomatch	blanc	-1	1	y	0.72941
486.8926000000001	0.0	+	50	verb	list	2	5	nomatch	blanc	-1	1	y	0.72941
487.2925000000001	0.2	zqgk	50	verb	list	2	6	nomatch	blanc	-1	1	y	0.72941
487.49240000000003	0.0	+	50	verb	list	2	7	nomatch	blanc	-1	1	y	0.72941
487.89220000000006	0.2	chasser	50	verb	list	2	8	nomatch	blanc	-1	1	y	0.72941
488.0922	0.0	+	50	verb	list	2	9	nomatch	blanc	-1	1	y	0.72941
488.492	0.2	vert	50	verb	list	2	10	nomatch	blanc	-1	1	y	0.72941
488.6918	0.0	+	50	verb	list	2	11	nomatch	blanc	-1	1	y	0.72941
489.0917	0.0	+	50	verb	list	2	12	nomatch	blanc	-1	1	y	0.72941
491.0909	0.0	BLANC	50	verb	list	2	13	nomatch	blanc	-1	1	y	0.72941
491.8638	0.0	+	50	verb	list	2	14	nomatch	blanc	-1	1	y	0.72941
491.82030000000003	0.0	[response]	50	verb	list	2	15	nomatch	blanc	-1	1	y	0.72941
493.4898	0.0	+	51	verb	phrase	2	1	match	plonger	4	1	p	0.7213700000000001
494.0496	0.2	mkqjc	51	verb	phrase	2	2	match	plonger	4	1	p	0.7213700000000001
494.24950000000007	0.0	+	51	verb	phrase	2	3	match	plonger	4	1	p	0.7213700000000001
494.6493	0.2	bdrm	51	verb	phrase	2	4	match	plonger	4	1	p	0.7213700000000001
494.8493	0.0	+	51	verb	phrase	2	5	match	plonger	4	1	p	0.7213700000000001
495.24910000000006	0.2	kq	51	verb	phrase	2	6	match	plonger	4	1	p	0.7213700000000001
495.44890000000004	0.0	+	51	verb	phrase	2	7	match	plonger	4	1	p	0.7213700000000001
495.84880000000004	0.2	plonger	51	verb	phrase	2	8	match	plonger	4	1	p	0.7213700000000001
496.04879999999997	0.0	+	51	verb	phrase	2	9	match	plonger	4	1	p	0.7213700000000001
496.4486	0.2	tard	51	verb	phrase	2	10	match	plonger	4	1	p	0.7213700000000001
496.64850000000007	0.0	+	51	verb	phrase	2	11	match	plonger	4	1	p	0.7213700000000001
497.0482	0.0	+	51	verb	phrase	2	12	match	plonger	4	1	p	0.7213700000000001
499.0474	0.0	PLONGER	51	verb	phrase	2	13	match	plonger	4	1	p	0.7213700000000001
499.82030000000003	0.0	+	51	verb	phrase	2	14	match	plonger	4	1	p	0.7213700000000001
499.7688	0.0	[response]	51	verb	phrase	2	15	match	plonger	4	1	p	0.7213700000000001
501.4331	0.0	+	52	verb	list	1	1	nomatch	va	-1	1	y	0.82242
501.9929	0.2	pctm	52	verb	list	1	2	nomatch	va	-1	1	y	0.82242
502.1928	0.0	+	52	verb	list	1	3	nomatch	va	-1	1	y	0.82242
502.5926	0.2	trvp	52	verb	list	1	4	nomatch	va	-1	1	y	0.82242
502.79260000000005	0.0	+	52	verb	list	1	5	nomatch	va	-1	1	y	0.82242
503.19239999999996	0.2	qmj	52	verb	list	1	6	nomatch	va	-1	1	y	0.82242
503.39230000000003	0.0	+	52	verb	list	1	7	nomatch	va	-1	1	y	0.82242
503.79210000000006	0.2	lzfn	52	verb	list	1	8	nomatch	va	-1	1	y	0.82242
503.99190000000004	0.0	+	52	verb	list	1	9	nomatch	va	-1	1	y	0.82242
504.39180000000005	0.2	galoper	52	verb	list	1	10	nomatch	va	-1	1	y	0.82242
504.5918	0.0	+	52	verb	list	1	11	nomatch	va	-1	1	y	0.82242
504.9916	0.0	+	52	verb	list	1	12	nomatch	va	-1	1	y	0.82242
506.9907	0.0	VA	52	verb	list	1	13	nomatch	va	-1	1	y	0.82242
507.857	0.0	+	52	verb	list	1	14	nomatch	va	-1	1	y	0.82242
507.8131	0.0	[response]	52	verb	list	1	15	nomatch	va	-1	1	y	0.82242
509.3897	0.0	+	53	verb	phrase	4	1	nomatch	son	-1	1	y	1.1545
509.9495	0.2	ztbf	53	verb	phrase	4	2	nomatch	son	-1	1	y	1.1545
510.14940000000007	0.0	+	53	verb	phrase	4	3	nomatch	son	-1	1	y	1.1545
510.5492	0.2	jean	53	verb	phrase	4	4	nomatch	son	-1	1	y	1.1545
510.74920000000003	0.0	+	53	verb	phrase	4	5	nomatch	son	-1	1	y	1.1545
511.14900000000006	0.2	peut	53	verb	phrase	4	6	nomatch	son	-1	1	y	1.1545
511.3489	0.0	+	53	verb	phrase	4	7	nomatch	son	-1	1	y	1.1545
511.74870000000004	0.2	patiner	53	verb	phrase	4	8	nomatch	son	-1	1	y	1.1545
511.9486	0.0	+	53	verb	phrase	4	9	nomatch	son	-1	1	y	1.1545
512.3485	0.2	vite	53	verb	phrase	4	10	nomatch	son	-1	1	y	1.1545
512.5484	0.0	+	53	verb	phrase	4	11	nomatch	son	-1	1	y	1.1545
512.9481999999999	0.0	+	53	verb	phrase	4	12	nomatch	son	-1	1	y	1.1545
514.9472999999999	0.0	SON	53	verb	phrase	4	13	nomatch	son	-1	1	y	1.1545
516.1467	0.0	+	53	verb	phrase	4	14	nomatch	son	-1	1	y	1.1545
516.1017999999999	0.0	[response]	53	verb	phrase	4	15	nomatch	son	-1	1	y	1.1545
517.333	0.0	+	54	noun	phrase	3	1	match	voilier	4	1	p	0.7946600000000001
517.8928	0.2	tgwcrxn	54	noun	phrase	3	2	match	voilier	4	1	p	0.7946600000000001
518.0926999999999	0.0	+	54	noun	phrase	3	3	match	voilier	4	1	p	0.7946600000000001
518.4925	0.2	hqkz	54	noun	phrase	3	4	match	voilier	4	1	p	0.7946600000000001
518.6923999999999	0.0	+	54	noun	phrase	3	5	match	voilier	4	1	p	0.7946600000000001
519.0922999999999	0.2	mon	54	noun	phrase	3	6	match	voilier	4	1	p	0.7946600000000001
519.2922	0.0	+	54	noun	phrase	3	7	match	voilier	4	1	p	0.7946600000000001
519.692	0.2	voilier	54	noun	phrase	3	8	match	voilier	4	1	p	0.7946600000000001
519.8919	0.0	+	54	noun	phrase	3	9	match	voilier	4	1	p	0.7946600000000001
520.2918	0.2	vert	54	noun	phrase	3	10	match	voilier	4	1	p	0.7946600000000001
520.4916	0.0	+	54	noun	phrase	3	11	match	voilier	4	1	p	0.7946600000000001
520.8915	0.0	+	54	noun	phrase	3	12	match	voilier	4	1	p	0.7946600000000001
522.8906	0.0	VOILIER	54	noun	phrase	3	13	match	voilier	4	1	p	0.7946600000000001
523.7301	0.0	+	54	noun	phrase	3	14	match	voilier	4	1	p	0.7946600000000001
523.6853000000001	0.0	[response]	54	noun	phrase	3	15	match	voilier	4	1	p	0.7946600000000001
533.2862	0.0	+	55	verb	list	1	1	nomatch	nouveau	-1	1	y	1.0107
533.846	0.2	rmg	55	verb	list	1	2	nomatch	nouveau	-1	1	y	1.0107
534.0459	0.0	+	55	verb	list	1	3	nomatch	nouveau	-1	1	y	1.0107
534.4458	0.2	xhj	55	verb	list	1	4	nomatch	nouveau	-1	1	y	1.0107
534.6456	0.0	+	55	verb	list	1	5	nomatch	nouveau	-1	1	y	1.0107
535.0455	0.2	kq	55	verb	list	1	6	nomatch	nouveau	-1	1	y	1.0107
535.2454	0.0	+	55	verb	list	1	7	nomatch	nouveau	-1	1	y	1.0107
535.6451999999999	0.2	mbntjc	55	verb	list	1	8	nomatch	nouveau	-1	1	y	1.0107
535.8451	0.0	+	55	verb	list	1	9	nomatch	nouveau	-1	1	y	1.0107
536.245	0.2	petit	55	verb	list	1	10	nomatch	nouveau	-1	1	y	1.0107
536.4449	0.0	+	55	verb	list	1	11	nomatch	nouveau	-1	1	y	1.0107
536.8448	0.0	+	55	verb	list	1	12	nomatch	nouveau	-1	1	y	1.0107
538.8439	0.0	NOUVEAU	55	verb	list	1	13	nomatch	nouveau	-1	1	y	1.0107
539.8968	0.0	+	55	verb	list	1	14	nomatch	nouveau	-1	1	y	1.0107
539.8546	0.0	[response]	55	verb	list	1	15	nomatch	nouveau	-1	1	y	1.0107
541.2294999999999	0.0	+	56	noun	list	1	1	nomatch	casier	-1	1	y	1.0325
541.7892999999999	0.2	gkbl	56	noun	list	1	2	nomatch	casier	-1	1	y	1.0325
541.9892	0.0	+	56	noun	list	1	3	nomatch	casier	-1	1	y	1.0325
542.389	0.2	vhrw	56	noun	list	1	4	nomatch	casier	-1	1	y	1.0325
542.5889999999999	0.0	+	56	noun	list	1	5	nomatch	casier	-1	1	y	1.0325
542.9888	0.2	zqgk	56	noun	list	1	6	nomatch	casier	-1	1	y	1.0325
543.1886999999999	0.0	+	56	noun	list	1	7	nomatch	casier	-1	1	y	1.0325
543.6017999999999	0.2	mjwg	56	noun	list	1	8	nomatch	casier	-1	1	y	1.0325
543.7883999999999	0.0	+	56	noun	list	1	9	nomatch	casier	-1	1	y	1.0325
544.2016	0.2	clavier	56	noun	list	1	10	nomatch	casier	-1	1	y	1.0325
544.4014	0.0	+	56	noun	list	1	11	nomatch	casier	-1	1	y	1.0325
544.8013	0.0	+	56	noun	list	1	12	nomatch	casier	-1	1	y	1.0325
546.8004999999999	0.0	CASIER	56	noun	list	1	13	nomatch	casier	-1	1	y	1.0325
547.8798999999999	0.0	+	56	noun	list	1	14	nomatch	casier	-1	1	y	1.0325
547.8331	0.0	[response]	56	noun	list	1	15	nomatch	casier	-1	1	y	1.0325
549.1862	0.0	+	57	verb	phrase	1	1	nomatch	voilier	-1	1	y	0.67074
549.7459	0.2	zvrbt	57	verb	phrase	1	2	nomatch	voilier	-1	1	y	0.67074
549.9458	0.0	+	57	verb	phrase	1	3	nomatch	voilier	-1	1	y	0.67074
550.3456	0.2	bdrm	57	verb	phrase	1	4	nomatch	voilier	-1	1	y	0.67074
550.5455999999999	0.0	+	57	verb	phrase	1	5	nomatch	voilier	-1	1	y	0.67074
550.9454	0.2	szxj	57	verb	phrase	1	6	nomatch	voilier	-1	1	y	0.67074
551.1452999999999	0.0	+	57	verb	phrase	1	7	nomatch	voilier	-1	1	y	0.67074
551.5451999999999	0.2	svqkdtfc	57	verb	phrase	1	8	nomatch	voilier	-1	1	y	0.67074
551.745	0.0	+	57	verb	phrase	1	9	nomatch	voilier	-1	1	y	0.67074
552.1449	0.2	jongler	57	verb	phrase	1	10	nomatch	voilier	-1	1	y	0.67074
552.3448	0.0	+	57	verb	phrase	1	11	nomatch	voilier	-1	1	y	0.67074
552.7446	0.0	+	57	verb	phrase	1	12	nomatch	voilier	-1	1	y	0.67074
554.7438	0.0	VOILIER	57	verb	phrase	1	13	nomatch	voilier	-1	1	y	0.67074
555.4634	0.0	+	57	verb	phrase	1	14	nomatch	voilier	-1	1	y	0.67074
555.4145	0.0	[response]	57	verb	phrase	1	15	nomatch	voilier	-1	1	y	0.67074
557.1295	0.0	+	58	verb	phrase	3	1	match	patiner	4	1	p	0.76873
557.6891999999999	0.2	wzjhmb	58	verb	phrase	3	2	match	patiner	4	1	p	0.76873
557.889	0.0	+	58	verb	phrase	3	3	match	patiner	4	1	p	0.76873
558.2889	0.2	dnbc	58	verb	phrase	3	4	match	patiner	4	1	p	0.76873
558.4889	0.0	+	58	verb	phrase	3	5	match	patiner	4	1	p	0.76873
558.8887	0.2	peut	58	verb	phrase	3	6	match	patiner	4	1	p	0.76873
559.0885	0.0	+	58	verb	phrase	3	7	match	patiner	4	1	p	0.76873
559.4884	0.2	patiner	58	verb	phrase	3	8	match	patiner	4	1	p	0.76873
559.7017	0.0	+	58	verb	phrase	3	9	match	patiner	4	1	p	0.76873
560.1015	0.2	ainsi	58	verb	phrase	3	10	match	patiner	4	1	p	0.76873
560.3014	0.0	+	58	verb	phrase	3	11	match	patiner	4	1	p	0.76873
560.7012	0.0	+	58	verb	phrase	3	12	match	patiner	4	1	p	0.76873
562.7003	0.0	PATINER	58	verb	phrase	3	13	match	patiner	4	1	p	0.76873
563.5133	0.0	+	58	verb	phrase	3	14	match	patiner	4	1	p	0.76873
563.469	0.0	[response]	58	verb	phrase	3	15	match	patiner	4	1	p	0.76873
565.0861	0.0	+	59	verb	phrase	3	1	nomatch	loin	-1	1	y	0.8346100000000001
565.6458	0.2	vfwzx	59	verb	phrase	3	2	nomatch	loin	-1	1	y	0.8346100000000001
565.8457999999999	0.0	+	59	verb	phrase	3	3	nomatch	loin	-1	1	y	0.8346100000000001
566.2455	0.2	srp	59	verb	phrase	3	4	nomatch	loin	-1	1	y	0.8346100000000001
566.4454999999999	0.0	+	59	verb	phrase	3	5	nomatch	loin	-1	1	y	0.8346100000000001
566.8453	0.2	va	59	verb	phrase	3	6	nomatch	loin	-1	1	y	0.8346100000000001
567.0451999999999	0.0	+	59	verb	phrase	3	7	nomatch	loin	-1	1	y	0.8346100000000001
567.4449999999999	0.2	chasser	59	verb	phrase	3	8	nomatch	loin	-1	1	y	0.8346100000000001
567.645	0.0	+	59	verb	phrase	3	9	nomatch	loin	-1	1	y	0.8346100000000001
568.0448	0.2	vite	59	verb	phrase	3	10	nomatch	loin	-1	1	y	0.8346100000000001
568.2447	0.0	+	59	verb	phrase	3	11	nomatch	loin	-1	1	y	0.8346100000000001
568.6446	0.0	+	59	verb	phrase	3	12	nomatch	loin	-1	1	y	0.8346100000000001
570.6437	0.0	LOIN	59	verb	phrase	3	13	nomatch	loin	-1	1	y	0.8346100000000001
571.5231	0.0	+	59	verb	phrase	3	14	nomatch	loin	-1	1	y	0.8346100000000001
571.4783	0.0	[response]	59	verb	phrase	3	15	nomatch	loin	-1	1	y	0.8346100000000001
573.0292999999999	0.0	+	60	noun	list	4	1	nomatch	casier	-1	1	y	1.1731000000000003
573.5890999999999	0.2	dcf	60	noun	list	4	2	nomatch	casier	-1	1	y	1.1731000000000003
573.789	0.0	+	60	noun	list	4	3	nomatch	casier	-1	1	y	1.1731000000000003
574.1888	0.2	luc	60	noun	list	4	4	nomatch	casier	-1	1	y	1.1731000000000003
574.3888	0.0	+	60	noun	list	4	5	nomatch	casier	-1	1	y	1.1731000000000003
574.7886	0.2	son	60	noun	list	4	6	nomatch	casier	-1	1	y	1.1731000000000003
574.9884	0.0	+	60	noun	list	4	7	nomatch	casier	-1	1	y	1.1731000000000003
575.4015999999999	0.2	beaucoup	60	noun	list	4	8	nomatch	casier	-1	1	y	1.1731000000000003
575.5880999999999	0.0	+	60	noun	list	4	9	nomatch	casier	-1	1	y	1.1731000000000003
576.0014	0.2	tablier	60	noun	list	4	10	nomatch	casier	-1	1	y	1.1731000000000003
576.2013999999999	0.0	+	60	noun	list	4	11	nomatch	casier	-1	1	y	1.1731000000000003
576.6011	0.0	+	60	noun	list	4	12	nomatch	casier	-1	1	y	1.1731000000000003
578.6003	0.0	CASIER	60	noun	list	4	13	nomatch	casier	-1	1	y	1.1731000000000003
579.8263	0.0	+	60	noun	list	4	14	nomatch	casier	-1	1	y	1.1731000000000003
579.7733999999999	0.0	[response]	60	noun	list	4	15	nomatch	casier	-1	1	y	1.1731000000000003
580.986	0.0	+	61	verb	phrase	1	1	match	jongler	5	1	p	0.73648
581.5457	0.2	nsbjltg	61	verb	phrase	1	2	match	jongler	5	1	p	0.73648
581.7456	0.0	+	61	verb	phrase	1	3	match	jongler	5	1	p	0.73648
582.1455	0.2	srp	61	verb	phrase	1	4	match	jongler	5	1	p	0.73648
582.3453999999999	0.0	+	61	verb	phrase	1	5	match	jongler	5	1	p	0.73648
582.7452	0.2	kq	61	verb	phrase	1	6	match	jongler	5	1	p	0.73648
582.9450999999999	0.0	+	61	verb	phrase	1	7	match	jongler	5	1	p	0.73648
583.3448999999999	0.2	mzqv	61	verb	phrase	1	8	match	jongler	5	1	p	0.73648
583.5448	0.0	+	61	verb	phrase	1	9	match	jongler	5	1	p	0.73648
583.9447	0.2	jongler	61	verb	phrase	1	10	match	jongler	5	1	p	0.73648
584.1446	0.0	+	61	verb	phrase	1	11	match	jongler	5	1	p	0.73648
584.5444	0.0	+	61	verb	phrase	1	12	match	jongler	5	1	p	0.73648
586.5436	0.0	JONGLER	61	verb	phrase	1	13	match	jongler	5	1	p	0.73648
587.3297	0.0	+	61	verb	phrase	1	14	match	jongler	5	1	p	0.73648
587.28	0.0	[response]	61	verb	phrase	1	15	match	jongler	5	1	p	0.73648
588.9293	0.0	+	62	verb	list	2	1	nomatch	parader	-1	1	y	1.1723
589.4889	0.2	lczj	62	verb	list	2	2	nomatch	parader	-1	1	y	1.1723
589.6889	0.0	+	62	verb	list	2	3	nomatch	parader	-1	1	y	1.1723
590.1021	0.2	bmnq	62	verb	list	2	4	nomatch	parader	-1	1	y	1.1723
590.2886	0.0	+	62	verb	list	2	5	nomatch	parader	-1	1	y	1.1723
590.6884	0.2	szxj	62	verb	list	2	6	nomatch	parader	-1	1	y	1.1723
590.9015999999999	0.0	+	62	verb	list	2	7	nomatch	parader	-1	1	y	1.1723
591.3016	0.2	vieux	62	verb	list	2	8	nomatch	parader	-1	1	y	1.1723
591.5015	0.0	+	62	verb	list	2	9	nomatch	parader	-1	1	y	1.1723
591.9013	0.2	galoper	62	verb	list	2	10	nomatch	parader	-1	1	y	1.1723
592.1012	0.0	+	62	verb	list	2	11	nomatch	parader	-1	1	y	1.1723
592.501	0.0	+	62	verb	list	2	12	nomatch	parader	-1	1	y	1.1723
594.5002	0.0	PARADER	62	verb	list	2	13	nomatch	parader	-1	1	y	1.1723
595.7262	0.0	+	62	verb	list	2	14	nomatch	parader	-1	1	y	1.1723
595.6725	0.0	[response]	62	verb	list	2	15	nomatch	parader	-1	1	y	1.1723
604.8824999999999	0.0	+	63	verb	list	4	1	match	noir	5	1	p	0.74221
605.4422	0.2	ptlrxk	63	verb	list	4	2	match	noir	5	1	p	0.74221
605.6420999999999	0.0	+	63	verb	list	4	3	match	noir	5	1	p	0.74221
606.0419999999999	0.2	jean	63	verb	list	4	4	match	noir	5	1	p	0.74221
606.2419	0.0	+	63	verb	list	4	5	match	noir	5	1	p	0.74221
606.6417	0.2	son	63	verb	list	4	6	match	noir	5	1	p	0.74221
606.8416	0.0	+	63	verb	list	4	7	match	noir	5	1	p	0.74221
607.2414	0.2	plonger	63	verb	list	4	8	match	noir	5	1	p	0.74221
607.4413	0.0	+	63	verb	list	4	9	match	noir	5	1	p	0.74221
607.8412	0.2	noir	63	verb	list	4	10	match	noir	5	1	p	0.74221
608.0409999999999	0.0	+	63	verb	list	4	11	match	noir	5	1	p	0.74221
608.4408999999999	0.0	+	63	verb	list	4	12	match	noir	5	1	p	0.74221
610.4400999999999	0.0	NOIR	63	verb	list	4	13	match	noir	5	1	p	0.74221
611.2264	0.0	+	63	verb	list	4	14	match	noir	5	1	p	0.74221
611.1822999999999	0.0	[response]	63	verb	list	4	15	match	noir	5	1	p	0.74221
612.8390999999999	0.0	+	64	noun	phrase	1	1	match	vert	5	1	p	0.53642
613.3987999999999	0.2	rsc	64	noun	phrase	1	2	match	vert	5	1	p	0.53642
613.5987	0.0	+	64	noun	phrase	1	3	match	vert	5	1	p	0.53642
613.9986	0.2	hqkz	64	noun	phrase	1	4	match	vert	5	1	p	0.53642
614.1985	0.0	+	64	noun	phrase	1	5	match	vert	5	1	p	0.53642
614.5983	0.2	zqgk	64	noun	phrase	1	6	match	vert	5	1	p	0.53642
614.7982	0.0	+	64	noun	phrase	1	7	match	vert	5	1	p	0.53642
615.1981	0.2	vwkrxh	64	noun	phrase	1	8	match	vert	5	1	p	0.53642
615.3979999999999	0.0	+	64	noun	phrase	1	9	match	vert	5	1	p	0.53642
615.7977999999999	0.2	vert	64	noun	phrase	1	10	match	vert	5	1	p	0.53642
615.9977	0.0	+	64	noun	phrase	1	11	match	vert	5	1	p	0.53642
616.3974999999999	0.0	+	64	noun	phrase	1	12	match	vert	5	1	p	0.53642
618.3967	0.0	VERT	64	noun	phrase	1	13	match	vert	5	1	p	0.53642
618.9829	0.0	+	64	noun	phrase	1	14	match	vert	5	1	p	0.53642
618.9331	0.0	[response]	64	noun	phrase	1	15	match	vert	5	1	p	0.53642
620.7823999999999	0.0	+	65	verb	phrase	1	1	nomatch	petit	-1	1	y	0.80919
621.3421	0.2	zltbq	65	verb	phrase	1	2	nomatch	petit	-1	1	y	0.80919
621.5419999999999	0.0	+	65	verb	phrase	1	3	nomatch	petit	-1	1	y	0.80919
621.9418	0.2	trvp	65	verb	phrase	1	4	nomatch	petit	-1	1	y	0.80919
622.1417	0.0	+	65	verb	phrase	1	5	nomatch	petit	-1	1	y	0.80919
622.5416	0.2	szxj	65	verb	phrase	1	6	nomatch	petit	-1	1	y	0.80919
622.7415	0.0	+	65	verb	phrase	1	7	nomatch	petit	-1	1	y	0.80919
623.1414	0.2	xfpwgcb	65	verb	phrase	1	8	nomatch	petit	-1	1	y	0.80919
623.3412	0.0	+	65	verb	phrase	1	9	nomatch	petit	-1	1	y	0.80919
623.741	0.2	beaucoup	65	verb	phrase	1	10	nomatch	petit	-1	1	y	0.80919
623.9409999999999	0.0	+	65	verb	phrase	1	11	nomatch	petit	-1	1	y	0.80919
624.3408999999999	0.0	+	65	verb	phrase	1	12	nomatch	petit	-1	1	y	0.80919
626.3399999999999	0.0	PETIT	65	verb	phrase	1	13	nomatch	petit	-1	1	y	0.80919
627.193	0.0	+	65	verb	phrase	1	14	nomatch	petit	-1	1	y	0.80919
627.1492	0.0	[response]	65	verb	phrase	1	15	nomatch	petit	-1	1	y	0.80919
628.7389999999999	0.0	+	66	verb	list	1	1	match	vert	5	1	p	0.6653
629.2986999999999	0.2	jqmsn	66	verb	list	1	2	match	vert	5	1	p	0.6653
629.4986	0.0	+	66	verb	list	1	3	match	vert	5	1	p	0.6653
629.8985	0.2	bdrm	66	verb	list	1	4	match	vert	5	1	p	0.6653
630.0984	0.0	+	66	verb	list	1	5	match	vert	5	1	p	0.6653
630.4982	0.2	zqgk	66	verb	list	1	6	match	vert	5	1	p	0.6653
630.6981	0.0	+	66	verb	list	1	7	match	vert	5	1	p	0.6653
631.0979	0.2	dxzsrbm	66	verb	list	1	8	match	vert	5	1	p	0.6653
631.2978999999999	0.0	+	66	verb	list	1	9	match	vert	5	1	p	0.6653
631.6976999999999	0.2	vert	66	verb	list	1	10	match	vert	5	1	p	0.6653
631.8976	0.0	+	66	verb	list	1	11	match	vert	5	1	p	0.6653
632.2973999999999	0.0	+	66	verb	list	1	12	match	vert	5	1	p	0.6653
634.2966	0.0	VERT	66	verb	list	1	13	match	vert	5	1	p	0.6653
635.0163	0.0	+	66	verb	list	1	14	match	vert	5	1	p	0.6653
634.9619	0.0	[response]	66	verb	list	1	15	match	vert	5	1	p	0.6653
644.6789	0.0	+	67	noun	phrase	3	1	match	nouveau	4	1	p	0.62999
645.2519	0.2	nktv	67	noun	phrase	3	2	match	nouveau	4	1	p	0.62999
645.4517999999999	0.0	+	67	noun	phrase	3	3	match	nouveau	4	1	p	0.62999
645.8516999999999	0.2	glcf	67	noun	phrase	3	4	match	nouveau	4	1	p	0.62999
646.0516	0.0	+	67	noun	phrase	3	5	match	nouveau	4	1	p	0.62999
646.4515	0.2	son	67	noun	phrase	3	6	match	nouveau	4	1	p	0.62999
646.6513	0.0	+	67	noun	phrase	3	7	match	nouveau	4	1	p	0.62999
647.0512	0.2	nouveau	67	noun	phrase	3	8	match	nouveau	4	1	p	0.62999
647.2511	0.0	+	67	noun	phrase	3	9	match	nouveau	4	1	p	0.62999
647.6509	0.2	clavier	67	noun	phrase	3	10	match	nouveau	4	1	p	0.62999
647.8507999999999	0.0	+	67	noun	phrase	3	11	match	nouveau	4	1	p	0.62999
648.2506999999999	0.0	+	67	noun	phrase	3	12	match	nouveau	4	1	p	0.62999
650.2497999999999	0.0	NOUVEAU	67	noun	phrase	3	13	match	nouveau	4	1	p	0.62999
650.9294	0.0	+	67	noun	phrase	3	14	match	nouveau	4	1	p	0.62999
650.8797999999999	0.0	[response]	67	noun	phrase	3	15	match	nouveau	4	1	p	0.62999
652.6355	0.0	+	68	verb	list	1	1	nomatch	vert	-1	1	y	0.59903
653.1952	0.2	mlnwhgf	68	verb	list	1	2	nomatch	vert	-1	1	y	0.59903
653.3951	0.0	+	68	verb	list	1	3	nomatch	vert	-1	1	y	0.59903
653.795	0.2	lzdr	68	verb	list	1	4	nomatch	vert	-1	1	y	0.59903
653.9948999999999	0.0	+	68	verb	list	1	5	nomatch	vert	-1	1	y	0.59903
654.3947	0.2	vpc	68	verb	list	1	6	nomatch	vert	-1	1	y	0.59903
654.5946	0.0	+	68	verb	list	1	7	nomatch	vert	-1	1	y	0.59903
654.9945	0.2	xhwmqlt	68	verb	list	1	8	nomatch	vert	-1	1	y	0.59903
655.1944	0.0	+	68	verb	list	1	9	nomatch	vert	-1	1	y	0.59903
655.5942	0.2	bleu	68	verb	list	1	10	nomatch	vert	-1	1	y	0.59903
655.7941999999999	0.0	+	68	verb	list	1	11	nomatch	vert	-1	1	y	0.59903
656.194	0.0	+	68	verb	list	1	12	nomatch	vert	-1	1	y	0.59903
658.1931	0.0	VERT	68	verb	list	1	13	nomatch	vert	-1	1	y	0.59903
658.846	0.0	+	68	verb	list	1	14	nomatch	vert	-1	1	y	0.59903
658.7921	0.0	[response]	68	verb	list	1	15	nomatch	vert	-1	1	y	0.59903
660.5788	0.0	+	69	verb	phrase	4	1	match	rouler	4	1	p	0.7388000000000001
661.1518	0.2	hkfvpgt	69	verb	phrase	4	2	match	rouler	4	1	p	0.7388000000000001
661.3384	0.0	+	69	verb	phrase	4	3	match	rouler	4	1	p	0.7388000000000001
661.7515999999999	0.2	luc	69	verb	phrase	4	4	match	rouler	4	1	p	0.7388000000000001
661.9515	0.0	+	69	verb	phrase	4	5	match	rouler	4	1	p	0.7388000000000001
662.3512999999999	0.2	va	69	verb	phrase	4	6	match	rouler	4	1	p	0.7388000000000001
662.5512	0.0	+	69	verb	phrase	4	7	match	rouler	4	1	p	0.7388000000000001
662.9511	0.2	rouler	69	verb	phrase	4	8	match	rouler	4	1	p	0.7388000000000001
663.151	0.0	+	69	verb	phrase	4	9	match	rouler	4	1	p	0.7388000000000001
663.5508	0.2	loin	69	verb	phrase	4	10	match	rouler	4	1	p	0.7388000000000001
663.7507999999999	0.0	+	69	verb	phrase	4	11	match	rouler	4	1	p	0.7388000000000001
664.1505999999999	0.0	+	69	verb	phrase	4	12	match	rouler	4	1	p	0.7388000000000001
666.1496	0.0	ROULER	69	verb	phrase	4	13	match	rouler	4	1	p	0.7388000000000001
666.9359999999999	0.0	+	69	verb	phrase	4	14	match	rouler	4	1	p	0.7388000000000001
666.8883999999999	0.0	[response]	69	verb	phrase	4	15	match	rouler	4	1	p	0.7388000000000001
676.5319999999999	0.0	+	70	verb	list	3	1	nomatch	beaucoup	-1	1	y	0.71744
677.0917	0.2	jztfx	70	verb	list	3	2	nomatch	beaucoup	-1	1	y	0.71744
677.2916	0.0	+	70	verb	list	3	3	nomatch	beaucoup	-1	1	y	0.71744
677.6915	0.2	lzdr	70	verb	list	3	4	nomatch	beaucoup	-1	1	y	0.71744
677.8914	0.0	+	70	verb	list	3	5	nomatch	beaucoup	-1	1	y	0.71744
678.2912	0.2	leur	70	verb	list	3	6	nomatch	beaucoup	-1	1	y	0.71744
678.4911	0.0	+	70	verb	list	3	7	nomatch	beaucoup	-1	1	y	0.71744
678.891	0.2	patiner	70	verb	list	3	8	nomatch	beaucoup	-1	1	y	0.71744
679.0908999999999	0.0	+	70	verb	list	3	9	nomatch	beaucoup	-1	1	y	0.71744
679.4907	0.2	bleu	70	verb	list	3	10	nomatch	beaucoup	-1	1	y	0.71744
679.6906	0.0	+	70	verb	list	3	11	nomatch	beaucoup	-1	1	y	0.71744
680.0903999999999	0.0	+	70	verb	list	3	12	nomatch	beaucoup	-1	1	y	0.71744
682.0894999999999	0.0	BEAUCOUP	70	verb	list	3	13	nomatch	beaucoup	-1	1	y	0.71744
682.8490999999999	0.0	+	70	verb	list	3	14	nomatch	beaucoup	-1	1	y	0.71744
682.807	0.0	[response]	70	verb	list	3	15	nomatch	beaucoup	-1	1	y	0.71744
684.4886	0.0	+	71	verb	list	1	1	match	parader	5	1	p	0.7443
685.0484	0.2	qprgztd	71	verb	list	1	2	match	parader	5	1	p	0.7443
685.2483	0.0	+	71	verb	list	1	3	match	parader	5	1	p	0.7443
685.6481	0.2	mvsc	71	verb	list	1	4	match	parader	5	1	p	0.7443
685.848	0.0	+	71	verb	list	1	5	match	parader	5	1	p	0.7443
686.2479	0.2	szxj	71	verb	list	1	6	match	parader	5	1	p	0.7443
686.4476999999999	0.0	+	71	verb	list	1	7	match	parader	5	1	p	0.7443
686.8475999999999	0.2	ntsmd	71	verb	list	1	8	match	parader	5	1	p	0.7443
687.0475	0.0	+	71	verb	list	1	9	match	parader	5	1	p	0.7443
687.4472	0.2	parader	71	verb	list	1	10	match	parader	5	1	p	0.7443
687.6472	0.0	+	71	verb	list	1	11	match	parader	5	1	p	0.7443
688.0471	0.0	+	71	verb	list	1	12	match	parader	5	1	p	0.7443
690.0462	0.0	PARADER	71	verb	list	1	13	match	parader	5	1	p	0.7443
690.8325	0.0	+	71	verb	list	1	14	match	parader	5	1	p	0.7443
690.7905	0.0	[response]	71	verb	list	1	15	match	parader	5	1	p	0.7443
692.4318999999999	0.0	+	72	noun	list	1	1	match	vite	5	1	p	0.58386
692.9916999999999	0.2	jtqd	72	noun	list	1	2	match	vite	5	1	p	0.58386
693.1915	0.0	+	72	noun	list	1	3	match	vite	5	1	p	0.58386
693.5912999999999	0.2	hqkz	72	noun	list	1	4	match	vite	5	1	p	0.58386
693.7913	0.0	+	72	noun	list	1	5	match	vite	5	1	p	0.58386
694.1911	0.2	kq	72	noun	list	1	6	match	vite	5	1	p	0.58386
694.391	0.0	+	72	noun	list	1	7	match	vite	5	1	p	0.58386
694.7908	0.2	flntzqrp	72	noun	list	1	8	match	vite	5	1	p	0.58386
694.9907	0.0	+	72	noun	list	1	9	match	vite	5	1	p	0.58386
695.3906	0.2	vite	72	noun	list	1	10	match	vite	5	1	p	0.58386
695.5903999999999	0.0	+	72	noun	list	1	11	match	vite	5	1	p	0.58386
695.9903999999999	0.0	+	72	noun	list	1	12	match	vite	5	1	p	0.58386
697.9894999999999	0.0	VITE	72	noun	list	1	13	match	vite	5	1	p	0.58386
698.6159	0.0	+	72	noun	list	1	14	match	vite	5	1	p	0.58386
698.5734	0.0	[response]	72	noun	list	1	15	match	vite	5	1	p	0.58386
700.3884999999999	0.0	+	73	verb	list	3	1	nomatch	leur	-1	1	y	0.95827
700.9483	0.2	wlnxj	73	verb	list	3	2	nomatch	leur	-1	1	y	0.95827
701.1482	0.0	+	73	verb	list	3	3	nomatch	leur	-1	1	y	0.95827
701.548	0.2	vhrw	73	verb	list	3	4	nomatch	leur	-1	1	y	0.95827
701.7479	0.0	+	73	verb	list	3	5	nomatch	leur	-1	1	y	0.95827
702.1477	0.2	son	73	verb	list	3	6	nomatch	leur	-1	1	y	0.95827
702.3475999999999	0.0	+	73	verb	list	3	7	nomatch	leur	-1	1	y	0.95827
702.7475	0.2	galoper	73	verb	list	3	8	nomatch	leur	-1	1	y	0.95827
702.9474	0.0	+	73	verb	list	3	9	nomatch	leur	-1	1	y	0.95827
703.3471	0.2	vert	73	verb	list	3	10	nomatch	leur	-1	1	y	0.95827
703.5471	0.0	+	73	verb	list	3	11	nomatch	leur	-1	1	y	0.95827
703.9468999999999	0.0	+	73	verb	list	3	12	nomatch	leur	-1	1	y	0.95827
705.9461	0.0	LEUR	73	verb	list	3	13	nomatch	leur	-1	1	y	0.95827
706.9589	0.0	+	73	verb	list	3	14	nomatch	leur	-1	1	y	0.95827
706.9044	0.0	[response]	73	verb	list	3	15	nomatch	leur	-1	1	y	0.95827
708.3317999999999	0.0	+	74	verb	phrase	4	1	match	adam	2	1	p	0.76071
708.8915999999999	0.2	jgfr	74	verb	phrase	4	2	match	adam	2	1	p	0.76071
709.0915	0.0	+	74	verb	phrase	4	3	match	adam	2	1	p	0.76071
709.4911999999999	0.2	adam	74	verb	phrase	4	4	match	adam	2	1	p	0.76071
709.6912	0.0	+	74	verb	phrase	4	5	match	adam	2	1	p	0.76071
710.091	0.2	doit	74	verb	phrase	4	6	match	adam	2	1	p	0.76071
710.2909999999999	0.0	+	74	verb	phrase	4	7	match	adam	2	1	p	0.76071
710.6908	0.2	plonger	74	verb	phrase	4	8	match	adam	2	1	p	0.76071
710.8906999999999	0.0	+	74	verb	phrase	4	9	match	adam	2	1	p	0.76071
711.2905	0.2	tard	74	verb	phrase	4	10	match	adam	2	1	p	0.76071
711.4903999999999	0.0	+	74	verb	phrase	4	11	match	adam	2	1	p	0.76071
711.8902999999999	0.0	+	74	verb	phrase	4	12	match	adam	2	1	p	0.76071
713.8893999999999	0.0	ADAM	74	verb	phrase	4	13	match	adam	2	1	p	0.76071
714.7022	0.0	+	74	verb	phrase	4	14	match	adam	2	1	p	0.76071
714.6501	0.0	[response]	74	verb	phrase	4	15	match	adam	2	1	p	0.76071
716.2882999999999	0.0	+	75	noun	list	2	1	match	plus	4	1	p	0.57508
716.8482	0.2	gdwjmv	75	noun	list	2	2	match	plus	4	1	p	0.57508
717.0481	0.0	+	75	noun	list	2	3	match	plus	4	1	p	0.57508
717.4479	0.2	vhrw	75	noun	list	2	4	match	plus	4	1	p	0.57508
717.6478	0.0	+	75	noun	list	2	5	match	plus	4	1	p	0.57508
718.0477	0.2	zqgk	75	noun	list	2	6	match	plus	4	1	p	0.57508
718.2475	0.0	+	75	noun	list	2	7	match	plus	4	1	p	0.57508
718.6474	0.2	plus	75	noun	list	2	8	match	plus	4	1	p	0.57508
718.8473	0.0	+	75	noun	list	2	9	match	plus	4	1	p	0.57508
719.2470999999999	0.2	tablier	75	noun	list	2	10	match	plus	4	1	p	0.57508
719.447	0.0	+	75	noun	list	2	11	match	plus	4	1	p	0.57508
719.8469	0.0	+	75	noun	list	2	12	match	plus	4	1	p	0.57508
721.846	0.0	PLUS	75	noun	list	2	13	match	plus	4	1	p	0.57508
722.4721999999999	0.0	+	75	noun	list	2	14	match	plus	4	1	p	0.57508
722.4211	0.0	[response]	75	noun	list	2	15	match	plus	4	1	p	0.57508
724.2316999999999	0.0	+	76	verb	phrase	1	1	match	tard	5	1	p	0.50932
724.7914	0.2	pwd	76	verb	phrase	1	2	match	tard	5	1	p	0.50932
724.9912999999999	0.0	+	76	verb	phrase	1	3	match	tard	5	1	p	0.50932
725.3911999999999	0.2	lzdr	76	verb	phrase	1	4	match	tard	5	1	p	0.50932
725.5911	0.0	+	76	verb	phrase	1	5	match	tard	5	1	p	0.50932
725.9909	0.2	trzk	76	verb	phrase	1	6	match	tard	5	1	p	0.50932
726.1908999999999	0.0	+	76	verb	phrase	1	7	match	tard	5	1	p	0.50932
726.5907	0.2	dxzsrbm	76	verb	phrase	1	8	match	tard	5	1	p	0.50932
726.7905999999999	0.0	+	76	verb	phrase	1	9	match	tard	5	1	p	0.50932
727.1904	0.2	tard	76	verb	phrase	1	10	match	tard	5	1	p	0.50932
727.3902999999999	0.0	+	76	verb	phrase	1	11	match	tard	5	1	p	0.50932
727.7901999999999	0.0	+	76	verb	phrase	1	12	match	tard	5	1	p	0.50932
729.7892999999999	0.0	TARD	76	verb	phrase	1	13	match	tard	5	1	p	0.50932
730.3490999999999	0.0	+	76	verb	phrase	1	14	match	tard	5	1	p	0.50932
730.2986	0.0	[response]	76	verb	phrase	1	15	match	tard	5	1	p	0.50932
732.1882999999999	0.0	+	77	verb	list	2	1	match	bleu	5	1	p	0.64873
732.7480999999999	0.2	nmld	77	verb	list	2	2	match	bleu	5	1	p	0.64873
732.948	0.0	+	77	verb	list	2	3	match	bleu	5	1	p	0.64873
733.3478	0.2	bdrm	77	verb	list	2	4	match	bleu	5	1	p	0.64873
733.5477	0.0	+	77	verb	list	2	5	match	bleu	5	1	p	0.64873
733.9475	0.2	qmj	77	verb	list	2	6	match	bleu	5	1	p	0.64873
734.1474999999999	0.0	+	77	verb	list	2	7	match	bleu	5	1	p	0.64873
734.5473	0.2	parader	77	verb	list	2	8	match	bleu	5	1	p	0.64873
734.7471999999999	0.0	+	77	verb	list	2	9	match	bleu	5	1	p	0.64873
735.1470999999999	0.2	bleu	77	verb	list	2	10	match	bleu	5	1	p	0.64873
735.347	0.0	+	77	verb	list	2	11	match	bleu	5	1	p	0.64873
735.7468	0.0	+	77	verb	list	2	12	match	bleu	5	1	p	0.64873
737.746	0.0	BLEU	77	verb	list	2	13	match	bleu	5	1	p	0.64873
738.4388	0.0	+	77	verb	list	2	14	match	bleu	5	1	p	0.64873
738.3947	0.0	[response]	77	verb	list	2	15	match	bleu	5	1	p	0.64873
740.1315999999999	0.0	+	78	verb	list	3	1	nomatch	grand	-1	1	y	1.0081
740.6913	0.2	sdj	78	verb	list	3	2	nomatch	grand	-1	1	y	1.0081
740.8913	0.0	+	78	verb	list	3	3	nomatch	grand	-1	1	y	1.0081
741.2910999999999	0.2	mvsc	78	verb	list	3	4	nomatch	grand	-1	1	y	1.0081
741.491	0.0	+	78	verb	list	3	5	nomatch	grand	-1	1	y	1.0081
741.8909	0.2	doit	78	verb	list	3	6	nomatch	grand	-1	1	y	1.0081
742.0907	0.0	+	78	verb	list	3	7	nomatch	grand	-1	1	y	1.0081
742.4906	0.2	nouveau	78	verb	list	3	8	nomatch	grand	-1	1	y	1.0081
742.6904999999999	0.0	+	78	verb	list	3	9	nomatch	grand	-1	1	y	1.0081
743.0903	0.2	jongler	78	verb	list	3	10	nomatch	grand	-1	1	y	1.0081
743.2901999999999	0.0	+	78	verb	list	3	11	nomatch	grand	-1	1	y	1.0081
743.6900999999999	0.0	+	78	verb	list	3	12	nomatch	grand	-1	1	y	1.0081
745.6891999999999	0.0	GRAND	78	verb	list	3	13	nomatch	grand	-1	1	y	1.0081
746.7419	0.0	+	78	verb	list	3	14	nomatch	grand	-1	1	y	1.0081
746.6974	0.0	[response]	78	verb	list	3	15	nomatch	grand	-1	1	y	1.0081
748.0881999999999	0.0	+	79	noun	phrase	1	1	nomatch	cendrier	-1	1	y	0.98966
748.6479999999999	0.2	zbg	79	noun	phrase	1	2	nomatch	cendrier	-1	1	y	0.98966
748.8479	0.0	+	79	noun	phrase	1	3	nomatch	cendrier	-1	1	y	0.98966
749.2477	0.2	zhdl	79	noun	phrase	1	4	nomatch	cendrier	-1	1	y	0.98966
749.4476	0.0	+	79	noun	phrase	1	5	nomatch	cendrier	-1	1	y	0.98966
749.8475	0.2	vpc	79	noun	phrase	1	6	nomatch	cendrier	-1	1	y	0.98966
750.0473999999999	0.0	+	79	noun	phrase	1	7	nomatch	cendrier	-1	1	y	0.98966
750.4472	0.2	khtbf	79	noun	phrase	1	8	nomatch	cendrier	-1	1	y	0.98966
750.6470999999999	0.0	+	79	noun	phrase	1	9	nomatch	cendrier	-1	1	y	0.98966
751.0469999999999	0.2	casier	79	noun	phrase	1	10	nomatch	cendrier	-1	1	y	0.98966
751.2468	0.0	+	79	noun	phrase	1	11	nomatch	cendrier	-1	1	y	0.98966
751.6467	0.0	+	79	noun	phrase	1	12	nomatch	cendrier	-1	1	y	0.98966
753.6458	0.0	CENDRIER	79	noun	phrase	1	13	nomatch	cendrier	-1	1	y	0.98966
754.6853	0.0	+	79	noun	phrase	1	14	nomatch	cendrier	-1	1	y	0.98966
754.6355	0.0	[response]	79	noun	phrase	1	15	nomatch	cendrier	-1	1	y	0.98966
756.0315999999999	0.0	+	80	verb	list	3	1	nomatch	vers	-1	1	y	0.79425
756.5912999999999	0.2	znhdms	80	verb	list	3	2	nomatch	vers	-1	1	y	0.79425
756.7912	0.0	+	80	verb	list	3	3	nomatch	vers	-1	1	y	0.79425
757.1909999999999	0.2	hqkz	80	verb	list	3	4	nomatch	vers	-1	1	y	0.79425
757.3909	0.0	+	80	verb	list	3	5	nomatch	vers	-1	1	y	0.79425
757.7908	0.2	peut	80	verb	list	3	6	nomatch	vers	-1	1	y	0.79425
757.9907	0.0	+	80	verb	list	3	7	nomatch	vers	-1	1	y	0.79425
758.3904	0.2	petit	80	verb	list	3	8	nomatch	vers	-1	1	y	0.79425
758.5903999999999	0.0	+	80	verb	list	3	9	nomatch	vers	-1	1	y	0.79425
758.9902999999999	0.2	nager	80	verb	list	3	10	nomatch	vers	-1	1	y	0.79425
759.1900999999999	0.0	+	80	verb	list	3	11	nomatch	vers	-1	1	y	0.79425
759.5899999999999	0.0	+	80	verb	list	3	12	nomatch	vers	-1	1	y	0.79425
761.5890999999999	0.0	VERS	80	verb	list	3	13	nomatch	vers	-1	1	y	0.79425
762.4286	0.0	+	80	verb	list	3	14	nomatch	vers	-1	1	y	0.79425
763.9880999999999	0.0	+	80	verb	list	3	15	nomatch	vers	-1	1	y	0.79425
764.9875	0.0	+	80	verb	list	3	16	nomatch	vers	-1	1	y	0.79425
765.081	0.0	+	80	verb	list	3	17	nomatch	vers	-1	1	y	0.79425
766.4802	0.0	+	80	verb	list	3	18	nomatch	vers	-1	1	y	0.79425
766.5736999999999	0.0	+	80	verb	list	3	19	nomatch	vers	-1	1	y	0.79425
767.9862999999999	0.0	+	80	verb	list	3	20	nomatch	vers	-1	1	y	0.79425
768.0795999999999	0.0	+	80	verb	list	3	21	nomatch	vers	-1	1	y	0.79425
769.4789	0.0	+	80	verb	list	3	22	nomatch	vers	-1	1	y	0.79425
769.5724	0.0	+	80	verb	list	3	23	nomatch	vers	-1	1	y	0.79425
770.985	0.0	+	80	verb	list	3	24	nomatch	vers	-1	1	y	0.79425
771.0785	0.0	+	80	verb	list	3	25	nomatch	vers	-1	1	y	0.79425
772.4776999999999	0.0	+	80	verb	list	3	26	nomatch	vers	-1	1	y	0.79425
772.5712	0.0	+	80	verb	list	3	27	nomatch	vers	-1	1	y	0.79425
773.9838	0.0	+	80	verb	list	3	28	nomatch	vers	-1	1	y	0.79425
774.0772	0.0	+	80	verb	list	3	29	nomatch	vers	-1	1	y	0.79425
775.4897	0.0	+	80	verb	list	3	30	nomatch	vers	-1	1	y	0.79425
775.5831999999999	0.0	+	80	verb	list	3	31	nomatch	vers	-1	1	y	0.79425
776.9824	0.0	+	80	verb	list	3	32	nomatch	vers	-1	1	y	0.79425
777.0758999999999	0.0	+	80	verb	list	3	33	nomatch	vers	-1	1	y	0.79425
778.4884999999999	0.0	+	80	verb	list	3	34	nomatch	vers	-1	1	y	0.79425
778.5819	0.0	+	80	verb	list	3	35	nomatch	vers	-1	1	y	0.79425
782.6066999999999	0.0	+	80	verb	list	3	36	nomatch	vers	-1	1	y	0.79425
762.3833999999999	0.0	[response]	80	verb	list	3	37	nomatch	vers	-1	1	y	0.79425
