onset	duration	stim	trial_number	trial_type	trial_structure	trial_length	sequential_position	probe_type	probe	probe_position	response_correct	response_key	response_time
0.046999999999997044	0.0	+	1	noun	phrase	4	1	nomatch	blanc	-1	0	TIMEOUT	-1.0
0.540300000000002	0.2	pdtzfc	1	noun	phrase	4	2	nomatch	blanc	-1	0	TIMEOUT	-1.0
0.7402000000000015	0.0	+	1	noun	phrase	4	3	nomatch	blanc	-1	0	TIMEOUT	-1.0
1.1400999999999897	0.2	sous	1	noun	phrase	4	4	nomatch	blanc	-1	0	TIMEOUT	-1.0
1.3399999999999892	0.0	+	1	noun	phrase	4	5	nomatch	blanc	-1	0	TIMEOUT	-1.0
1.7397999999999882	0.2	mon	1	noun	phrase	4	6	nomatch	blanc	-1	0	TIMEOUT	-1.0
1.939700000000002	0.0	+	1	noun	phrase	4	7	nomatch	blanc	-1	0	TIMEOUT	-1.0
2.339500000000001	0.2	beau	1	noun	phrase	4	8	nomatch	blanc	-1	0	TIMEOUT	-1.0
2.5394999999999897	0.0	+	1	noun	phrase	4	9	nomatch	blanc	-1	0	TIMEOUT	-1.0
2.9392999999999887	0.2	panier	1	noun	phrase	4	10	nomatch	blanc	-1	0	TIMEOUT	-1.0
3.139199999999988	0.0	+	1	noun	phrase	4	11	nomatch	blanc	-1	0	TIMEOUT	-1.0
3.5390000000000015	0.0	+	1	noun	phrase	4	12	nomatch	blanc	-1	0	TIMEOUT	-1.0
5.551400000000001	0.0	BLANC	1	noun	phrase	4	13	nomatch	blanc	-1	0	TIMEOUT	-1.0
7.936999999999998	0.0	+	2	noun	list	4	1	nomatch	rouler	-1	1	y	2.0403
8.55019999999999	0.2	ngt	2	noun	list	4	2	nomatch	rouler	-1	1	y	2.0403
8.750099999999989	0.0	+	2	noun	list	4	3	nomatch	rouler	-1	1	y	2.0403
9.149999999999991	0.2	yves	2	noun	list	4	4	nomatch	rouler	-1	1	y	2.0403
9.349899999999991	0.0	+	2	noun	list	4	5	nomatch	rouler	-1	1	y	2.0403
9.74969999999999	0.2	son	2	noun	list	4	6	nomatch	rouler	-1	1	y	2.0403
9.94959999999999	0.0	+	2	noun	list	4	7	nomatch	rouler	-1	1	y	2.0403
10.349399999999989	0.2	mieux	2	noun	list	4	8	nomatch	rouler	-1	1	y	2.0403
10.549399999999991	0.0	+	2	noun	list	4	9	nomatch	rouler	-1	1	y	2.0403
10.94919999999999	0.2	grenier	2	noun	list	4	10	nomatch	rouler	-1	1	y	2.0403
11.14909999999999	0.0	+	2	noun	list	4	11	nomatch	rouler	-1	1	y	2.0403
11.548999999999992	0.0	+	2	noun	list	4	12	nomatch	rouler	-1	1	y	2.0403
13.548099999999991	0.0	ROULER	2	noun	list	4	13	nomatch	rouler	-1	1	y	2.0403
15.6404	0.0	+	2	noun	list	4	14	nomatch	rouler	-1	1	y	2.0403
15.588400000000007	0.0	[response]	2	noun	list	4	15	nomatch	rouler	-1	1	y	2.0403
23.93039999999999	0.0	+	3	verb	list	1	1	nomatch	rocher	-1	1	y	1.8555000000000001
24.490099999999998	0.2	qwdnb	3	verb	list	1	2	nomatch	rocher	-1	1	y	1.8555000000000001
24.689999999999998	0.0	+	3	verb	list	1	3	nomatch	rocher	-1	1	y	1.8555000000000001
25.0899	0.2	mvsc	3	verb	list	1	4	nomatch	rocher	-1	1	y	1.8555000000000001
25.2898	0.0	+	3	verb	list	1	5	nomatch	rocher	-1	1	y	1.8555000000000001
25.6896	0.2	trzk	3	verb	list	1	6	nomatch	rocher	-1	1	y	1.8555000000000001
25.8896	0.0	+	3	verb	list	1	7	nomatch	rocher	-1	1	y	1.8555000000000001
26.289299999999997	0.2	xtsjdfm	3	verb	list	1	8	nomatch	rocher	-1	1	y	1.8555000000000001
26.4893	0.0	+	3	verb	list	1	9	nomatch	rocher	-1	1	y	1.8555000000000001
26.8891	0.2	beau	3	verb	list	1	10	nomatch	rocher	-1	1	y	1.8555000000000001
27.089	0.0	+	3	verb	list	1	11	nomatch	rocher	-1	1	y	1.8555000000000001
27.488799999999998	0.0	+	3	verb	list	1	12	nomatch	rocher	-1	1	y	1.8555000000000001
29.5013	0.0	ROCHER	3	verb	list	1	13	nomatch	rocher	-1	1	y	1.8555000000000001
31.40719999999999	0.0	+	3	verb	list	1	14	nomatch	rocher	-1	1	y	1.8555000000000001
31.356799999999993	0.0	[response]	3	verb	list	1	15	nomatch	rocher	-1	1	y	1.8555000000000001
31.887	0.0	+	4	noun	list	3	1	nomatch	vieux	-1	1	y	1.8017
32.446799999999996	0.2	snlr	4	noun	list	3	2	nomatch	vieux	-1	1	y	1.8017
32.646699999999996	0.0	+	4	noun	list	3	3	nomatch	vieux	-1	1	y	1.8017
33.046499999999995	0.2	glcf	4	noun	list	3	4	nomatch	vieux	-1	1	y	1.8017
33.246399999999994	0.0	+	4	noun	list	3	5	nomatch	vieux	-1	1	y	1.8017
33.64619999999999	0.2	peut	4	noun	list	3	6	nomatch	vieux	-1	1	y	1.8017
33.84609999999999	0.0	+	4	noun	list	3	7	nomatch	vieux	-1	1	y	1.8017
34.245999999999995	0.2	casier	4	noun	list	3	8	nomatch	vieux	-1	1	y	1.8017
34.445899999999995	0.0	+	4	noun	list	3	9	nomatch	vieux	-1	1	y	1.8017
34.845699999999994	0.2	tôt	4	noun	list	3	10	nomatch	vieux	-1	1	y	1.8017
35.04559999999999	0.0	+	4	noun	list	3	11	nomatch	vieux	-1	1	y	1.8017
35.445499999999996	0.0	+	4	noun	list	3	12	nomatch	vieux	-1	1	y	1.8017
37.4447	0.0	VIEUX	4	noun	list	3	13	nomatch	vieux	-1	1	y	1.8017
39.29719999999999	0.0	+	4	noun	list	3	14	nomatch	vieux	-1	1	y	1.8017
39.246399999999994	0.0	[response]	4	noun	list	3	15	nomatch	vieux	-1	1	y	1.8017
39.830299999999994	0.0	+	5	noun	list	3	1	match	va	3	1	p	1.974
40.39009999999999	0.2	frtbsdm	5	noun	list	3	2	match	va	3	1	p	1.974
40.58999999999999	0.0	+	5	noun	list	3	3	match	va	3	1	p	1.974
40.98979999999999	0.2	xndr	5	noun	list	3	4	match	va	3	1	p	1.974
41.1897	0.0	+	5	noun	list	3	5	match	va	3	1	p	1.974
41.5895	0.2	va	5	noun	list	3	6	match	va	3	1	p	1.974
41.7893	0.0	+	5	noun	list	3	7	match	va	3	1	p	1.974
42.18929999999999	0.2	panier	5	noun	list	3	8	match	va	3	1	p	1.974
42.38919999999999	0.0	+	5	noun	list	3	9	match	va	3	1	p	1.974
42.789	0.2	tard	5	noun	list	3	10	match	va	3	1	p	1.974
42.9889	0.0	+	5	noun	list	3	11	match	va	3	1	p	1.974
43.38879999999999	0.0	+	5	noun	list	3	12	match	va	3	1	p	1.974
45.40119999999999	0.0	VA	5	noun	list	3	13	match	va	3	1	p	1.974
47.42689999999999	0.0	+	5	noun	list	3	14	match	va	3	1	p	1.974
47.37520000000001	0.0	[response]	5	noun	list	3	15	match	va	3	1	p	1.974
47.787000000000006	0.0	+	6	noun	list	1	1	match	clavier	5	1	p	1.1886
48.3467	0.2	qvpxj	6	noun	list	1	2	match	clavier	5	1	p	1.1886
48.546599999999984	0.0	+	6	noun	list	1	3	match	clavier	5	1	p	1.1886
48.94639999999998	0.2	xhj	6	noun	list	1	4	match	clavier	5	1	p	1.1886
49.1463	0.0	+	6	noun	list	1	5	match	clavier	5	1	p	1.1886
49.5462	0.2	kq	6	noun	list	1	6	match	clavier	5	1	p	1.1886
49.746099999999984	0.0	+	6	noun	list	1	7	match	clavier	5	1	p	1.1886
50.14589999999998	0.2	zqcm	6	noun	list	1	8	match	clavier	5	1	p	1.1886
50.3458	0.0	+	6	noun	list	1	9	match	clavier	5	1	p	1.1886
50.745599999999996	0.2	clavier	6	noun	list	1	10	match	clavier	5	1	p	1.1886
50.945599999999985	0.0	+	6	noun	list	1	11	match	clavier	5	1	p	1.1886
51.345399999999984	0.0	+	6	noun	list	1	12	match	clavier	5	1	p	1.1886
53.344599999999986	0.0	CLAVIER	6	noun	list	1	13	match	clavier	5	1	p	1.1886
54.5839	0.0	+	6	noun	list	1	14	match	clavier	5	1	p	1.1886
54.533199999999994	0.0	[response]	6	noun	list	1	15	match	clavier	5	1	p	1.1886
55.7303	0.0	+	7	noun	list	1	1	nomatch	pour	-1	1	y	1.2504
56.28999999999999	0.2	gtp	7	noun	list	1	2	nomatch	pour	-1	1	y	1.2504
56.4898	0.0	+	7	noun	list	1	3	nomatch	pour	-1	1	y	1.2504
56.889700000000005	0.2	srp	7	noun	list	1	4	nomatch	pour	-1	1	y	1.2504
57.08959999999999	0.0	+	7	noun	list	1	5	nomatch	pour	-1	1	y	1.2504
57.48949999999999	0.2	vpc	7	noun	list	1	6	nomatch	pour	-1	1	y	1.2504
57.6893	0.0	+	7	noun	list	1	7	nomatch	pour	-1	1	y	1.2504
58.089200000000005	0.2	bgcm	7	noun	list	1	8	nomatch	pour	-1	1	y	1.2504
58.28909999999999	0.0	+	7	noun	list	1	9	nomatch	pour	-1	1	y	1.2504
58.68899999999999	0.2	tablier	7	noun	list	1	10	nomatch	pour	-1	1	y	1.2504
58.88890000000001	0.0	+	7	noun	list	1	11	nomatch	pour	-1	1	y	1.2504
59.288700000000006	0.0	+	7	noun	list	1	12	nomatch	pour	-1	1	y	1.2504
61.301199999999994	0.0	POUR	7	noun	list	1	13	nomatch	pour	-1	1	y	1.2504
62.59379999999999	0.0	+	7	noun	list	1	14	nomatch	pour	-1	1	y	1.2504
62.55160000000001	0.0	[response]	7	noun	list	1	15	nomatch	pour	-1	1	y	1.2504
63.686800000000005	0.0	+	8	noun	phrase	3	1	match	casier	5	1	p	1.3900000000000001
64.2466	0.2	tpqhsb	8	noun	phrase	3	2	match	casier	5	1	p	1.3900000000000001
64.44649999999999	0.0	+	8	noun	phrase	3	3	match	casier	5	1	p	1.3900000000000001
64.84629999999999	0.2	zhdl	8	noun	phrase	3	4	match	casier	5	1	p	1.3900000000000001
65.0462	0.0	+	8	noun	phrase	3	5	match	casier	5	1	p	1.3900000000000001
65.4461	0.2	leur	8	noun	phrase	3	6	match	casier	5	1	p	1.3900000000000001
65.64599999999999	0.0	+	8	noun	phrase	3	7	match	casier	5	1	p	1.3900000000000001
66.04579999999999	0.2	beau	8	noun	phrase	3	8	match	casier	5	1	p	1.3900000000000001
66.2457	0.0	+	8	noun	phrase	3	9	match	casier	5	1	p	1.3900000000000001
66.6456	0.2	casier	8	noun	phrase	3	10	match	casier	5	1	p	1.3900000000000001
66.84549999999999	0.0	+	8	noun	phrase	3	11	match	casier	5	1	p	1.3900000000000001
67.24529999999999	0.0	+	8	noun	phrase	3	12	match	casier	5	1	p	1.3900000000000001
69.24449999999999	0.0	CASIER	8	noun	phrase	3	13	match	casier	5	1	p	1.3900000000000001
70.68369999999999	0.0	+	8	noun	phrase	3	14	match	casier	5	1	p	1.3900000000000001
70.6345	0.0	[response]	8	noun	phrase	3	15	match	casier	5	1	p	1.3900000000000001
79.64009999999999	0.0	+	9	noun	phrase	1	1	match	rouge	5	1	p	1.468
80.19979999999998	0.2	ptsrwg	9	noun	phrase	1	2	match	rouge	5	1	p	1.468
80.3997	0.0	+	9	noun	phrase	1	3	match	rouge	5	1	p	1.468
80.7995	0.2	xhj	9	noun	phrase	1	4	match	rouge	5	1	p	1.468
80.99949999999998	0.0	+	9	noun	phrase	1	5	match	rouge	5	1	p	1.468
81.39929999999998	0.2	vpc	9	noun	phrase	1	6	match	rouge	5	1	p	1.468
81.5992	0.0	+	9	noun	phrase	1	7	match	rouge	5	1	p	1.468
81.9991	0.2	bxlrsdw	9	noun	phrase	1	8	match	rouge	5	1	p	1.468
82.19899999999998	0.0	+	9	noun	phrase	1	9	match	rouge	5	1	p	1.468
82.59879999999998	0.2	rouge	9	noun	phrase	1	10	match	rouge	5	1	p	1.468
82.7987	0.0	+	9	noun	phrase	1	11	match	rouge	5	1	p	1.468
83.1986	0.0	+	9	noun	phrase	1	12	match	rouge	5	1	p	1.468
85.1977	0.0	ROUGE	9	noun	phrase	1	13	match	rouge	5	1	p	1.468
86.71689999999998	0.0	+	9	noun	phrase	1	14	match	rouge	5	1	p	1.468
86.66579999999999	0.0	[response]	9	noun	phrase	1	15	match	rouge	5	1	p	1.468
103.5899	0.0	+	10	noun	list	3	1	match	ainsi	5	1	p	1.4956000000000003
104.14959999999999	0.2	lhnxz	10	noun	list	3	2	match	ainsi	5	1	p	1.4956000000000003
104.3495	0.0	+	10	noun	list	3	3	match	ainsi	5	1	p	1.4956000000000003
104.7493	0.2	mvsc	10	noun	list	3	4	match	ainsi	5	1	p	1.4956000000000003
104.9493	0.0	+	10	noun	list	3	5	match	ainsi	5	1	p	1.4956000000000003
105.34909999999999	0.2	doit	10	noun	list	3	6	match	ainsi	5	1	p	1.4956000000000003
105.549	0.0	+	10	noun	list	3	7	match	ainsi	5	1	p	1.4956000000000003
105.94890000000001	0.2	cendrier	10	noun	list	3	8	match	ainsi	5	1	p	1.4956000000000003
106.1488	0.0	+	10	noun	list	3	9	match	ainsi	5	1	p	1.4956000000000003
106.5486	0.2	ainsi	10	noun	list	3	10	match	ainsi	5	1	p	1.4956000000000003
106.7485	0.0	+	10	noun	list	3	11	match	ainsi	5	1	p	1.4956000000000003
107.1483	0.0	+	10	noun	list	3	12	match	ainsi	5	1	p	1.4956000000000003
109.14750000000001	0.0	AINSI	10	noun	list	3	13	match	ainsi	5	1	p	1.4956000000000003
110.6934	0.0	+	10	noun	list	3	14	match	ainsi	5	1	p	1.4956000000000003
110.6431	0.0	[response]	10	noun	list	3	15	match	ainsi	5	1	p	1.4956000000000003
111.5332	0.0	+	11	verb	list	2	1	nomatch	blanc	-1	1	y	1.5009
112.09289999999999	0.2	wvp	11	verb	list	2	2	nomatch	blanc	-1	1	y	1.5009
112.2929	0.0	+	11	verb	list	2	3	nomatch	blanc	-1	1	y	1.5009
112.6927	0.2	hqkz	11	verb	list	2	4	nomatch	blanc	-1	1	y	1.5009
112.89259999999999	0.0	+	11	verb	list	2	5	nomatch	blanc	-1	1	y	1.5009
113.29239999999999	0.2	kq	11	verb	list	2	6	nomatch	blanc	-1	1	y	1.5009
113.4923	0.0	+	11	verb	list	2	7	nomatch	blanc	-1	1	y	1.5009
113.8922	0.2	petit	11	verb	list	2	8	nomatch	blanc	-1	1	y	1.5009
114.09199999999998	0.0	+	11	verb	list	2	9	nomatch	blanc	-1	1	y	1.5009
114.49189999999999	0.2	rouler	11	verb	list	2	10	nomatch	blanc	-1	1	y	1.5009
114.6918	0.0	+	11	verb	list	2	11	nomatch	blanc	-1	1	y	1.5009
115.0916	0.0	+	11	verb	list	2	12	nomatch	blanc	-1	1	y	1.5009
117.0908	0.0	BLANC	11	verb	list	2	13	nomatch	blanc	-1	1	y	1.5009
118.6368	0.0	+	11	verb	list	2	14	nomatch	blanc	-1	1	y	1.5009
118.5917	0.0	[response]	11	verb	list	2	15	nomatch	blanc	-1	1	y	1.5009
119.4898	0.0	+	12	noun	phrase	4	1	match	nouveau	4	1	p	1.3848
120.0495	0.2	mhdfw	12	noun	phrase	4	2	match	nouveau	4	1	p	1.3848
120.24940000000001	0.0	+	12	noun	phrase	4	3	match	nouveau	4	1	p	1.3848
120.64929999999998	0.2	sans	12	noun	phrase	4	4	match	nouveau	4	1	p	1.3848
120.8492	0.0	+	12	noun	phrase	4	5	match	nouveau	4	1	p	1.3848
121.249	0.2	son	12	noun	phrase	4	6	match	nouveau	4	1	p	1.3848
121.44899999999998	0.0	+	12	noun	phrase	4	7	match	nouveau	4	1	p	1.3848
121.84879999999998	0.2	nouveau	12	noun	phrase	4	8	match	nouveau	4	1	p	1.3848
122.0487	0.0	+	12	noun	phrase	4	9	match	nouveau	4	1	p	1.3848
122.4485	0.2	clavier	12	noun	phrase	4	10	match	nouveau	4	1	p	1.3848
122.64839999999998	0.0	+	12	noun	phrase	4	11	match	nouveau	4	1	p	1.3848
123.04829999999998	0.0	+	12	noun	phrase	4	12	match	nouveau	4	1	p	1.3848
125.04739999999998	0.0	NOUVEAU	12	noun	phrase	4	13	match	nouveau	4	1	p	1.3848
126.48659999999998	0.0	+	12	noun	phrase	4	14	match	nouveau	4	1	p	1.3848
126.43209999999999	0.0	[response]	12	noun	phrase	4	15	match	nouveau	4	1	p	1.3848
135.4297	0.0	+	13	noun	phrase	1	1	match	cendrier	5	1	p	1.2104
135.9894	0.2	chb	13	noun	phrase	1	2	match	cendrier	5	1	p	1.2104
136.1893	0.0	+	13	noun	phrase	1	3	match	cendrier	5	1	p	1.2104
136.5892	0.2	glcf	13	noun	phrase	1	4	match	cendrier	5	1	p	1.2104
136.7891	0.0	+	13	noun	phrase	1	5	match	cendrier	5	1	p	1.2104
137.1889	0.2	vpc	13	noun	phrase	1	6	match	cendrier	5	1	p	1.2104
137.3888	0.0	+	13	noun	phrase	1	7	match	cendrier	5	1	p	1.2104
137.7887	0.2	lzfn	13	noun	phrase	1	8	match	cendrier	5	1	p	1.2104
138.0019	0.0	+	13	noun	phrase	1	9	match	cendrier	5	1	p	1.2104
138.3884	0.2	cendrier	13	noun	phrase	1	10	match	cendrier	5	1	p	1.2104
138.5883	0.0	+	13	noun	phrase	1	11	match	cendrier	5	1	p	1.2104
139.0015	0.0	+	13	noun	phrase	1	12	match	cendrier	5	1	p	1.2104
141.0006	0.0	CENDRIER	13	noun	phrase	1	13	match	cendrier	5	1	p	1.2104
142.2534	0.0	+	13	noun	phrase	1	14	match	cendrier	5	1	p	1.2104
142.21099999999998	0.0	[response]	13	noun	phrase	1	15	match	cendrier	5	1	p	1.2104
143.3863	0.0	+	14	verb	list	2	1	match	nager	4	1	p	2.1843
143.946	0.2	vtj	14	verb	list	2	2	match	nager	4	1	p	2.1843
144.14589999999998	0.0	+	14	verb	list	2	3	match	nager	4	1	p	2.1843
144.54579999999999	0.2	zrmn	14	verb	list	2	4	match	nager	4	1	p	2.1843
144.7457	0.0	+	14	verb	list	2	5	match	nager	4	1	p	2.1843
145.1455	0.2	qmj	14	verb	list	2	6	match	nager	4	1	p	2.1843
145.34539999999998	0.0	+	14	verb	list	2	7	match	nager	4	1	p	2.1843
145.7453	0.2	nager	14	verb	list	2	8	match	nager	4	1	p	2.1843
145.9452	0.0	+	14	verb	list	2	9	match	nager	4	1	p	2.1843
146.345	0.2	noir	14	verb	list	2	10	match	nager	4	1	p	2.1843
146.54489999999998	0.0	+	14	verb	list	2	11	match	nager	4	1	p	2.1843
146.9448	0.0	+	14	verb	list	2	12	match	nager	4	1	p	2.1843
148.94389999999999	0.0	NAGER	14	verb	list	2	13	match	nager	4	1	p	2.1843
151.1829	0.0	+	14	verb	list	2	14	match	nager	4	1	p	2.1843
151.12830000000002	0.0	[response]	14	verb	list	2	15	match	nager	4	1	p	2.1843
151.3296	0.0	+	15	noun	list	3	1	match	clavier	4	1	p	0.98579
151.8893	0.2	mbdqr	15	noun	list	3	2	match	clavier	4	1	p	0.98579
152.0893	0.0	+	15	noun	list	3	3	match	clavier	4	1	p	0.98579
152.4891	0.2	zhdl	15	noun	list	3	4	match	clavier	4	1	p	0.98579
152.689	0.0	+	15	noun	list	3	5	match	clavier	4	1	p	0.98579
153.0888	0.2	doit	15	noun	list	3	6	match	clavier	4	1	p	0.98579
153.2887	0.0	+	15	noun	list	3	7	match	clavier	4	1	p	0.98579
153.6886	0.2	clavier	15	noun	list	3	8	match	clavier	4	1	p	0.98579
153.9018	0.0	+	15	noun	list	3	9	match	clavier	4	1	p	0.98579
154.2883	0.2	vite	15	noun	list	3	10	match	clavier	4	1	p	0.98579
154.5016	0.0	+	15	noun	list	3	11	match	clavier	4	1	p	0.98579
154.9014	0.0	+	15	noun	list	3	12	match	clavier	4	1	p	0.98579
156.9005	0.0	CLAVIER	15	noun	list	3	13	match	clavier	4	1	p	0.98579
157.94	0.0	+	15	noun	list	3	14	match	clavier	4	1	p	0.98579
157.8863	0.0	[response]	15	noun	list	3	15	match	clavier	4	1	p	0.98579
159.2862	0.0	+	16	noun	phrase	4	1	match	blanc	5	1	p	1.04
159.846	0.2	bscg	16	noun	phrase	4	2	match	blanc	5	1	p	1.04
160.0459	0.0	+	16	noun	phrase	4	3	match	blanc	5	1	p	1.04
160.4457	0.2	pour	16	noun	phrase	4	4	match	blanc	5	1	p	1.04
160.6456	0.0	+	16	noun	phrase	4	5	match	blanc	5	1	p	1.04
161.0455	0.2	son	16	noun	phrase	4	6	match	blanc	5	1	p	1.04
161.2454	0.0	+	16	noun	phrase	4	7	match	blanc	5	1	p	1.04
161.64509999999999	0.2	panier	16	noun	phrase	4	8	match	blanc	5	1	p	1.04
161.8451	0.0	+	16	noun	phrase	4	9	match	blanc	5	1	p	1.04
162.245	0.2	blanc	16	noun	phrase	4	10	match	blanc	5	1	p	1.04
162.4449	0.0	+	16	noun	phrase	4	11	match	blanc	5	1	p	1.04
162.8447	0.0	+	16	noun	phrase	4	12	match	blanc	5	1	p	1.04
164.8438	0.0	BLANC	16	noun	phrase	4	13	match	blanc	5	1	p	1.04
165.9366	0.0	+	16	noun	phrase	4	14	match	blanc	5	1	p	1.04
165.8838	0.0	[response]	16	noun	phrase	4	15	match	blanc	5	1	p	1.04
167.2295	0.0	+	17	verb	phrase	4	1	nomatch	rouge	-1	1	y	1.3505
167.7892	0.2	lrpft	17	verb	phrase	4	2	nomatch	rouge	-1	1	y	1.3505
167.9891	0.0	+	17	verb	phrase	4	3	nomatch	rouge	-1	1	y	1.3505
168.38899999999998	0.2	jean	17	verb	phrase	4	4	nomatch	rouge	-1	1	y	1.3505
168.5889	0.0	+	17	verb	phrase	4	5	nomatch	rouge	-1	1	y	1.3505
168.9887	0.2	peut	17	verb	phrase	4	6	nomatch	rouge	-1	1	y	1.3505
169.18869999999998	0.0	+	17	verb	phrase	4	7	nomatch	rouge	-1	1	y	1.3505
169.58849999999998	0.2	plus	17	verb	phrase	4	8	nomatch	rouge	-1	1	y	1.3505
169.7884	0.0	+	17	verb	phrase	4	9	nomatch	rouge	-1	1	y	1.3505
170.20159999999998	0.2	plonger	17	verb	phrase	4	10	nomatch	rouge	-1	1	y	1.3505
170.4015	0.0	+	17	verb	phrase	4	11	nomatch	rouge	-1	1	y	1.3505
170.8013	0.0	+	17	verb	phrase	4	12	nomatch	rouge	-1	1	y	1.3505
172.8004	0.0	ROUGE	17	verb	phrase	4	13	nomatch	rouge	-1	1	y	1.3505
174.19969999999998	0.0	+	17	verb	phrase	4	14	nomatch	rouge	-1	1	y	1.3505
174.1509	0.0	[response]	17	verb	phrase	4	15	nomatch	rouge	-1	1	y	1.3505
175.186	0.0	+	18	noun	list	1	1	match	voilier	5	1	p	1.1231
175.7458	0.2	tsx	18	noun	list	1	2	match	voilier	5	1	p	1.1231
175.94570000000002	0.0	+	18	noun	list	1	3	match	voilier	5	1	p	1.1231
176.3455	0.2	mvsc	18	noun	list	1	4	match	voilier	5	1	p	1.1231
176.54549999999998	0.0	+	18	noun	list	1	5	match	voilier	5	1	p	1.1231
176.94539999999998	0.2	kq	18	noun	list	1	6	match	voilier	5	1	p	1.1231
177.1453	0.0	+	18	noun	list	1	7	match	voilier	5	1	p	1.1231
177.54510000000002	0.2	fls	18	noun	list	1	8	match	voilier	5	1	p	1.1231
177.74499999999998	0.0	+	18	noun	list	1	9	match	voilier	5	1	p	1.1231
178.1448	0.2	voilier	18	noun	list	1	10	match	voilier	5	1	p	1.1231
178.34470000000002	0.0	+	18	noun	list	1	11	match	voilier	5	1	p	1.1231
178.7445	0.0	+	18	noun	list	1	12	match	voilier	5	1	p	1.1231
180.74370000000002	0.0	VOILIER	18	noun	list	1	13	match	voilier	5	1	p	1.1231
181.9165	0.0	+	18	noun	list	1	14	match	voilier	5	1	p	1.1231
181.86680000000004	0.0	[response]	18	noun	list	1	15	match	voilier	5	1	p	1.1231
183.1294	0.0	+	19	noun	phrase	2	1	nomatch	rocher	-1	1	y	1.1954
183.6892	0.2	bgrt	19	noun	phrase	2	2	nomatch	rocher	-1	1	y	1.1954
183.88899999999998	0.0	+	19	noun	phrase	2	3	nomatch	rocher	-1	1	y	1.1954
184.28889999999998	0.2	hqkz	19	noun	phrase	2	4	nomatch	rocher	-1	1	y	1.1954
184.4888	0.0	+	19	noun	phrase	2	5	nomatch	rocher	-1	1	y	1.1954
184.88859999999997	0.2	vpc	19	noun	phrase	2	6	nomatch	rocher	-1	1	y	1.1954
185.10189999999997	0.0	+	19	noun	phrase	2	7	nomatch	rocher	-1	1	y	1.1954
185.5017	0.2	petit	19	noun	phrase	2	8	nomatch	rocher	-1	1	y	1.1954
185.7016	0.0	+	19	noun	phrase	2	9	nomatch	rocher	-1	1	y	1.1954
186.10150000000002	0.2	tablier	19	noun	phrase	2	10	nomatch	rocher	-1	1	y	1.1954
186.30139999999997	0.0	+	19	noun	phrase	2	11	nomatch	rocher	-1	1	y	1.1954
186.7012	0.0	+	19	noun	phrase	2	12	nomatch	rocher	-1	1	y	1.1954
188.70039999999997	0.0	ROCHER	19	noun	phrase	2	13	nomatch	rocher	-1	1	y	1.1954
189.9397	0.0	+	19	noun	phrase	2	14	nomatch	rocher	-1	1	y	1.1954
189.89570000000006	0.0	[response]	19	noun	phrase	2	15	nomatch	rocher	-1	1	y	1.1954
191.08599999999998	0.0	+	20	noun	phrase	1	1	nomatch	avec	-1	1	y	1.2472
191.64579999999998	0.2	qzxgc	20	noun	phrase	1	2	nomatch	avec	-1	1	y	1.2472
191.8457	0.0	+	20	noun	phrase	1	3	nomatch	avec	-1	1	y	1.2472
192.24550000000002	0.2	glcf	20	noun	phrase	1	4	nomatch	avec	-1	1	y	1.2472
192.44539999999998	0.0	+	20	noun	phrase	1	5	nomatch	avec	-1	1	y	1.2472
192.84529999999998	0.2	qmj	20	noun	phrase	1	6	nomatch	avec	-1	1	y	1.2472
193.0452	0.0	+	20	noun	phrase	1	7	nomatch	avec	-1	1	y	1.2472
193.44500000000002	0.2	ntsmd	20	noun	phrase	1	8	nomatch	avec	-1	1	y	1.2472
193.64489999999998	0.0	+	20	noun	phrase	1	9	nomatch	avec	-1	1	y	1.2472
194.04479999999998	0.2	panier	20	noun	phrase	1	10	nomatch	avec	-1	1	y	1.2472
194.2447	0.0	+	20	noun	phrase	1	11	nomatch	avec	-1	1	y	1.2472
194.64450000000002	0.0	+	20	noun	phrase	1	12	nomatch	avec	-1	1	y	1.2472
196.64360000000002	0.0	AVEC	20	noun	phrase	1	13	nomatch	avec	-1	1	y	1.2472
197.93640000000002	0.0	+	20	noun	phrase	1	14	nomatch	avec	-1	1	y	1.2472
197.89079999999998	0.0	[response]	20	noun	phrase	1	15	nomatch	avec	-1	1	y	1.2472
199.02939999999998	0.0	+	21	noun	list	1	1	match	mieux	5	0	TIMEOUT	-1.0
199.5891	0.2	htqz	21	noun	list	1	2	match	mieux	5	0	TIMEOUT	-1.0
199.78900000000002	0.0	+	21	noun	list	1	3	match	mieux	5	0	TIMEOUT	-1.0
200.1888	0.2	bdrm	21	noun	list	1	4	match	mieux	5	0	TIMEOUT	-1.0
200.3887	0.0	+	21	noun	list	1	5	match	mieux	5	0	TIMEOUT	-1.0
200.78849999999997	0.2	vpc	21	noun	list	1	6	match	mieux	5	0	TIMEOUT	-1.0
201.00179999999997	0.0	+	21	noun	list	1	7	match	mieux	5	0	TIMEOUT	-1.0
201.4016	0.2	wgvqrj	21	noun	list	1	8	match	mieux	5	0	TIMEOUT	-1.0
201.6016	0.0	+	21	noun	list	1	9	match	mieux	5	0	TIMEOUT	-1.0
202.00140000000002	0.2	mieux	21	noun	list	1	10	match	mieux	5	0	TIMEOUT	-1.0
202.20129999999997	0.0	+	21	noun	list	1	11	match	mieux	5	0	TIMEOUT	-1.0
202.6011	0.0	+	21	noun	list	1	12	match	mieux	5	0	TIMEOUT	-1.0
204.60029999999998	0.0	MIEUX	21	noun	list	1	13	match	mieux	5	0	TIMEOUT	-1.0
206.9859	0.0	+	22	noun	phrase	4	1	nomatch	galoper	-1	1	y	1.0229
207.59900000000002	0.2	pcv	22	noun	phrase	4	2	nomatch	galoper	-1	1	y	1.0229
207.79889999999997	0.0	+	22	noun	phrase	4	3	nomatch	galoper	-1	1	y	1.0229
208.19879999999998	0.2	avec	22	noun	phrase	4	4	nomatch	galoper	-1	1	y	1.0229
208.3987	0.0	+	22	noun	phrase	4	5	nomatch	galoper	-1	1	y	1.0229
208.79850000000002	0.2	son	22	noun	phrase	4	6	nomatch	galoper	-1	1	y	1.0229
208.99839999999998	0.0	+	22	noun	phrase	4	7	nomatch	galoper	-1	1	y	1.0229
209.39829999999998	0.2	grand	22	noun	phrase	4	8	nomatch	galoper	-1	1	y	1.0229
209.5982	0.0	+	22	noun	phrase	4	9	nomatch	galoper	-1	1	y	1.0229
209.99800000000002	0.2	cendrier	22	noun	phrase	4	10	nomatch	galoper	-1	1	y	1.0229
210.19789999999998	0.0	+	22	noun	phrase	4	11	nomatch	galoper	-1	1	y	1.0229
210.59779999999998	0.0	+	22	noun	phrase	4	12	nomatch	galoper	-1	1	y	1.0229
212.59689999999998	0.0	GALOPER	22	noun	phrase	4	13	nomatch	galoper	-1	1	y	1.0229
213.66299999999998	0.0	+	22	noun	phrase	4	14	nomatch	galoper	-1	1	y	1.0229
213.61979999999997	0.0	[response]	22	noun	phrase	4	15	nomatch	galoper	-1	1	y	1.0229
222.9791	0.0	+	23	noun	list	2	1	match	rocher	5	1	p	0.98008
223.53889999999998	0.2	qprbnw	23	noun	list	2	2	match	rocher	5	1	p	0.98008
223.7388	0.0	+	23	noun	list	2	3	match	rocher	5	1	p	0.98008
224.1387	0.2	trvp	23	noun	list	2	4	match	rocher	5	1	p	0.98008
224.33849999999998	0.0	+	23	noun	list	2	5	match	rocher	5	1	p	0.98008
224.7517	0.2	vpc	23	noun	list	2	6	match	rocher	5	1	p	0.98008
224.9516	0.0	+	23	noun	list	2	7	match	rocher	5	1	p	0.98008
225.35150000000002	0.2	mieux	23	noun	list	2	8	match	rocher	5	1	p	0.98008
225.55139999999997	0.0	+	23	noun	list	2	9	match	rocher	5	1	p	0.98008
225.9512	0.2	rocher	23	noun	list	2	10	match	rocher	5	1	p	0.98008
226.1511	0.0	+	23	noun	list	2	11	match	rocher	5	1	p	0.98008
226.55100000000002	0.0	+	23	noun	list	2	12	match	rocher	5	1	p	0.98008
228.55010000000001	0.0	ROCHER	23	noun	list	2	13	match	rocher	5	1	p	0.98008
229.5764	0.0	+	23	noun	list	2	14	match	rocher	5	1	p	0.98008
229.53020000000006	0.0	[response]	23	noun	list	2	15	match	rocher	5	1	p	0.98008
230.9358	0.0	+	24	noun	list	1	1	match	ainsi	5	1	p	1.0282
231.4956	0.2	pkbfl	24	noun	list	1	2	match	ainsi	5	1	p	1.0282
231.6955	0.0	+	24	noun	list	1	3	match	ainsi	5	1	p	1.0282
232.09529999999998	0.2	zhdl	24	noun	list	1	4	match	ainsi	5	1	p	1.0282
232.2952	0.0	+	24	noun	list	1	5	match	ainsi	5	1	p	1.0282
232.69500000000002	0.2	kq	24	noun	list	1	6	match	ainsi	5	1	p	1.0282
232.89489999999998	0.0	+	24	noun	list	1	7	match	ainsi	5	1	p	1.0282
233.29479999999998	0.2	bxlrsdw	24	noun	list	1	8	match	ainsi	5	1	p	1.0282
233.4947	0.0	+	24	noun	list	1	9	match	ainsi	5	1	p	1.0282
233.89450000000002	0.2	ainsi	24	noun	list	1	10	match	ainsi	5	1	p	1.0282
234.09439999999998	0.0	+	24	noun	list	1	11	match	ainsi	5	1	p	1.0282
234.49429999999998	0.0	+	24	noun	list	1	12	match	ainsi	5	1	p	1.0282
236.49339999999998	0.0	AINSI	24	noun	list	1	13	match	ainsi	5	1	p	1.0282
237.5728	0.0	+	24	noun	list	1	14	match	ainsi	5	1	p	1.0282
237.52169999999998	0.0	[response]	24	noun	list	1	15	match	ainsi	5	1	p	1.0282
238.87910000000002	0.0	+	25	noun	phrase	1	1	match	nouveau	5	1	p	0.96099
239.4388	0.2	vhnzl	25	noun	phrase	1	2	match	nouveau	5	1	p	0.96099
239.6387	0.0	+	25	noun	phrase	1	3	match	nouveau	5	1	p	0.96099
240.03849999999997	0.2	xndr	25	noun	phrase	1	4	match	nouveau	5	1	p	0.96099
240.25179999999997	0.0	+	25	noun	phrase	1	5	match	nouveau	5	1	p	0.96099
240.6516	0.2	zqgk	25	noun	phrase	1	6	match	nouveau	5	1	p	0.96099
240.85150000000002	0.0	+	25	noun	phrase	1	7	match	nouveau	5	1	p	0.96099
241.2513	0.2	vwkrxh	25	noun	phrase	1	8	match	nouveau	5	1	p	0.96099
241.4512	0.0	+	25	noun	phrase	1	9	match	nouveau	5	1	p	0.96099
241.8511	0.2	nouveau	25	noun	phrase	1	10	match	nouveau	5	1	p	0.96099
242.0511	0.0	+	25	noun	phrase	1	11	match	nouveau	5	1	p	0.96099
242.45090000000002	0.0	+	25	noun	phrase	1	12	match	nouveau	5	1	p	0.96099
244.4501	0.0	NOUVEAU	25	noun	phrase	1	13	match	nouveau	5	1	p	0.96099
245.4628	0.0	+	25	noun	phrase	1	14	match	nouveau	5	1	p	0.96099
245.4111	0.0	[response]	25	noun	phrase	1	15	match	nouveau	5	1	p	0.96099
262.8289	0.0	+	26	noun	list	4	1	match	tard	5	1	p	1.0586
263.3886	0.2	fkrswxq	26	noun	list	4	2	match	tard	5	1	p	1.0586
263.58849999999995	0.0	+	26	noun	list	4	3	match	tard	5	1	p	1.0586
264.0017	0.2	dans	26	noun	list	4	4	match	tard	5	1	p	1.0586
264.2016	0.0	+	26	noun	list	4	5	match	tard	5	1	p	1.0586
264.6015	0.2	va	26	noun	list	4	6	match	tard	5	1	p	1.0586
264.80139999999994	0.0	+	26	noun	list	4	7	match	tard	5	1	p	1.0586
265.2012	0.2	panier	26	noun	list	4	8	match	tard	5	1	p	1.0586
265.40110000000004	0.0	+	26	noun	list	4	9	match	tard	5	1	p	1.0586
265.80089999999996	0.2	tard	26	noun	list	4	10	match	tard	5	1	p	1.0586
266.0009	0.0	+	26	noun	list	4	11	match	tard	5	1	p	1.0586
266.40070000000003	0.0	+	26	noun	list	4	12	match	tard	5	1	p	1.0586
268.3998	0.0	TARD	26	noun	list	4	13	match	tard	5	1	p	1.0586
269.50609999999995	0.0	+	26	noun	list	4	14	match	tard	5	1	p	1.0586
269.4584	0.0	[response]	26	noun	list	4	15	match	tard	5	1	p	1.0586
270.78560000000004	0.0	+	27	noun	list	1	1	nomatch	bleu	-1	1	y	1.0432
271.34529999999995	0.2	csmqtwp	27	noun	list	1	2	nomatch	bleu	-1	1	y	1.0432
271.5452	0.0	+	27	noun	list	1	3	nomatch	bleu	-1	1	y	1.0432
271.94500000000005	0.2	lzdr	27	noun	list	1	4	nomatch	bleu	-1	1	y	1.0432
272.1449	0.0	+	27	noun	list	1	5	nomatch	bleu	-1	1	y	1.0432
272.5448	0.2	qmj	27	noun	list	1	6	nomatch	bleu	-1	1	y	1.0432
272.74469999999997	0.0	+	27	noun	list	1	7	nomatch	bleu	-1	1	y	1.0432
273.1445	0.2	cpfnv	27	noun	list	1	8	nomatch	bleu	-1	1	y	1.0432
273.34450000000004	0.0	+	27	noun	list	1	9	nomatch	bleu	-1	1	y	1.0432
273.74429999999995	0.2	cendrier	27	noun	list	1	10	nomatch	bleu	-1	1	y	1.0432
273.94410000000005	0.0	+	27	noun	list	1	11	nomatch	bleu	-1	1	y	1.0432
274.34400000000005	0.0	+	27	noun	list	1	12	nomatch	bleu	-1	1	y	1.0432
276.34310000000005	0.0	BLEU	27	noun	list	1	13	nomatch	bleu	-1	1	y	1.0432
277.4358	0.0	+	27	noun	list	1	14	nomatch	bleu	-1	1	y	1.0432
277.3864	0.0	[response]	27	noun	list	1	15	nomatch	bleu	-1	1	y	1.0432
278.7288	0.0	+	28	noun	list	2	1	nomatch	tard	-1	1	y	1.4828
279.2885	0.2	wlts	28	noun	list	2	2	nomatch	tard	-1	1	y	1.4828
279.48850000000004	0.0	+	28	noun	list	2	3	nomatch	tard	-1	1	y	1.4828
279.90160000000003	0.2	xndr	28	noun	list	2	4	nomatch	tard	-1	1	y	1.4828
280.1015	0.0	+	28	noun	list	2	5	nomatch	tard	-1	1	y	1.4828
280.5014	0.2	trzk	28	noun	list	2	6	nomatch	tard	-1	1	y	1.4828
280.70129999999995	0.0	+	28	noun	list	2	7	nomatch	tard	-1	1	y	1.4828
281.1011	0.2	clavier	28	noun	list	2	8	nomatch	tard	-1	1	y	1.4828
281.30100000000004	0.0	+	28	noun	list	2	9	nomatch	tard	-1	1	y	1.4828
281.7007	0.2	tôt	28	noun	list	2	10	nomatch	tard	-1	1	y	1.4828
281.9008	0.0	+	28	noun	list	2	11	nomatch	tard	-1	1	y	1.4828
282.30060000000003	0.0	+	28	noun	list	2	12	nomatch	tard	-1	1	y	1.4828
284.29970000000003	0.0	TARD	28	noun	list	2	13	nomatch	tard	-1	1	y	1.4828
285.83230000000003	0.0	+	28	noun	list	2	14	nomatch	tard	-1	1	y	1.4828
285.7826	0.0	[response]	28	noun	list	2	15	nomatch	tard	-1	1	y	1.4828
286.68550000000005	0.0	+	29	noun	phrase	1	1	match	beau	5	1	p	0.87157
287.24519999999995	0.2	vgr	29	noun	phrase	1	2	match	beau	5	1	p	0.87157
287.4451	0.0	+	29	noun	phrase	1	3	match	beau	5	1	p	0.87157
287.84489999999994	0.2	glcf	29	noun	phrase	1	4	match	beau	5	1	p	0.87157
288.0448	0.0	+	29	noun	phrase	1	5	match	beau	5	1	p	0.87157
288.44460000000004	0.2	zqgk	29	noun	phrase	1	6	match	beau	5	1	p	0.87157
288.64459999999997	0.0	+	29	noun	phrase	1	7	match	beau	5	1	p	0.87157
289.0444	0.2	flntzqrp	29	noun	phrase	1	8	match	beau	5	1	p	0.87157
289.24429999999995	0.0	+	29	noun	phrase	1	9	match	beau	5	1	p	0.87157
289.6441	0.2	beau	29	noun	phrase	1	10	match	beau	5	1	p	0.87157
289.8441	0.0	+	29	noun	phrase	1	11	match	beau	5	1	p	0.87157
290.24389999999994	0.0	+	29	noun	phrase	1	12	match	beau	5	1	p	0.87157
292.2431	0.0	BEAU	29	noun	phrase	1	13	match	beau	5	1	p	0.87157
293.1625	0.0	+	29	noun	phrase	1	14	match	beau	5	1	p	0.87157
293.1146	0.0	[response]	29	noun	phrase	1	15	match	beau	5	1	p	0.87157
294.6287	0.0	+	30	noun	list	4	1	nomatch	doit	-1	1	y	1.1412
295.20180000000005	0.2	srqc	30	noun	list	4	2	nomatch	doit	-1	1	y	1.1412
295.4017	0.0	+	30	noun	list	4	3	nomatch	doit	-1	1	y	1.1412
295.8016	0.2	vers	30	noun	list	4	4	nomatch	doit	-1	1	y	1.1412
296.0014	0.0	+	30	noun	list	4	5	nomatch	doit	-1	1	y	1.1412
296.4013	0.2	peut	30	noun	list	4	6	nomatch	doit	-1	1	y	1.1412
296.60119999999995	0.0	+	30	noun	list	4	7	nomatch	doit	-1	1	y	1.1412
297.001	0.2	cendrier	30	noun	list	4	8	nomatch	doit	-1	1	y	1.1412
297.201	0.0	+	30	noun	list	4	9	nomatch	doit	-1	1	y	1.1412
297.60080000000005	0.2	tôt	30	noun	list	4	10	nomatch	doit	-1	1	y	1.1412
297.8007	0.0	+	30	noun	list	4	11	nomatch	doit	-1	1	y	1.1412
298.20050000000003	0.0	+	30	noun	list	4	12	nomatch	doit	-1	1	y	1.1412
300.1997	0.0	DOIT	30	noun	list	4	13	nomatch	doit	-1	1	y	1.1412
301.3858	0.0	+	30	noun	list	4	14	nomatch	doit	-1	1	y	1.1412
301.34079999999994	0.0	[response]	30	noun	list	4	15	nomatch	doit	-1	1	y	1.1412
302.58529999999996	0.0	+	31	verb	list	3	1	nomatch	tard	-1	1	y	1.0444000000000002
303.14509999999996	0.2	lzxkc	31	verb	list	3	2	nomatch	tard	-1	1	y	1.0444000000000002
303.345	0.0	+	31	verb	list	3	3	nomatch	tard	-1	1	y	1.0444000000000002
303.74479999999994	0.2	trvp	31	verb	list	3	4	nomatch	tard	-1	1	y	1.0444000000000002
303.9448	0.0	+	31	verb	list	3	5	nomatch	tard	-1	1	y	1.0444000000000002
304.3446	0.2	mon	31	verb	list	3	6	nomatch	tard	-1	1	y	1.0444000000000002
304.54449999999997	0.0	+	31	verb	list	3	7	nomatch	tard	-1	1	y	1.0444000000000002
304.9443	0.2	plonger	31	verb	list	3	8	nomatch	tard	-1	1	y	1.0444000000000002
305.14419999999996	0.0	+	31	verb	list	3	9	nomatch	tard	-1	1	y	1.0444000000000002
305.54409999999996	0.2	rouge	31	verb	list	3	10	nomatch	tard	-1	1	y	1.0444000000000002
305.744	0.0	+	31	verb	list	3	11	nomatch	tard	-1	1	y	1.0444000000000002
306.14379999999994	0.0	+	31	verb	list	3	12	nomatch	tard	-1	1	y	1.0444000000000002
308.14300000000003	0.0	TARD	31	verb	list	3	13	nomatch	tard	-1	1	y	1.0444000000000002
309.2356	0.0	+	31	verb	list	3	14	nomatch	tard	-1	1	y	1.0444000000000002
309.1874	0.0	[response]	31	verb	list	3	15	nomatch	tard	-1	1	y	1.0444000000000002
326.53520000000003	0.0	+	32	noun	phrase	3	1	match	leur	3	1	p	1.0813
327.09489999999994	0.2	cqlrv	32	noun	phrase	3	2	match	leur	3	1	p	1.0813
327.2948	0.0	+	32	noun	phrase	3	3	match	leur	3	1	p	1.0813
327.69460000000004	0.2	bmnq	32	noun	phrase	3	4	match	leur	3	1	p	1.0813
327.89459999999997	0.0	+	32	noun	phrase	3	5	match	leur	3	1	p	1.0813
328.2944	0.2	leur	32	noun	phrase	3	6	match	leur	3	1	p	1.0813
328.49429999999995	0.0	+	32	noun	phrase	3	7	match	leur	3	1	p	1.0813
328.8941	0.2	clavier	32	noun	phrase	3	8	match	leur	3	1	p	1.0813
329.09400000000005	0.0	+	32	noun	phrase	3	9	match	leur	3	1	p	1.0813
329.49389999999994	0.2	vert	32	noun	phrase	3	10	match	leur	3	1	p	1.0813
329.6938	0.0	+	32	noun	phrase	3	11	match	leur	3	1	p	1.0813
330.09360000000004	0.0	+	32	noun	phrase	3	12	match	leur	3	1	p	1.0813
332.0928	0.0	LEUR	32	noun	phrase	3	13	match	leur	3	1	p	1.0813
333.22569999999996	0.0	+	32	noun	phrase	3	14	match	leur	3	1	p	1.0813
333.17409999999995	0.0	[response]	32	noun	phrase	3	15	match	leur	3	1	p	1.0813
334.49170000000004	0.0	+	33	noun	phrase	1	1	nomatch	mon	-1	1	y	1.238
335.05150000000003	0.2	vrf	33	noun	phrase	1	2	nomatch	mon	-1	1	y	1.238
335.25149999999996	0.0	+	33	noun	phrase	1	3	nomatch	mon	-1	1	y	1.238
335.6513	0.2	zhdl	33	noun	phrase	1	4	nomatch	mon	-1	1	y	1.238
335.85119999999995	0.0	+	33	noun	phrase	1	5	nomatch	mon	-1	1	y	1.238
336.251	0.2	vpc	33	noun	phrase	1	6	nomatch	mon	-1	1	y	1.238
336.45090000000005	0.0	+	33	noun	phrase	1	7	nomatch	mon	-1	1	y	1.238
336.85069999999996	0.2	tmhlvwr	33	noun	phrase	1	8	nomatch	mon	-1	1	y	1.238
337.0507	0.0	+	33	noun	phrase	1	9	nomatch	mon	-1	1	y	1.238
337.45050000000003	0.2	vieux	33	noun	phrase	1	10	nomatch	mon	-1	1	y	1.238
337.6504	0.0	+	33	noun	phrase	1	11	nomatch	mon	-1	1	y	1.238
338.0502	0.0	+	33	noun	phrase	1	12	nomatch	mon	-1	1	y	1.238
340.0494	0.0	MON	33	noun	phrase	1	13	nomatch	mon	-1	1	y	1.238
341.342	0.0	+	33	noun	phrase	1	14	nomatch	mon	-1	1	y	1.238
341.28740000000005	0.0	[response]	33	noun	phrase	1	15	nomatch	mon	-1	1	y	1.238
342.43499999999995	0.0	+	34	noun	phrase	3	1	match	leur	3	1	p	1.0358
342.99479999999994	0.2	chl	34	noun	phrase	3	2	match	leur	3	1	p	1.0358
343.1947	0.0	+	34	noun	phrase	3	3	match	leur	3	1	p	1.0358
343.59450000000004	0.2	hqkz	34	noun	phrase	3	4	match	leur	3	1	p	1.0358
343.7944	0.0	+	34	noun	phrase	3	5	match	leur	3	1	p	1.0358
344.1943	0.2	leur	34	noun	phrase	3	6	match	leur	3	1	p	1.0358
344.39419999999996	0.0	+	34	noun	phrase	3	7	match	leur	3	1	p	1.0358
344.79420000000005	0.2	rocher	34	noun	phrase	3	8	match	leur	3	1	p	1.0358
344.99389999999994	0.0	+	34	noun	phrase	3	9	match	leur	3	1	p	1.0358
345.39379999999994	0.2	rouge	34	noun	phrase	3	10	match	leur	3	1	p	1.0358
345.5937	0.0	+	34	noun	phrase	3	11	match	leur	3	1	p	1.0358
345.9936	0.0	+	34	noun	phrase	3	12	match	leur	3	1	p	1.0358
347.9927	0.0	LEUR	34	noun	phrase	3	13	match	leur	3	1	p	1.0358
349.072	0.0	+	34	noun	phrase	3	14	match	leur	3	1	p	1.0358
349.0285	0.0	[response]	34	noun	phrase	3	15	match	leur	3	1	p	1.0358
350.39160000000004	0.0	+	35	noun	phrase	2	1	match	clavier	4	1	p	0.84326
350.95140000000004	0.2	zfct	35	noun	phrase	2	2	match	clavier	4	1	p	0.84326
351.1513	0.0	+	35	noun	phrase	2	3	match	clavier	4	1	p	0.84326
351.5512	0.2	bmnq	35	noun	phrase	2	4	match	clavier	4	1	p	0.84326
351.75109999999995	0.0	+	35	noun	phrase	2	5	match	clavier	4	1	p	0.84326
352.1509	0.2	vpc	35	noun	phrase	2	6	match	clavier	4	1	p	0.84326
352.35080000000005	0.0	+	35	noun	phrase	2	7	match	clavier	4	1	p	0.84326
352.75059999999996	0.2	clavier	35	noun	phrase	2	8	match	clavier	4	1	p	0.84326
352.95050000000003	0.0	+	35	noun	phrase	2	9	match	clavier	4	1	p	0.84326
353.35040000000004	0.2	bleu	35	noun	phrase	2	10	match	clavier	4	1	p	0.84326
353.5503	0.0	+	35	noun	phrase	2	11	match	clavier	4	1	p	0.84326
353.9501	0.0	+	35	noun	phrase	2	12	match	clavier	4	1	p	0.84326
355.9492	0.0	CLAVIER	35	noun	phrase	2	13	match	clavier	4	1	p	0.84326
356.84209999999996	0.0	+	35	noun	phrase	2	14	match	clavier	4	1	p	0.84326
356.7925	0.0	[response]	35	noun	phrase	2	15	match	clavier	4	1	p	0.84326
358.33489999999995	0.0	+	36	noun	phrase	3	1	nomatch	tablier	-1	1	y	1.0094
358.89469999999994	0.2	xwg	36	noun	phrase	3	2	nomatch	tablier	-1	1	y	1.0094
359.0946	0.0	+	36	noun	phrase	3	3	nomatch	tablier	-1	1	y	1.0094
359.49440000000004	0.2	mvsc	36	noun	phrase	3	4	nomatch	tablier	-1	1	y	1.0094
359.6944	0.0	+	36	noun	phrase	3	5	nomatch	tablier	-1	1	y	1.0094
360.0942	0.2	mon	36	noun	phrase	3	6	nomatch	tablier	-1	1	y	1.0094
360.29409999999996	0.0	+	36	noun	phrase	3	7	nomatch	tablier	-1	1	y	1.0094
360.69399999999996	0.2	grenier	36	noun	phrase	3	8	nomatch	tablier	-1	1	y	1.0094
360.89390000000003	0.0	+	36	noun	phrase	3	9	nomatch	tablier	-1	1	y	1.0094
361.29369999999994	0.2	noir	36	noun	phrase	3	10	nomatch	tablier	-1	1	y	1.0094
361.4936	0.0	+	36	noun	phrase	3	11	nomatch	tablier	-1	1	y	1.0094
361.89340000000004	0.0	+	36	noun	phrase	3	12	nomatch	tablier	-1	1	y	1.0094
363.8926	0.0	TABLIER	36	noun	phrase	3	13	nomatch	tablier	-1	1	y	1.0094
364.9453	0.0	+	36	noun	phrase	3	14	nomatch	tablier	-1	1	y	1.0094
364.90189999999996	0.0	[response]	36	noun	phrase	3	15	nomatch	tablier	-1	1	y	1.0094
374.28819999999996	0.0	+	37	verb	phrase	4	1	nomatch	parader	-1	1	y	1.4024
374.8479	0.2	rxkz	37	verb	phrase	4	2	nomatch	parader	-1	1	y	1.4024
375.0479	0.0	+	37	verb	phrase	4	3	nomatch	parader	-1	1	y	1.4024
375.44769999999994	0.2	adam	37	verb	phrase	4	4	nomatch	parader	-1	1	y	1.4024
375.6476	0.0	+	37	verb	phrase	4	5	nomatch	parader	-1	1	y	1.4024
376.04740000000004	0.2	peut	37	verb	phrase	4	6	nomatch	parader	-1	1	y	1.4024
376.2473	0.0	+	37	verb	phrase	4	7	nomatch	parader	-1	1	y	1.4024
376.6472	0.2	beaucoup	37	verb	phrase	4	8	nomatch	parader	-1	1	y	1.4024
376.84709999999995	0.0	+	37	verb	phrase	4	9	nomatch	parader	-1	1	y	1.4024
377.2469	0.2	rouler	37	verb	phrase	4	10	nomatch	parader	-1	1	y	1.4024
377.44679999999994	0.0	+	37	verb	phrase	4	11	nomatch	parader	-1	1	y	1.4024
377.84659999999997	0.0	+	37	verb	phrase	4	12	nomatch	parader	-1	1	y	1.4024
379.84569999999997	0.0	PARADER	37	verb	phrase	4	13	nomatch	parader	-1	1	y	1.4024
381.29830000000004	0.0	+	37	verb	phrase	4	14	nomatch	parader	-1	1	y	1.4024
381.2482	0.0	[response]	37	verb	phrase	4	15	nomatch	parader	-1	1	y	1.4024
382.2315	0.0	+	38	verb	list	3	1	match	noir	5	1	p	0.93192
382.7912	0.2	ncr	38	verb	list	3	2	match	noir	5	1	p	0.93192
382.99120000000005	0.0	+	38	verb	list	3	3	match	noir	5	1	p	0.93192
383.3909	0.2	zrmn	38	verb	list	3	4	match	noir	5	1	p	0.93192
383.59079999999994	0.0	+	38	verb	list	3	5	match	noir	5	1	p	0.93192
383.99069999999995	0.2	leur	38	verb	list	3	6	match	noir	5	1	p	0.93192
384.1906	0.0	+	38	verb	list	3	7	match	noir	5	1	p	0.93192
384.5905	0.2	nager	38	verb	list	3	8	match	noir	5	1	p	0.93192
384.7904	0.0	+	38	verb	list	3	9	match	noir	5	1	p	0.93192
385.19010000000003	0.2	noir	38	verb	list	3	10	match	noir	5	1	p	0.93192
385.39009999999996	0.0	+	38	verb	list	3	11	match	noir	5	1	p	0.93192
385.7899	0.0	+	38	verb	list	3	12	match	noir	5	1	p	0.93192
387.78909999999996	0.0	NOIR	38	verb	list	3	13	match	noir	5	1	p	0.93192
388.7753	0.0	+	38	verb	list	3	14	match	noir	5	1	p	0.93192
388.721	0.0	[response]	38	verb	list	3	15	match	noir	5	1	p	0.93192
390.188	0.0	+	39	verb	phrase	1	1	match	parader	5	1	p	0.90266
390.7478	0.2	hjqwn	39	verb	phrase	1	2	match	parader	5	1	p	0.90266
390.94769999999994	0.0	+	39	verb	phrase	1	3	match	parader	5	1	p	0.90266
391.34759999999994	0.2	srp	39	verb	phrase	1	4	match	parader	5	1	p	0.90266
391.5475	0.0	+	39	verb	phrase	1	5	match	parader	5	1	p	0.90266
391.94730000000004	0.2	trzk	39	verb	phrase	1	6	match	parader	5	1	p	0.90266
392.1472	0.0	+	39	verb	phrase	1	7	match	parader	5	1	p	0.90266
392.547	0.2	fls	39	verb	phrase	1	8	match	parader	5	1	p	0.90266
392.74699999999996	0.0	+	39	verb	phrase	1	9	match	parader	5	1	p	0.90266
393.1468	0.2	parader	39	verb	phrase	1	10	match	parader	5	1	p	0.90266
393.34669999999994	0.0	+	39	verb	phrase	1	11	match	parader	5	1	p	0.90266
393.74649999999997	0.0	+	39	verb	phrase	1	12	match	parader	5	1	p	0.90266
395.74569999999994	0.0	PARADER	39	verb	phrase	1	13	match	parader	5	1	p	0.90266
396.692	0.0	+	39	verb	phrase	1	14	match	parader	5	1	p	0.90266
396.64840000000004	0.0	[response]	39	verb	phrase	1	15	match	parader	5	1	p	0.90266
398.1314	0.0	+	40	verb	phrase	1	1	nomatch	galoper	-1	1	y	0.79773
398.6911	0.2	lcxbqj	40	verb	phrase	1	2	nomatch	galoper	-1	1	y	0.79773
398.89110000000005	0.0	+	40	verb	phrase	1	3	nomatch	galoper	-1	1	y	0.79773
399.2908	0.2	lzdr	40	verb	phrase	1	4	nomatch	galoper	-1	1	y	0.79773
399.49080000000004	0.0	+	40	verb	phrase	1	5	nomatch	galoper	-1	1	y	0.79773
399.89059999999995	0.2	kq	40	verb	phrase	1	6	nomatch	galoper	-1	1	y	0.79773
400.0905	0.0	+	40	verb	phrase	1	7	nomatch	galoper	-1	1	y	0.79773
400.49030000000005	0.2	qjfl	40	verb	phrase	1	8	nomatch	galoper	-1	1	y	0.79773
400.6902	0.0	+	40	verb	phrase	1	9	nomatch	galoper	-1	1	y	0.79773
401.0901	0.2	rouler	40	verb	phrase	1	10	nomatch	galoper	-1	1	y	0.79773
401.2903	0.0	+	40	verb	phrase	1	11	nomatch	galoper	-1	1	y	0.79773
401.68960000000004	0.0	+	40	verb	phrase	1	12	nomatch	galoper	-1	1	y	0.79773
403.68899999999996	0.0	GALOPER	40	verb	phrase	1	13	nomatch	galoper	-1	1	y	0.79773
404.54179999999997	0.0	+	40	verb	phrase	1	14	nomatch	galoper	-1	1	y	0.79773
404.48670000000004	0.0	[response]	40	verb	phrase	1	15	nomatch	galoper	-1	1	y	0.79773
406.0879	0.0	+	41	verb	phrase	4	1	match	va	3	1	p	0.97715
406.6477	0.2	hndgsk	41	verb	phrase	4	2	match	va	3	1	p	0.97715
406.84759999999994	0.0	+	41	verb	phrase	4	3	match	va	3	1	p	0.97715
407.24749999999995	0.2	luc	41	verb	phrase	4	4	match	va	3	1	p	0.97715
407.4474	0.0	+	41	verb	phrase	4	5	match	va	3	1	p	0.97715
407.84720000000004	0.2	va	41	verb	phrase	4	6	match	va	3	1	p	0.97715
408.0471	0.0	+	41	verb	phrase	4	7	match	va	3	1	p	0.97715
408.447	0.2	trop	41	verb	phrase	4	8	match	va	3	1	p	0.97715
408.64689999999996	0.0	+	41	verb	phrase	4	9	match	va	3	1	p	0.97715
409.0467	0.2	nager	41	verb	phrase	4	10	match	va	3	1	p	0.97715
409.24659999999994	0.0	+	41	verb	phrase	4	11	match	va	3	1	p	0.97715
409.64639999999997	0.0	+	41	verb	phrase	4	12	match	va	3	1	p	0.97715
411.64559999999994	0.0	VA	41	verb	phrase	4	13	match	va	3	1	p	0.97715
412.6716	0.0	+	41	verb	phrase	4	14	match	va	3	1	p	0.97715
412.6228	0.0	[response]	41	verb	phrase	4	15	match	va	3	1	p	0.97715
414.0313	0.0	+	42	verb	phrase	1	1	nomatch	panier	-1	1	y	1.1536
414.59090000000003	0.2	pxhcsf	42	verb	phrase	1	2	nomatch	panier	-1	1	y	1.1536
414.79089999999997	0.0	+	42	verb	phrase	1	3	nomatch	panier	-1	1	y	1.1536
415.1907	0.2	trvp	42	verb	phrase	1	4	nomatch	panier	-1	1	y	1.1536
415.39070000000004	0.0	+	42	verb	phrase	1	5	nomatch	panier	-1	1	y	1.1536
415.7907	0.2	trzk	42	verb	phrase	1	6	nomatch	panier	-1	1	y	1.1536
415.9904	0.0	+	42	verb	phrase	1	7	nomatch	panier	-1	1	y	1.1536
416.3903	0.2	zqcm	42	verb	phrase	1	8	nomatch	panier	-1	1	y	1.1536
416.5902	0.0	+	42	verb	phrase	1	9	nomatch	panier	-1	1	y	1.1536
416.99	0.2	patiner	42	verb	phrase	1	10	nomatch	panier	-1	1	y	1.1536
417.18989999999997	0.0	+	42	verb	phrase	1	11	nomatch	panier	-1	1	y	1.1536
417.58979999999997	0.0	+	42	verb	phrase	1	12	nomatch	panier	-1	1	y	1.1536
419.58889999999997	0.0	PANIER	42	verb	phrase	1	13	nomatch	panier	-1	1	y	1.1536
420.78830000000005	0.0	+	42	verb	phrase	1	14	nomatch	panier	-1	1	y	1.1536
420.74249999999995	0.0	[response]	42	verb	phrase	1	15	nomatch	panier	-1	1	y	1.1536
421.98789999999997	0.0	+	43	noun	list	1	1	match	trop	5	1	p	0.99599
422.54769999999996	0.2	cqbh	43	noun	list	1	2	match	trop	5	1	p	0.99599
422.74749999999995	0.0	+	43	noun	list	1	3	match	trop	5	1	p	0.99599
423.14739999999995	0.2	vhrw	43	noun	list	1	4	match	trop	5	1	p	0.99599
423.3473	0.0	+	43	noun	list	1	5	match	trop	5	1	p	0.99599
423.74710000000005	0.2	qmj	43	noun	list	1	6	match	trop	5	1	p	0.99599
423.947	0.0	+	43	noun	list	1	7	match	trop	5	1	p	0.99599
424.3469	0.2	bxlrsdw	43	noun	list	1	8	match	trop	5	1	p	0.99599
424.54679999999996	0.0	+	43	noun	list	1	9	match	trop	5	1	p	0.99599
424.9466	0.2	trop	43	noun	list	1	10	match	trop	5	1	p	0.99599
425.14649999999995	0.0	+	43	noun	list	1	11	match	trop	5	1	p	0.99599
425.54639999999995	0.0	+	43	noun	list	1	12	match	trop	5	1	p	0.99599
427.54549999999995	0.0	TROP	43	noun	list	1	13	match	trop	5	1	p	0.99599
428.5851	0.0	+	43	noun	list	1	14	match	trop	5	1	p	0.99599
428.54150000000004	0.0	[response]	43	noun	list	1	15	match	trop	5	1	p	0.99599
429.9312	0.0	+	44	verb	list	2	1	nomatch	peut	-1	1	y	1.5809
430.491	0.2	dwlp	44	verb	list	2	2	nomatch	peut	-1	1	y	1.5809
430.69079999999997	0.0	+	44	verb	list	2	3	nomatch	peut	-1	1	y	1.5809
431.09069999999997	0.2	dnbc	44	verb	list	2	4	nomatch	peut	-1	1	y	1.5809
431.2905999999999	0.0	+	44	verb	list	2	5	nomatch	peut	-1	1	y	1.5809
431.69039999999995	0.2	zqgk	44	verb	list	2	6	nomatch	peut	-1	1	y	1.5809
431.8902999999999	0.0	+	44	verb	list	2	7	nomatch	peut	-1	1	y	1.5809
432.29009999999994	0.2	galoper	44	verb	list	2	8	nomatch	peut	-1	1	y	1.5809
432.4901	0.0	+	44	verb	list	2	9	nomatch	peut	-1	1	y	1.5809
432.8899	0.2	blanc	44	verb	list	2	10	nomatch	peut	-1	1	y	1.5809
433.08979999999997	0.0	+	44	verb	list	2	11	nomatch	peut	-1	1	y	1.5809
433.4896	0.0	+	44	verb	list	2	12	nomatch	peut	-1	1	y	1.5809
435.48879999999997	0.0	PEUT	44	verb	list	2	13	nomatch	peut	-1	1	y	1.5809
437.11479999999995	0.0	+	44	verb	list	2	14	nomatch	peut	-1	1	y	1.5809
437.0697	0.0	[response]	44	verb	list	2	15	nomatch	peut	-1	1	y	1.5809
437.88779999999997	0.0	+	45	noun	phrase	1	1	nomatch	patiner	-1	1	y	1.1151
438.4475	0.2	sqg	45	noun	phrase	1	2	nomatch	patiner	-1	1	y	1.1151
438.64739999999995	0.0	+	45	noun	phrase	1	3	nomatch	patiner	-1	1	y	1.1151
439.04729999999995	0.2	hqkz	45	noun	phrase	1	4	nomatch	patiner	-1	1	y	1.1151
439.2472	0.0	+	45	noun	phrase	1	5	nomatch	patiner	-1	1	y	1.1151
439.64699999999993	0.2	qmj	45	noun	phrase	1	6	nomatch	patiner	-1	1	y	1.1151
439.8469	0.0	+	45	noun	phrase	1	7	nomatch	patiner	-1	1	y	1.1151
440.2468	0.2	dqjh	45	noun	phrase	1	8	nomatch	patiner	-1	1	y	1.1151
440.44669999999996	0.0	+	45	noun	phrase	1	9	nomatch	patiner	-1	1	y	1.1151
440.8465	0.2	rocher	45	noun	phrase	1	10	nomatch	patiner	-1	1	y	1.1151
441.04639999999995	0.0	+	45	noun	phrase	1	11	nomatch	patiner	-1	1	y	1.1151
441.44629999999995	0.0	+	45	noun	phrase	1	12	nomatch	patiner	-1	1	y	1.1151
443.4453	0.0	PATINER	45	noun	phrase	1	13	nomatch	patiner	-1	1	y	1.1151
444.605	0.0	+	45	noun	phrase	1	14	nomatch	patiner	-1	1	y	1.1151
444.5604000000001	0.0	[response]	45	noun	phrase	1	15	nomatch	patiner	-1	1	y	1.1151
445.8311	0.0	+	46	noun	list	2	1	nomatch	jean	-1	1	y	1.4574
446.3908	0.2	fzr	46	noun	list	2	2	nomatch	jean	-1	1	y	1.4574
446.59069999999997	0.0	+	46	noun	list	2	3	nomatch	jean	-1	1	y	1.4574
446.9905	0.2	bdrm	46	noun	list	2	4	nomatch	jean	-1	1	y	1.4574
447.19049999999993	0.0	+	46	noun	list	2	5	nomatch	jean	-1	1	y	1.4574
447.59029999999996	0.2	vpc	46	noun	list	2	6	nomatch	jean	-1	1	y	1.4574
447.7901999999999	0.0	+	46	noun	list	2	7	nomatch	jean	-1	1	y	1.4574
448.18999999999994	0.2	trop	46	noun	list	2	8	nomatch	jean	-1	1	y	1.4574
448.39	0.0	+	46	noun	list	2	9	nomatch	jean	-1	1	y	1.4574
448.7898	0.2	voilier	46	noun	list	2	10	nomatch	jean	-1	1	y	1.4574
448.98969999999997	0.0	+	46	noun	list	2	11	nomatch	jean	-1	1	y	1.4574
449.3895	0.0	+	46	noun	list	2	12	nomatch	jean	-1	1	y	1.4574
451.3887	0.0	JEAN	46	noun	list	2	13	nomatch	jean	-1	1	y	1.4574
452.8945	0.0	+	46	noun	list	2	14	nomatch	jean	-1	1	y	1.4574
452.846	0.0	[response]	46	noun	list	2	15	nomatch	jean	-1	1	y	1.4574
453.7877	0.0	+	47	noun	phrase	2	1	match	vert	5	1	p	1.1085
454.3474	0.2	wvmlzc	47	noun	phrase	2	2	match	vert	5	1	p	1.1085
454.54729999999995	0.0	+	47	noun	phrase	2	3	match	vert	5	1	p	1.1085
454.9471	0.2	xndr	47	noun	phrase	2	4	match	vert	5	1	p	1.1085
455.1471	0.0	+	47	noun	phrase	2	5	match	vert	5	1	p	1.1085
455.54689999999994	0.2	qmj	47	noun	phrase	2	6	match	vert	5	1	p	1.1085
455.7468	0.0	+	47	noun	phrase	2	7	match	vert	5	1	p	1.1085
456.1467	0.2	casier	47	noun	phrase	2	8	match	vert	5	1	p	1.1085
456.34659999999997	0.0	+	47	noun	phrase	2	9	match	vert	5	1	p	1.1085
456.7464	0.2	vert	47	noun	phrase	2	10	match	vert	5	1	p	1.1085
456.94629999999995	0.0	+	47	noun	phrase	2	11	match	vert	5	1	p	1.1085
457.34619999999995	0.0	+	47	noun	phrase	2	12	match	vert	5	1	p	1.1085
459.34529999999995	0.0	VERT	47	noun	phrase	2	13	match	vert	5	1	p	1.1085
460.50479999999993	0.0	+	47	noun	phrase	2	14	match	vert	5	1	p	1.1085
460.4538	0.0	[response]	47	noun	phrase	2	15	match	vert	5	1	p	1.1085
461.73079999999993	0.0	+	48	verb	phrase	1	1	nomatch	vers	-1	1	y	1.2834
462.2908	0.2	hkzf	48	verb	phrase	1	2	nomatch	vers	-1	1	y	1.2834
462.4906	0.0	+	48	verb	phrase	1	3	nomatch	vers	-1	1	y	1.2834
462.8905	0.2	zrmn	48	verb	phrase	1	4	nomatch	vers	-1	1	y	1.2834
463.09039999999993	0.0	+	48	verb	phrase	1	5	nomatch	vers	-1	1	y	1.2834
463.4901	0.2	szxj	48	verb	phrase	1	6	nomatch	vers	-1	1	y	1.2834
463.6900999999999	0.0	+	48	verb	phrase	1	7	nomatch	vers	-1	1	y	1.2834
464.0899999999999	0.2	mbntjc	48	verb	phrase	1	8	nomatch	vers	-1	1	y	1.2834
464.2899	0.0	+	48	verb	phrase	1	9	nomatch	vers	-1	1	y	1.2834
464.6897	0.2	trop	48	verb	phrase	1	10	nomatch	vers	-1	1	y	1.2834
464.8896	0.0	+	48	verb	phrase	1	11	nomatch	vers	-1	1	y	1.2834
465.2894	0.0	+	48	verb	phrase	1	12	nomatch	vers	-1	1	y	1.2834
467.2886	0.0	VERS	48	verb	phrase	1	13	nomatch	vers	-1	1	y	1.2834
468.62119999999993	0.0	+	48	verb	phrase	1	14	nomatch	vers	-1	1	y	1.2834
468.572	0.0	[response]	48	verb	phrase	1	15	nomatch	vers	-1	1	y	1.2834
469.6876	0.0	+	49	verb	list	3	1	match	mon	3	1	p	1.2005000000000001
470.24739999999997	0.2	xgl	49	verb	list	3	2	match	mon	3	1	p	1.2005000000000001
470.4472999999999	0.0	+	49	verb	list	3	3	match	mon	3	1	p	1.2005000000000001
470.84709999999995	0.2	dnbc	49	verb	list	3	4	match	mon	3	1	p	1.2005000000000001
471.04689999999994	0.0	+	49	verb	list	3	5	match	mon	3	1	p	1.2005000000000001
471.44679999999994	0.2	mon	49	verb	list	3	6	match	mon	3	1	p	1.2005000000000001
471.6468	0.0	+	49	verb	list	3	7	match	mon	3	1	p	1.2005000000000001
472.0466	0.2	rouler	49	verb	list	3	8	match	mon	3	1	p	1.2005000000000001
472.24649999999997	0.0	+	49	verb	list	3	9	match	mon	3	1	p	1.2005000000000001
472.6463	0.2	vert	49	verb	list	3	10	match	mon	3	1	p	1.2005000000000001
472.8462999999999	0.0	+	49	verb	list	3	11	match	mon	3	1	p	1.2005000000000001
473.24609999999996	0.0	+	49	verb	list	3	12	match	mon	3	1	p	1.2005000000000001
475.24519999999995	0.0	MON	49	verb	list	3	13	match	mon	3	1	p	1.2005000000000001
476.49799999999993	0.0	+	49	verb	list	3	14	match	mon	3	1	p	1.2005000000000001
476.4457	0.0	[response]	49	verb	list	3	15	match	mon	3	1	p	1.2005000000000001
477.6309	0.0	+	50	noun	phrase	2	1	nomatch	blanc	-1	1	y	1.3432000000000002
478.1906	0.2	nrmp	50	noun	phrase	2	2	nomatch	blanc	-1	1	y	1.3432000000000002
478.3905	0.0	+	50	noun	phrase	2	3	nomatch	blanc	-1	1	y	1.3432000000000002
478.7904	0.2	hqkz	50	noun	phrase	2	4	nomatch	blanc	-1	1	y	1.3432000000000002
478.99019999999996	0.0	+	50	noun	phrase	2	5	nomatch	blanc	-1	1	y	1.3432000000000002
479.39009999999996	0.2	zqgk	50	noun	phrase	2	6	nomatch	blanc	-1	1	y	1.3432000000000002
479.5899999999999	0.0	+	50	noun	phrase	2	7	nomatch	blanc	-1	1	y	1.3432000000000002
479.98979999999995	0.2	grand	50	noun	phrase	2	8	nomatch	blanc	-1	1	y	1.3432000000000002
480.1898	0.0	+	50	noun	phrase	2	9	nomatch	blanc	-1	1	y	1.3432000000000002
480.5896	0.2	voilier	50	noun	phrase	2	10	nomatch	blanc	-1	1	y	1.3432000000000002
480.7895	0.0	+	50	noun	phrase	2	11	nomatch	blanc	-1	1	y	1.3432000000000002
481.1893	0.0	+	50	noun	phrase	2	12	nomatch	blanc	-1	1	y	1.3432000000000002
483.20179999999993	0.0	BLANC	50	noun	phrase	2	13	nomatch	blanc	-1	1	y	1.3432000000000002
484.5879	0.0	+	50	noun	phrase	2	14	nomatch	blanc	-1	1	y	1.3432000000000002
484.54509999999993	0.0	[response]	50	noun	phrase	2	15	nomatch	blanc	-1	1	y	1.3432000000000002
493.58399999999995	0.0	+	51	noun	list	2	1	nomatch	avec	-1	1	y	1.0267000000000002
494.14379999999994	0.2	zbjcrh	51	noun	list	2	2	nomatch	avec	-1	1	y	1.0267000000000002
494.3438	0.0	+	51	noun	list	2	3	nomatch	avec	-1	1	y	1.0267000000000002
494.7434999999999	0.2	srp	51	noun	list	2	4	nomatch	avec	-1	1	y	1.0267000000000002
494.9435	0.0	+	51	noun	list	2	5	nomatch	avec	-1	1	y	1.0267000000000002
495.3433	0.2	qmj	51	noun	list	2	6	nomatch	avec	-1	1	y	1.0267000000000002
495.54319999999996	0.0	+	51	noun	list	2	7	nomatch	avec	-1	1	y	1.0267000000000002
495.94309999999996	0.2	beaucoup	51	noun	list	2	8	nomatch	avec	-1	1	y	1.0267000000000002
496.1429999999999	0.0	+	51	noun	list	2	9	nomatch	avec	-1	1	y	1.0267000000000002
496.54279999999994	0.2	panier	51	noun	list	2	10	nomatch	avec	-1	1	y	1.0267000000000002
496.7427	0.0	+	51	noun	list	2	11	nomatch	avec	-1	1	y	1.0267000000000002
497.1426	0.0	+	51	noun	list	2	12	nomatch	avec	-1	1	y	1.0267000000000002
499.1417	0.0	AVEC	51	noun	list	2	13	nomatch	avec	-1	1	y	1.0267000000000002
500.2211	0.0	+	51	noun	list	2	14	nomatch	avec	-1	1	y	1.0267000000000002
500.1684	0.0	[response]	51	noun	list	2	15	nomatch	avec	-1	1	y	1.0267000000000002
501.5407	0.0	+	52	verb	list	1	1	match	jongler	5	1	p	1.3491
502.1005	0.2	kvg	52	verb	list	1	2	match	jongler	5	1	p	1.3491
502.30039999999997	0.0	+	52	verb	list	1	3	match	jongler	5	1	p	1.3491
502.70029999999997	0.2	bdrm	52	verb	list	1	4	match	jongler	5	1	p	1.3491
502.90009999999995	0.0	+	52	verb	list	1	5	match	jongler	5	1	p	1.3491
503.2999	0.2	zqgk	52	verb	list	1	6	match	jongler	5	1	p	1.3491
503.4998999999999	0.0	+	52	verb	list	1	7	match	jongler	5	1	p	1.3491
503.89969999999994	0.2	vztqj	52	verb	list	1	8	match	jongler	5	1	p	1.3491
504.0996	0.0	+	52	verb	list	1	9	match	jongler	5	1	p	1.3491
504.4993999999999	0.2	jongler	52	verb	list	1	10	match	jongler	5	1	p	1.3491
504.6993	0.0	+	52	verb	list	1	11	match	jongler	5	1	p	1.3491
505.0992	0.0	+	52	verb	list	1	12	match	jongler	5	1	p	1.3491
507.0983	0.0	JONGLER	52	verb	list	1	13	match	jongler	5	1	p	1.3491
508.4977	0.0	+	52	verb	list	1	14	match	jongler	5	1	p	1.3491
508.4475	0.0	[response]	52	verb	list	1	15	match	jongler	5	1	p	1.3491
509.4839999999999	0.0	+	53	verb	phrase	3	1	nomatch	va	-1	1	y	1.1829
510.0437999999999	0.2	tnl	53	verb	phrase	3	2	nomatch	va	-1	1	y	1.1829
510.2437	0.0	+	53	verb	phrase	3	3	nomatch	va	-1	1	y	1.1829
510.6435	0.2	lzdr	53	verb	phrase	3	4	nomatch	va	-1	1	y	1.1829
510.8433	0.0	+	53	verb	phrase	3	5	nomatch	va	-1	1	y	1.1829
511.2432	0.2	peut	53	verb	phrase	3	6	nomatch	va	-1	1	y	1.1829
511.44309999999996	0.0	+	53	verb	phrase	3	7	nomatch	va	-1	1	y	1.1829
511.84299999999996	0.2	mieux	53	verb	phrase	3	8	nomatch	va	-1	1	y	1.1829
512.0428999999999	0.0	+	53	verb	phrase	3	9	nomatch	va	-1	1	y	1.1829
512.4427	0.2	parader	53	verb	phrase	3	10	nomatch	va	-1	1	y	1.1829
512.6426	0.0	+	53	verb	phrase	3	11	nomatch	va	-1	1	y	1.1829
513.0423999999999	0.0	+	53	verb	phrase	3	12	nomatch	va	-1	1	y	1.1829
515.0416	0.0	VA	53	verb	phrase	3	13	nomatch	va	-1	1	y	1.1829
516.2678	0.0	+	53	verb	phrase	3	14	nomatch	va	-1	1	y	1.1829
516.2244999999999	0.0	[response]	53	verb	phrase	3	15	nomatch	va	-1	1	y	1.1829
517.4406	0.0	+	54	verb	list	2	1	nomatch	chasser	-1	1	y	1.0141
518.0002999999999	0.2	gxldfsc	54	verb	list	2	2	nomatch	chasser	-1	1	y	1.0141
518.2003	0.0	+	54	verb	list	2	3	nomatch	chasser	-1	1	y	1.0141
518.6001	0.2	trvp	54	verb	list	2	4	nomatch	chasser	-1	1	y	1.0141
518.8	0.0	+	54	verb	list	2	5	nomatch	chasser	-1	1	y	1.0141
519.1999	0.2	vpc	54	verb	list	2	6	nomatch	chasser	-1	1	y	1.0141
519.3996999999999	0.0	+	54	verb	list	2	7	nomatch	chasser	-1	1	y	1.0141
519.7995	0.2	jongler	54	verb	list	2	8	nomatch	chasser	-1	1	y	1.0141
519.9995	0.0	+	54	verb	list	2	9	nomatch	chasser	-1	1	y	1.0141
520.3992999999999	0.2	bleu	54	verb	list	2	10	nomatch	chasser	-1	1	y	1.0141
520.5992	0.0	+	54	verb	list	2	11	nomatch	chasser	-1	1	y	1.0141
520.9991	0.0	+	54	verb	list	2	12	nomatch	chasser	-1	1	y	1.0141
522.9982	0.0	CHASSER	54	verb	list	2	13	nomatch	chasser	-1	1	y	1.0141
524.0644	0.0	+	54	verb	list	2	14	nomatch	chasser	-1	1	y	1.0141
524.0123000000001	0.0	[response]	54	verb	list	2	15	nomatch	chasser	-1	1	y	1.0141
533.3805	0.0	+	55	verb	phrase	2	1	match	nager	4	1	p	1.4001
533.9403	0.2	khbx	55	verb	phrase	2	2	match	nager	4	1	p	1.4001
534.1401999999999	0.0	+	55	verb	phrase	2	3	match	nager	4	1	p	1.4001
534.54	0.2	dnbc	55	verb	phrase	2	4	match	nager	4	1	p	1.4001
534.7398999999999	0.0	+	55	verb	phrase	2	5	match	nager	4	1	p	1.4001
535.1397999999999	0.2	trzk	55	verb	phrase	2	6	match	nager	4	1	p	1.4001
535.3396	0.0	+	55	verb	phrase	2	7	match	nager	4	1	p	1.4001
535.7395	0.2	nager	55	verb	phrase	2	8	match	nager	4	1	p	1.4001
535.9393	0.0	+	55	verb	phrase	2	9	match	nager	4	1	p	1.4001
536.3392	0.2	vite	55	verb	phrase	2	10	match	nager	4	1	p	1.4001
536.5391	0.0	+	55	verb	phrase	2	11	match	nager	4	1	p	1.4001
536.939	0.0	+	55	verb	phrase	2	12	match	nager	4	1	p	1.4001
538.9513999999999	0.0	NAGER	55	verb	phrase	2	13	match	nager	4	1	p	1.4001
540.404	0.0	+	55	verb	phrase	2	14	match	nager	4	1	p	1.4001
540.3515	0.0	[response]	55	verb	phrase	2	15	match	nager	4	1	p	1.4001
541.3371	0.0	+	56	verb	phrase	4	1	nomatch	panier	-1	1	y	1.4156
541.8968	0.2	gwc	56	verb	phrase	4	2	nomatch	panier	-1	1	y	1.4156
542.0967999999999	0.0	+	56	verb	phrase	4	3	nomatch	panier	-1	1	y	1.4156
542.4966	0.2	yves	56	verb	phrase	4	4	nomatch	panier	-1	1	y	1.4156
542.6965	0.0	+	56	verb	phrase	4	5	nomatch	panier	-1	1	y	1.4156
543.0964	0.2	doit	56	verb	phrase	4	6	nomatch	panier	-1	1	y	1.4156
543.2963	0.0	+	56	verb	phrase	4	7	nomatch	panier	-1	1	y	1.4156
543.6961	0.2	moins	56	verb	phrase	4	8	nomatch	panier	-1	1	y	1.4156
543.896	0.0	+	56	verb	phrase	4	9	nomatch	panier	-1	1	y	1.4156
544.2958	0.2	parader	56	verb	phrase	4	10	nomatch	panier	-1	1	y	1.4156
544.4957999999999	0.0	+	56	verb	phrase	4	11	nomatch	panier	-1	1	y	1.4156
544.8956	0.0	+	56	verb	phrase	4	12	nomatch	panier	-1	1	y	1.4156
546.8947	0.0	PANIER	56	verb	phrase	4	13	nomatch	panier	-1	1	y	1.4156
548.3606	0.0	+	56	verb	phrase	4	14	nomatch	panier	-1	1	y	1.4156
548.3103000000001	0.0	[response]	56	verb	phrase	4	15	nomatch	panier	-1	1	y	1.4156
549.2804	0.0	+	57	noun	phrase	1	1	nomatch	va	-1	1	y	1.7668
549.8401	0.2	gkz	57	noun	phrase	1	2	nomatch	va	-1	1	y	1.7668
550.0400999999999	0.0	+	57	noun	phrase	1	3	nomatch	va	-1	1	y	1.7668
550.4399	0.2	mvsc	57	noun	phrase	1	4	nomatch	va	-1	1	y	1.7668
550.6397999999999	0.0	+	57	noun	phrase	1	5	nomatch	va	-1	1	y	1.7668
551.0396	0.2	vpc	57	noun	phrase	1	6	nomatch	va	-1	1	y	1.7668
551.2396	0.0	+	57	noun	phrase	1	7	nomatch	va	-1	1	y	1.7668
551.6392999999999	0.2	hsjqf	57	noun	phrase	1	8	nomatch	va	-1	1	y	1.7668
551.8393	0.0	+	57	noun	phrase	1	9	nomatch	va	-1	1	y	1.7668
552.2391	0.2	clavier	57	noun	phrase	1	10	nomatch	va	-1	1	y	1.7668
552.439	0.0	+	57	noun	phrase	1	11	nomatch	va	-1	1	y	1.7668
552.8389	0.0	+	57	noun	phrase	1	12	nomatch	va	-1	1	y	1.7668
554.8512999999999	0.0	VA	57	noun	phrase	1	13	nomatch	va	-1	1	y	1.7668
556.6637	0.0	+	57	noun	phrase	1	14	nomatch	va	-1	1	y	1.7668
556.6182000000001	0.0	[response]	57	noun	phrase	1	15	nomatch	va	-1	1	y	1.7668
565.2335999999999	0.0	+	58	verb	list	3	1	match	chasser	4	1	p	1.1905000000000001
565.7934	0.2	wqnxsft	58	verb	list	3	2	match	chasser	4	1	p	1.1905000000000001
565.9933	0.0	+	58	verb	list	3	3	match	chasser	4	1	p	1.1905000000000001
566.3931	0.2	bdrm	58	verb	list	3	4	match	chasser	4	1	p	1.1905000000000001
566.593	0.0	+	58	verb	list	3	5	match	chasser	4	1	p	1.1905000000000001
566.9928	0.2	son	58	verb	list	3	6	match	chasser	4	1	p	1.1905000000000001
567.1927999999999	0.0	+	58	verb	list	3	7	match	chasser	4	1	p	1.1905000000000001
567.5926	0.2	chasser	58	verb	list	3	8	match	chasser	4	1	p	1.1905000000000001
567.7925	0.0	+	58	verb	list	3	9	match	chasser	4	1	p	1.1905000000000001
568.1922999999999	0.2	bleu	58	verb	list	3	10	match	chasser	4	1	p	1.1905000000000001
568.3922	0.0	+	58	verb	list	3	11	match	chasser	4	1	p	1.1905000000000001
568.7919999999999	0.0	+	58	verb	list	3	12	match	chasser	4	1	p	1.1905000000000001
570.7912	0.0	CHASSER	58	verb	list	3	13	match	chasser	4	1	p	1.1905000000000001
572.0305	0.0	+	58	verb	list	3	14	match	chasser	4	1	p	1.1905000000000001
571.9816999999999	0.0	[response]	58	verb	list	3	15	match	chasser	4	1	p	1.1905000000000001
573.1903	0.0	+	59	verb	phrase	3	1	match	trop	4	1	p	1.0416
573.75	0.2	cjhd	59	verb	phrase	3	2	match	trop	4	1	p	1.0416
573.9499	0.0	+	59	verb	phrase	3	3	match	trop	4	1	p	1.0416
574.3497	0.2	trvp	59	verb	phrase	3	4	match	trop	4	1	p	1.0416
574.5496999999999	0.0	+	59	verb	phrase	3	5	match	trop	4	1	p	1.0416
574.9495	0.2	peut	59	verb	phrase	3	6	match	trop	4	1	p	1.0416
575.1494	0.0	+	59	verb	phrase	3	7	match	trop	4	1	p	1.0416
575.5491999999999	0.2	trop	59	verb	phrase	3	8	match	trop	4	1	p	1.0416
575.7491	0.0	+	59	verb	phrase	3	9	match	trop	4	1	p	1.0416
576.1488999999999	0.2	plonger	59	verb	phrase	3	10	match	trop	4	1	p	1.0416
576.3489	0.0	+	59	verb	phrase	3	11	match	trop	4	1	p	1.0416
576.7487	0.0	+	59	verb	phrase	3	12	match	trop	4	1	p	1.0416
578.7478	0.0	TROP	59	verb	phrase	3	13	match	trop	4	1	p	1.0416
579.8408	0.0	+	59	verb	phrase	3	14	match	trop	4	1	p	1.0416
579.7892999999999	0.0	[response]	59	verb	phrase	3	15	match	trop	4	1	p	1.0416
581.1334999999999	0.0	+	60	verb	list	1	1	match	patiner	5	1	p	0.9336000000000001
581.6931	0.2	wczg	60	verb	list	1	2	match	patiner	5	1	p	0.9336000000000001
581.8932	0.0	+	60	verb	list	1	3	match	patiner	5	1	p	0.9336000000000001
582.293	0.2	zrmn	60	verb	list	1	4	match	patiner	5	1	p	0.9336000000000001
582.4929	0.0	+	60	verb	list	1	5	match	patiner	5	1	p	0.9336000000000001
582.8927	0.2	qmj	60	verb	list	1	6	match	patiner	5	1	p	0.9336000000000001
583.0926999999999	0.0	+	60	verb	list	1	7	match	patiner	5	1	p	0.9336000000000001
583.4924	0.2	snxb	60	verb	list	1	8	match	patiner	5	1	p	0.9336000000000001
583.6924	0.0	+	60	verb	list	1	9	match	patiner	5	1	p	0.9336000000000001
584.0921999999999	0.2	patiner	60	verb	list	1	10	match	patiner	5	1	p	0.9336000000000001
584.2921	0.0	+	60	verb	list	1	11	match	patiner	5	1	p	0.9336000000000001
584.692	0.0	+	60	verb	list	1	12	match	patiner	5	1	p	0.9336000000000001
586.6911	0.0	PATINER	60	verb	list	1	13	match	patiner	5	1	p	0.9336000000000001
587.6773999999999	0.0	+	60	verb	list	1	14	match	patiner	5	1	p	0.9336000000000001
587.6247	0.0	[response]	60	verb	list	1	15	match	patiner	5	1	p	0.9336000000000001
589.0901	0.0	+	61	verb	phrase	1	1	match	tôt	5	1	p	0.85666
589.6499	0.2	fnw	61	verb	phrase	1	2	match	tôt	5	1	p	0.85666
589.8498	0.0	+	61	verb	phrase	1	3	match	tôt	5	1	p	0.85666
590.2495	0.2	trvp	61	verb	phrase	1	4	match	tôt	5	1	p	0.85666
590.4495	0.0	+	61	verb	phrase	1	5	match	tôt	5	1	p	0.85666
590.8493	0.2	kq	61	verb	phrase	1	6	match	tôt	5	1	p	0.85666
591.0491999999999	0.0	+	61	verb	phrase	1	7	match	tôt	5	1	p	0.85666
591.4490999999999	0.2	dprwlbn	61	verb	phrase	1	8	match	tôt	5	1	p	0.85666
591.649	0.0	+	61	verb	phrase	1	9	match	tôt	5	1	p	0.85666
592.0487999999999	0.2	tôt	61	verb	phrase	1	10	match	tôt	5	1	p	0.85666
592.2487	0.0	+	61	verb	phrase	1	11	match	tôt	5	1	p	0.85666
592.6486	0.0	+	61	verb	phrase	1	12	match	tôt	5	1	p	0.85666
594.6477	0.0	TÔT	61	verb	phrase	1	13	match	tôt	5	1	p	0.85666
595.554	0.0	+	61	verb	phrase	1	14	match	tôt	5	1	p	0.85666
595.5043999999999	0.0	[response]	61	verb	phrase	1	15	match	tôt	5	1	p	0.85666
597.0333999999999	0.0	+	62	noun	list	1	1	nomatch	cendrier	-1	1	y	0.94999
597.5930999999999	0.2	dsczx	62	noun	list	1	2	nomatch	cendrier	-1	1	y	0.94999
597.7931	0.0	+	62	noun	list	1	3	nomatch	cendrier	-1	1	y	0.94999
598.1927999999999	0.2	bdrm	62	noun	list	1	4	nomatch	cendrier	-1	1	y	0.94999
598.3928	0.0	+	62	noun	list	1	5	nomatch	cendrier	-1	1	y	0.94999
598.7926	0.2	vpc	62	noun	list	1	6	nomatch	cendrier	-1	1	y	0.94999
598.9925999999999	0.0	+	62	noun	list	1	7	nomatch	cendrier	-1	1	y	0.94999
599.3924	0.2	bgcm	62	noun	list	1	8	nomatch	cendrier	-1	1	y	0.94999
599.5921999999999	0.0	+	62	noun	list	1	9	nomatch	cendrier	-1	1	y	0.94999
599.9920999999999	0.2	voilier	62	noun	list	1	10	nomatch	cendrier	-1	1	y	0.94999
600.1921	0.0	+	62	noun	list	1	11	nomatch	cendrier	-1	1	y	0.94999
600.5919	0.0	+	62	noun	list	1	12	nomatch	cendrier	-1	1	y	0.94999
602.5911	0.0	CENDRIER	62	noun	list	1	13	nomatch	cendrier	-1	1	y	0.94999
603.5905	0.0	+	62	noun	list	1	14	nomatch	cendrier	-1	1	y	0.94999
603.541	0.0	[response]	62	noun	list	1	15	nomatch	cendrier	-1	1	y	0.94999
604.99	0.0	+	63	verb	phrase	1	1	match	ainsi	5	1	p	1.9135
605.5498	0.2	qhln	63	verb	phrase	1	2	match	ainsi	5	1	p	1.9135
605.7497	0.0	+	63	verb	phrase	1	3	match	ainsi	5	1	p	1.9135
606.1495	0.2	dnbc	63	verb	phrase	1	4	match	ainsi	5	1	p	1.9135
606.3494	0.0	+	63	verb	phrase	1	5	match	ainsi	5	1	p	1.9135
606.7493	0.2	szxj	63	verb	phrase	1	6	match	ainsi	5	1	p	1.9135
606.9492	0.0	+	63	verb	phrase	1	7	match	ainsi	5	1	p	1.9135
607.3489999999999	0.2	xstcfrw	63	verb	phrase	1	8	match	ainsi	5	1	p	1.9135
607.5489	0.0	+	63	verb	phrase	1	9	match	ainsi	5	1	p	1.9135
607.9488	0.2	ainsi	63	verb	phrase	1	10	match	ainsi	5	1	p	1.9135
608.1487	0.0	+	63	verb	phrase	1	11	match	ainsi	5	1	p	1.9135
608.5485	0.0	+	63	verb	phrase	1	12	match	ainsi	5	1	p	1.9135
610.5477	0.0	AINSI	63	verb	phrase	1	13	match	ainsi	5	1	p	1.9135
612.5068	0.0	+	63	verb	phrase	1	14	match	ainsi	5	1	p	1.9135
612.4612	0.0	[response]	63	verb	phrase	1	15	match	ainsi	5	1	p	1.9135
612.9332999999999	0.0	+	64	verb	phrase	2	1	nomatch	moins	-1	1	y	1.1388
613.4930999999999	0.2	zjd	64	verb	phrase	2	2	nomatch	moins	-1	1	y	1.1388
613.693	0.0	+	64	verb	phrase	2	3	nomatch	moins	-1	1	y	1.1388
614.0928	0.2	trvp	64	verb	phrase	2	4	nomatch	moins	-1	1	y	1.1388
614.2927	0.0	+	64	verb	phrase	2	5	nomatch	moins	-1	1	y	1.1388
614.6926	0.2	kq	64	verb	phrase	2	6	nomatch	moins	-1	1	y	1.1388
614.8924999999999	0.0	+	64	verb	phrase	2	7	nomatch	moins	-1	1	y	1.1388
615.2923	0.2	trop	64	verb	phrase	2	8	nomatch	moins	-1	1	y	1.1388
615.4921999999999	0.0	+	64	verb	phrase	2	9	nomatch	moins	-1	1	y	1.1388
615.8919999999999	0.2	patiner	64	verb	phrase	2	10	nomatch	moins	-1	1	y	1.1388
616.092	0.0	+	64	verb	phrase	2	11	nomatch	moins	-1	1	y	1.1388
616.4918	0.0	+	64	verb	phrase	2	12	nomatch	moins	-1	1	y	1.1388
618.491	0.0	MOINS	64	verb	phrase	2	13	nomatch	moins	-1	1	y	1.1388
619.6771	0.0	+	64	verb	phrase	2	14	nomatch	moins	-1	1	y	1.1388
619.6297	0.0	[response]	64	verb	phrase	2	15	nomatch	moins	-1	1	y	1.1388
620.89	0.0	+	65	noun	list	4	1	match	doit	3	1	p	1.1169
621.4495999999999	0.2	bghlqv	65	noun	list	4	2	match	doit	3	1	p	1.1169
621.6496	0.0	+	65	noun	list	4	3	match	doit	3	1	p	1.1169
622.0494	0.2	pour	65	noun	list	4	4	match	doit	3	1	p	1.1169
622.2493	0.0	+	65	noun	list	4	5	match	doit	3	1	p	1.1169
622.6492	0.2	doit	65	noun	list	4	6	match	doit	3	1	p	1.1169
622.8491	0.0	+	65	noun	list	4	7	match	doit	3	1	p	1.1169
623.2488999999999	0.2	rocher	65	noun	list	4	8	match	doit	3	1	p	1.1169
623.4488	0.0	+	65	noun	list	4	9	match	doit	3	1	p	1.1169
623.8485999999999	0.2	vite	65	noun	list	4	10	match	doit	3	1	p	1.1169
624.0486	0.0	+	65	noun	list	4	11	match	doit	3	1	p	1.1169
624.4484	0.0	+	65	noun	list	4	12	match	doit	3	1	p	1.1169
626.4476	0.0	DOIT	65	noun	list	4	13	match	doit	3	1	p	1.1169
627.607	0.0	+	65	noun	list	4	14	match	doit	3	1	p	1.1169
627.5644	0.0	[response]	65	noun	list	4	15	match	doit	3	1	p	1.1169
628.8331999999999	0.0	+	66	verb	phrase	2	1	match	rouler	5	1	p	1.3351
629.3929999999999	0.2	hdgtsz	66	verb	phrase	2	2	match	rouler	5	1	p	1.3351
629.5929	0.0	+	66	verb	phrase	2	3	match	rouler	5	1	p	1.3351
629.9927	0.2	srp	66	verb	phrase	2	4	match	rouler	5	1	p	1.3351
630.1926	0.0	+	66	verb	phrase	2	5	match	rouler	5	1	p	1.3351
630.5925	0.2	trzk	66	verb	phrase	2	6	match	rouler	5	1	p	1.3351
630.7923999999999	0.0	+	66	verb	phrase	2	7	match	rouler	5	1	p	1.3351
631.1922	0.2	trop	66	verb	phrase	2	8	match	rouler	5	1	p	1.3351
631.3920999999999	0.0	+	66	verb	phrase	2	9	match	rouler	5	1	p	1.3351
631.7919999999999	0.2	rouler	66	verb	phrase	2	10	match	rouler	5	1	p	1.3351
631.9918	0.0	+	66	verb	phrase	2	11	match	rouler	5	1	p	1.3351
632.3917	0.0	+	66	verb	phrase	2	12	match	rouler	5	1	p	1.3351
634.3908	0.0	ROULER	66	verb	phrase	2	13	match	rouler	5	1	p	1.3351
635.7767	0.0	+	66	verb	phrase	2	14	match	rouler	5	1	p	1.3351
635.7258999999999	0.0	[response]	66	verb	phrase	2	15	match	rouler	5	1	p	1.3351
644.7864999999999	0.0	+	67	verb	list	4	1	nomatch	tôt	-1	1	y	1.1526
645.3462	0.2	fsphct	67	verb	list	4	2	nomatch	tôt	-1	1	y	1.1526
645.5460999999999	0.0	+	67	verb	list	4	3	nomatch	tôt	-1	1	y	1.1526
645.9459999999999	0.2	sans	67	verb	list	4	4	nomatch	tôt	-1	1	y	1.1526
646.1459	0.0	+	67	verb	list	4	5	nomatch	tôt	-1	1	y	1.1526
646.5457	0.2	va	67	verb	list	4	6	nomatch	tôt	-1	1	y	1.1526
646.7455	0.0	+	67	verb	list	4	7	nomatch	tôt	-1	1	y	1.1526
647.1454	0.2	petit	67	verb	list	4	8	nomatch	tôt	-1	1	y	1.1526
647.3453999999999	0.0	+	67	verb	list	4	9	nomatch	tôt	-1	1	y	1.1526
647.7452	0.2	chasser	67	verb	list	4	10	nomatch	tôt	-1	1	y	1.1526
647.9450999999999	0.0	+	67	verb	list	4	11	nomatch	tôt	-1	1	y	1.1526
648.3448999999999	0.0	+	67	verb	list	4	12	nomatch	tôt	-1	1	y	1.1526
650.3440999999999	0.0	TÔT	67	verb	list	4	13	nomatch	tôt	-1	1	y	1.1526
651.5435	0.0	+	67	verb	list	4	14	nomatch	tôt	-1	1	y	1.1526
651.4966	0.0	[response]	67	verb	list	4	15	nomatch	tôt	-1	1	y	1.1526
652.7297	0.0	+	68	verb	list	1	1	match	nouveau	5	1	p	0.94789
653.2895	0.2	vxq	68	verb	list	1	2	match	nouveau	5	1	p	0.94789
653.4893999999999	0.0	+	68	verb	list	1	3	match	nouveau	5	1	p	0.94789
653.8892	0.2	bmnq	68	verb	list	1	4	match	nouveau	5	1	p	0.94789
654.0890999999999	0.0	+	68	verb	list	1	5	match	nouveau	5	1	p	0.94789
654.4889999999999	0.2	trzk	68	verb	list	1	6	match	nouveau	5	1	p	0.94789
654.6889	0.0	+	68	verb	list	1	7	match	nouveau	5	1	p	0.94789
655.0887	0.2	dprwlbn	68	verb	list	1	8	match	nouveau	5	1	p	0.94789
655.2886	0.0	+	68	verb	list	1	9	match	nouveau	5	1	p	0.94789
655.7017999999999	0.2	nouveau	68	verb	list	1	10	match	nouveau	5	1	p	0.94789
655.8883999999999	0.0	+	68	verb	list	1	11	match	nouveau	5	1	p	0.94789
656.3016	0.0	+	68	verb	list	1	12	match	nouveau	5	1	p	0.94789
658.3007	0.0	NOUVEAU	68	verb	list	1	13	match	nouveau	5	1	p	0.94789
659.3002	0.0	+	68	verb	list	1	14	match	nouveau	5	1	p	0.94789
659.2486	0.0	[response]	68	verb	list	1	15	match	nouveau	5	1	p	0.94789
660.6863999999999	0.0	+	69	verb	list	4	1	nomatch	vers	-1	1	y	1.1145
661.2461	0.2	sxvwgmr	69	verb	list	4	2	nomatch	vers	-1	1	y	1.1145
661.4459999999999	0.0	+	69	verb	list	4	3	nomatch	vers	-1	1	y	1.1145
661.8458999999999	0.2	sous	69	verb	list	4	4	nomatch	vers	-1	1	y	1.1145
662.0458	0.0	+	69	verb	list	4	5	nomatch	vers	-1	1	y	1.1145
662.4456	0.2	peut	69	verb	list	4	6	nomatch	vers	-1	1	y	1.1145
662.6455	0.0	+	69	verb	list	4	7	nomatch	vers	-1	1	y	1.1145
663.0454	0.2	grand	69	verb	list	4	8	nomatch	vers	-1	1	y	1.1145
663.2452999999999	0.0	+	69	verb	list	4	9	nomatch	vers	-1	1	y	1.1145
663.6451	0.2	galoper	69	verb	list	4	10	nomatch	vers	-1	1	y	1.1145
663.8449999999999	0.0	+	69	verb	list	4	11	nomatch	vers	-1	1	y	1.1145
664.2447999999999	0.0	+	69	verb	list	4	12	nomatch	vers	-1	1	y	1.1145
666.2439999999999	0.0	VERS	69	verb	list	4	13	nomatch	vers	-1	1	y	1.1145
667.4033999999999	0.0	+	69	verb	list	4	14	nomatch	vers	-1	1	y	1.1145
667.3585	0.0	[response]	69	verb	list	4	15	nomatch	vers	-1	1	y	1.1145
668.6297	0.0	+	70	verb	phrase	3	1	nomatch	paul	-1	1	y	1.5783
669.1894	0.2	cxmz	70	verb	phrase	3	2	nomatch	paul	-1	1	y	1.5783
669.3892999999999	0.0	+	70	verb	phrase	3	3	nomatch	paul	-1	1	y	1.5783
669.7891	0.2	srp	70	verb	phrase	3	4	nomatch	paul	-1	1	y	1.5783
669.9889999999999	0.0	+	70	verb	phrase	3	5	nomatch	paul	-1	1	y	1.5783
670.3888999999999	0.2	doit	70	verb	phrase	3	6	nomatch	paul	-1	1	y	1.5783
670.5888	0.0	+	70	verb	phrase	3	7	nomatch	paul	-1	1	y	1.5783
670.9886	0.2	jongler	70	verb	phrase	3	8	nomatch	paul	-1	1	y	1.5783
671.1885	0.0	+	70	verb	phrase	3	9	nomatch	paul	-1	1	y	1.5783
671.5884	0.2	tard	70	verb	phrase	3	10	nomatch	paul	-1	1	y	1.5783
671.8016	0.0	+	70	verb	phrase	3	11	nomatch	paul	-1	1	y	1.5783
672.2015	0.0	+	70	verb	phrase	3	12	nomatch	paul	-1	1	y	1.5783
674.2006	0.0	PAUL	70	verb	phrase	3	13	nomatch	paul	-1	1	y	1.5783
675.8265	0.0	+	70	verb	phrase	3	14	nomatch	paul	-1	1	y	1.5783
675.7789	0.0	[response]	70	verb	phrase	3	15	nomatch	paul	-1	1	y	1.5783
676.5862999999999	0.0	+	71	verb	list	4	1	match	rouler	4	1	p	1.3535
677.1460999999999	0.2	vkbd	71	verb	list	4	2	match	rouler	4	1	p	1.3535
677.346	0.0	+	71	verb	list	4	3	match	rouler	4	1	p	1.3535
677.7457999999999	0.2	marc	71	verb	list	4	4	match	rouler	4	1	p	1.3535
677.9457	0.0	+	71	verb	list	4	5	match	rouler	4	1	p	1.3535
678.3453999999999	0.2	mon	71	verb	list	4	6	match	rouler	4	1	p	1.3535
678.5454	0.0	+	71	verb	list	4	7	match	rouler	4	1	p	1.3535
678.9452	0.2	rouler	71	verb	list	4	8	match	rouler	4	1	p	1.3535
679.1451999999999	0.0	+	71	verb	list	4	9	match	rouler	4	1	p	1.3535
679.545	0.2	rouge	71	verb	list	4	10	match	rouler	4	1	p	1.3535
679.7448999999999	0.0	+	71	verb	list	4	11	match	rouler	4	1	p	1.3535
680.1447999999999	0.0	+	71	verb	list	4	12	match	rouler	4	1	p	1.3535
682.1438999999999	0.0	ROULER	71	verb	list	4	13	match	rouler	4	1	p	1.3535
683.5432999999999	0.0	+	71	verb	list	4	14	match	rouler	4	1	p	1.3535
683.4975000000001	0.0	[response]	71	verb	list	4	15	match	rouler	4	1	p	1.3535
684.5296	0.0	+	72	verb	list	4	1	match	vert	5	1	p	1.2582
685.0893	0.2	gfdlt	72	verb	list	4	2	match	vert	5	1	p	1.2582
685.2891999999999	0.0	+	72	verb	list	4	3	match	vert	5	1	p	1.2582
685.689	0.2	jade	72	verb	list	4	4	match	vert	5	1	p	1.2582
685.889	0.0	+	72	verb	list	4	5	match	vert	5	1	p	1.2582
686.2887	0.2	leur	72	verb	list	4	6	match	vert	5	1	p	1.2582
686.4887	0.0	+	72	verb	list	4	7	match	vert	5	1	p	1.2582
686.9019	0.2	chasser	72	verb	list	4	8	match	vert	5	1	p	1.2582
687.1017999999999	0.0	+	72	verb	list	4	9	match	vert	5	1	p	1.2582
687.5015999999999	0.2	vert	72	verb	list	4	10	match	vert	5	1	p	1.2582
687.7016	0.0	+	72	verb	list	4	11	match	vert	5	1	p	1.2582
688.1014	0.0	+	72	verb	list	4	12	match	vert	5	1	p	1.2582
690.1005	0.0	VERT	72	verb	list	4	13	match	vert	5	1	p	1.2582
691.4065999999999	0.0	+	72	verb	list	4	14	match	vert	5	1	p	1.2582
691.3587	0.0	[response]	72	verb	list	4	15	match	vert	5	1	p	1.2582
692.4861	0.0	+	73	verb	phrase	1	1	match	tard	5	1	p	1.0253
693.0459	0.2	qwmrncd	73	verb	phrase	1	2	match	tard	5	1	p	1.0253
693.2457999999999	0.0	+	73	verb	phrase	1	3	match	tard	5	1	p	1.0253
693.6456999999999	0.2	vhrw	73	verb	phrase	1	4	match	tard	5	1	p	1.0253
693.8456	0.0	+	73	verb	phrase	1	5	match	tard	5	1	p	1.0253
694.2454	0.2	szxj	73	verb	phrase	1	6	match	tard	5	1	p	1.0253
694.4453	0.0	+	73	verb	phrase	1	7	match	tard	5	1	p	1.0253
694.8452	0.2	wmbxd	73	verb	phrase	1	8	match	tard	5	1	p	1.0253
695.0450999999999	0.0	+	73	verb	phrase	1	9	match	tard	5	1	p	1.0253
695.4449	0.2	tard	73	verb	phrase	1	10	match	tard	5	1	p	1.0253
695.6447999999999	0.0	+	73	verb	phrase	1	11	match	tard	5	1	p	1.0253
696.0446999999999	0.0	+	73	verb	phrase	1	12	match	tard	5	1	p	1.0253
698.0437999999999	0.0	TARD	73	verb	phrase	1	13	match	tard	5	1	p	1.0253
699.1234	0.0	+	73	verb	phrase	1	14	match	tard	5	1	p	1.0253
699.0690999999999	0.0	[response]	73	verb	phrase	1	15	match	tard	5	1	p	1.0253
700.4295	0.0	+	74	verb	phrase	1	1	nomatch	patiner	-1	1	y	1.5487000000000002
700.9892	0.2	nxfvsg	74	verb	phrase	1	2	nomatch	patiner	-1	1	y	1.5487000000000002
701.1890999999999	0.0	+	74	verb	phrase	1	3	nomatch	patiner	-1	1	y	1.5487000000000002
701.5889	0.2	trvp	74	verb	phrase	1	4	nomatch	patiner	-1	1	y	1.5487000000000002
701.7887999999999	0.0	+	74	verb	phrase	1	5	nomatch	patiner	-1	1	y	1.5487000000000002
702.1886999999999	0.2	kq	74	verb	phrase	1	6	nomatch	patiner	-1	1	y	1.5487000000000002
702.3887	0.0	+	74	verb	phrase	1	7	nomatch	patiner	-1	1	y	1.5487000000000002
702.8018	0.2	svqkdtfc	74	verb	phrase	1	8	nomatch	patiner	-1	1	y	1.5487000000000002
703.0015999999999	0.0	+	74	verb	phrase	1	9	nomatch	patiner	-1	1	y	1.5487000000000002
703.4015999999999	0.2	nager	74	verb	phrase	1	10	nomatch	patiner	-1	1	y	1.5487000000000002
703.6015	0.0	+	74	verb	phrase	1	11	nomatch	patiner	-1	1	y	1.5487000000000002
704.0013	0.0	+	74	verb	phrase	1	12	nomatch	patiner	-1	1	y	1.5487000000000002
706.0004	0.0	PATINER	74	verb	phrase	1	13	nomatch	patiner	-1	1	y	1.5487000000000002
707.5998	0.0	+	74	verb	phrase	1	14	nomatch	patiner	-1	1	y	1.5487000000000002
707.5491999999999	0.0	[response]	74	verb	phrase	1	15	nomatch	patiner	-1	1	y	1.5487000000000002
708.3860999999999	0.0	+	75	verb	phrase	3	1	match	tôt	5	1	p	1.0438
708.9458999999999	0.2	mfbr	75	verb	phrase	3	2	match	tôt	5	1	p	1.0438
709.1458	0.0	+	75	verb	phrase	3	3	match	tôt	5	1	p	1.0438
709.5455999999999	0.2	lzdr	75	verb	phrase	3	4	match	tôt	5	1	p	1.0438
709.7455	0.0	+	75	verb	phrase	3	5	match	tôt	5	1	p	1.0438
710.1453	0.2	peut	75	verb	phrase	3	6	match	tôt	5	1	p	1.0438
710.3452	0.0	+	75	verb	phrase	3	7	match	tôt	5	1	p	1.0438
710.7451	0.2	galoper	75	verb	phrase	3	8	match	tôt	5	1	p	1.0438
710.9449999999999	0.0	+	75	verb	phrase	3	9	match	tôt	5	1	p	1.0438
711.3448	0.2	tôt	75	verb	phrase	3	10	match	tôt	5	1	p	1.0438
711.5448	0.0	+	75	verb	phrase	3	11	match	tôt	5	1	p	1.0438
711.9445999999999	0.0	+	75	verb	phrase	3	12	match	tôt	5	1	p	1.0438
713.9436999999999	0.0	TÔT	75	verb	phrase	3	13	match	tôt	5	1	p	1.0438
715.0366	0.0	+	75	verb	phrase	3	14	match	tôt	5	1	p	1.0438
714.9875	0.0	[response]	75	verb	phrase	3	15	match	tôt	5	1	p	1.0438
716.3294	0.0	+	76	verb	list	1	1	nomatch	vert	-1	1	y	1.0172
716.8892	0.2	ljbp	76	verb	list	1	2	nomatch	vert	-1	1	y	1.0172
717.0889999999999	0.0	+	76	verb	list	1	3	nomatch	vert	-1	1	y	1.0172
717.4889	0.2	mvsc	76	verb	list	1	4	nomatch	vert	-1	1	y	1.0172
717.6888	0.0	+	76	verb	list	1	5	nomatch	vert	-1	1	y	1.0172
718.0885999999999	0.2	kq	76	verb	list	1	6	nomatch	vert	-1	1	y	1.0172
718.2885	0.0	+	76	verb	list	1	7	nomatch	vert	-1	1	y	1.0172
718.7017	0.2	khtbf	76	verb	list	1	8	nomatch	vert	-1	1	y	1.0172
718.9015999999999	0.0	+	76	verb	list	1	9	nomatch	vert	-1	1	y	1.0172
719.3014	0.2	nager	76	verb	list	1	10	nomatch	vert	-1	1	y	1.0172
719.5014	0.0	+	76	verb	list	1	11	nomatch	vert	-1	1	y	1.0172
719.9010999999999	0.0	+	76	verb	list	1	12	nomatch	vert	-1	1	y	1.0172
721.9004	0.0	VERT	76	verb	list	1	13	nomatch	vert	-1	1	y	1.0172
722.9666	0.0	+	76	verb	list	1	14	nomatch	vert	-1	1	y	1.0172
722.9176	0.0	[response]	76	verb	list	1	15	nomatch	vert	-1	1	y	1.0172
724.2860999999999	0.0	+	77	verb	phrase	2	1	match	jongler	4	1	p	1.1119
724.8457	0.2	kxhc	77	verb	phrase	2	2	match	jongler	4	1	p	1.1119
725.0457	0.0	+	77	verb	phrase	2	3	match	jongler	4	1	p	1.1119
725.4454999999999	0.2	dnbc	77	verb	phrase	2	4	match	jongler	4	1	p	1.1119
725.6454	0.0	+	77	verb	phrase	2	5	match	jongler	4	1	p	1.1119
726.0453	0.2	szxj	77	verb	phrase	2	6	match	jongler	4	1	p	1.1119
726.2452	0.0	+	77	verb	phrase	2	7	match	jongler	4	1	p	1.1119
726.645	0.2	jongler	77	verb	phrase	2	8	match	jongler	4	1	p	1.1119
726.8448999999999	0.0	+	77	verb	phrase	2	9	match	jongler	4	1	p	1.1119
727.2447	0.2	ainsi	77	verb	phrase	2	10	match	jongler	4	1	p	1.1119
727.4447	0.0	+	77	verb	phrase	2	11	match	jongler	4	1	p	1.1119
727.8444999999999	0.0	+	77	verb	phrase	2	12	match	jongler	4	1	p	1.1119
729.8435999999999	0.0	JONGLER	77	verb	phrase	2	13	match	jongler	4	1	p	1.1119
731.0032	0.0	+	77	verb	phrase	2	14	match	jongler	4	1	p	1.1119
730.9554999999999	0.0	[response]	77	verb	phrase	2	15	match	jongler	4	1	p	1.1119
732.2293	0.0	+	78	verb	list	1	1	nomatch	vert	-1	1	y	1.1048
732.789	0.2	tln	78	verb	list	1	2	nomatch	vert	-1	1	y	1.1048
732.9889	0.0	+	78	verb	list	1	3	nomatch	vert	-1	1	y	1.1048
733.3888	0.2	vhrw	78	verb	list	1	4	nomatch	vert	-1	1	y	1.1048
733.5887	0.0	+	78	verb	list	1	5	nomatch	vert	-1	1	y	1.1048
734.0019	0.2	zqgk	78	verb	list	1	6	nomatch	vert	-1	1	y	1.1048
734.2017	0.0	+	78	verb	list	1	7	nomatch	vert	-1	1	y	1.1048
734.6016	0.2	wmbxd	78	verb	list	1	8	nomatch	vert	-1	1	y	1.1048
734.8014999999999	0.0	+	78	verb	list	1	9	nomatch	vert	-1	1	y	1.1048
735.2013999999999	0.2	blanc	78	verb	list	1	10	nomatch	vert	-1	1	y	1.1048
735.4013	0.0	+	78	verb	list	1	11	nomatch	vert	-1	1	y	1.1048
735.8011	0.0	+	78	verb	list	1	12	nomatch	vert	-1	1	y	1.1048
737.8003	0.0	VERT	78	verb	list	1	13	nomatch	vert	-1	1	y	1.1048
738.9596	0.0	+	78	verb	list	1	14	nomatch	vert	-1	1	y	1.1048
738.905	0.0	[response]	78	verb	list	1	15	nomatch	vert	-1	1	y	1.1048
748.1823999999999	0.0	+	79	verb	list	1	1	nomatch	tard	-1	1	y	1.0241
748.7423	0.2	kwdc	79	verb	list	1	2	nomatch	tard	-1	1	y	1.0241
748.9422	0.0	+	79	verb	list	1	3	nomatch	tard	-1	1	y	1.0241
749.342	0.2	trvp	79	verb	list	1	4	nomatch	tard	-1	1	y	1.0241
749.5419999999999	0.0	+	79	verb	list	1	5	nomatch	tard	-1	1	y	1.0241
749.9417	0.2	vpc	79	verb	list	1	6	nomatch	tard	-1	1	y	1.0241
750.1417	0.0	+	79	verb	list	1	7	nomatch	tard	-1	1	y	1.0241
750.5414999999999	0.2	mbntjc	79	verb	list	1	8	nomatch	tard	-1	1	y	1.0241
750.7414	0.0	+	79	verb	list	1	9	nomatch	tard	-1	1	y	1.0241
751.1411999999999	0.2	rouge	79	verb	list	1	10	nomatch	tard	-1	1	y	1.0241
751.3411	0.0	+	79	verb	list	1	11	nomatch	tard	-1	1	y	1.0241
751.741	0.0	+	79	verb	list	1	12	nomatch	tard	-1	1	y	1.0241
753.7402	0.0	TARD	79	verb	list	1	13	nomatch	tard	-1	1	y	1.0241
754.8197	0.0	+	79	verb	list	1	14	nomatch	tard	-1	1	y	1.0241
754.7642	0.0	[response]	79	verb	list	1	15	nomatch	tard	-1	1	y	1.0241
756.1391	0.0	+	80	verb	list	1	1	match	rouler	5	1	p	1.9097000000000002
756.6989	0.2	zfdphvr	80	verb	list	1	2	match	rouler	5	1	p	1.9097000000000002
756.8987999999999	0.0	+	80	verb	list	1	3	match	rouler	5	1	p	1.9097000000000002
757.2986	0.2	xhj	80	verb	list	1	4	match	rouler	5	1	p	1.9097000000000002
757.4986	0.0	+	80	verb	list	1	5	match	rouler	5	1	p	1.9097000000000002
757.8983999999999	0.2	kq	80	verb	list	1	6	match	rouler	5	1	p	1.9097000000000002
758.0983	0.0	+	80	verb	list	1	7	match	rouler	5	1	p	1.9097000000000002
758.4981	0.2	whkfvtc	80	verb	list	1	8	match	rouler	5	1	p	1.9097000000000002
758.6981	0.0	+	80	verb	list	1	9	match	rouler	5	1	p	1.9097000000000002
759.0979	0.2	rouler	80	verb	list	1	10	match	rouler	5	1	p	1.9097000000000002
759.2977999999999	0.0	+	80	verb	list	1	11	match	rouler	5	1	p	1.9097000000000002
759.6976	0.0	+	80	verb	list	1	12	match	rouler	5	1	p	1.9097000000000002
761.6966	0.0	ROULER	80	verb	list	1	13	match	rouler	5	1	p	1.9097000000000002
763.6558	0.0	+	80	verb	list	1	14	match	rouler	5	1	p	1.9097000000000002
764.0822999999999	0.0	+	80	verb	list	1	15	match	rouler	5	1	p	1.9097000000000002
764.9884999999999	0.0	+	80	verb	list	1	16	match	rouler	5	1	p	1.9097000000000002
765.082	0.0	+	80	verb	list	1	17	match	rouler	5	1	p	1.9097000000000002
766.4812	0.0	+	80	verb	list	1	18	match	rouler	5	1	p	1.9097000000000002
766.5747	0.0	+	80	verb	list	1	19	match	rouler	5	1	p	1.9097000000000002
767.9873	0.0	+	80	verb	list	1	20	match	rouler	5	1	p	1.9097000000000002
768.0807	0.0	+	80	verb	list	1	21	match	rouler	5	1	p	1.9097000000000002
769.4798999999999	0.0	+	80	verb	list	1	22	match	rouler	5	1	p	1.9097000000000002
769.5734	0.0	+	80	verb	list	1	23	match	rouler	5	1	p	1.9097000000000002
770.986	0.0	+	80	verb	list	1	24	match	rouler	5	1	p	1.9097000000000002
771.0794999999999	0.0	+	80	verb	list	1	25	match	rouler	5	1	p	1.9097000000000002
772.4787	0.0	+	80	verb	list	1	26	match	rouler	5	1	p	1.9097000000000002
772.5721	0.0	+	80	verb	list	1	27	match	rouler	5	1	p	1.9097000000000002
773.9847	0.0	+	80	verb	list	1	28	match	rouler	5	1	p	1.9097000000000002
774.0781	0.0	+	80	verb	list	1	29	match	rouler	5	1	p	1.9097000000000002
775.4907	0.0	+	80	verb	list	1	30	match	rouler	5	1	p	1.9097000000000002
775.5842	0.0	+	80	verb	list	1	31	match	rouler	5	1	p	1.9097000000000002
776.9834	0.0	+	80	verb	list	1	32	match	rouler	5	1	p	1.9097000000000002
777.0769	0.0	+	80	verb	list	1	33	match	rouler	5	1	p	1.9097000000000002
778.4893999999999	0.0	+	80	verb	list	1	34	match	rouler	5	1	p	1.9097000000000002
778.5829	0.0	+	80	verb	list	1	35	match	rouler	5	1	p	1.9097000000000002
781.6080999999999	0.0	+	80	verb	list	1	36	match	rouler	5	1	p	1.9097000000000002
763.6062999999999	0.0	[response]	80	verb	list	1	37	match	rouler	5	1	p	1.9097000000000002
