onset	duration	stim	trial_number	trial_type	trial_structure	trial_length	sequential_position	probe_type	probe	probe_position	response_correct	response_key	response_time
0.04350000000000165	0.0	+	1	noun	list	2	1	nomatch	cendrier	-1	1	y	1.1445
0.5499999999999972	0.2	drfj	1	noun	list	2	2	nomatch	cendrier	-1	1	y	1.1445
0.7499000000000038	0.0	+	1	noun	list	2	3	nomatch	cendrier	-1	1	y	1.1445
1.1497000000000028	0.2	hqkz	1	noun	list	2	4	nomatch	cendrier	-1	1	y	1.1445
1.3496000000000024	0.0	+	1	noun	list	2	5	nomatch	cendrier	-1	1	y	1.1445
1.7494999999999976	0.2	trzk	1	noun	list	2	6	nomatch	cendrier	-1	1	y	1.1445
1.949300000000001	0.0	+	1	noun	list	2	7	nomatch	cendrier	-1	1	y	1.1445
2.3492000000000033	0.2	panier	1	noun	list	2	8	nomatch	cendrier	-1	1	y	1.1445
2.549100000000003	0.0	+	1	noun	list	2	9	nomatch	cendrier	-1	1	y	1.1445
2.948999999999998	0.2	tôt	1	noun	list	2	10	nomatch	cendrier	-1	1	y	1.1445
3.1488999999999976	0.0	+	1	noun	list	2	11	nomatch	cendrier	-1	1	y	1.1445
3.5487000000000037	0.0	+	1	noun	list	2	12	nomatch	cendrier	-1	1	y	1.1445
5.5478999999999985	0.0	CENDRIER	1	noun	list	2	13	nomatch	cendrier	-1	1	y	1.1445
6.747300000000003	0.0	+	1	noun	list	2	14	nomatch	cendrier	-1	1	y	1.1445
6.692400000000006	0.0	[response]	1	noun	list	2	15	nomatch	cendrier	-1	1	y	1.1445
7.933500000000002	0.0	+	2	noun	list	1	1	nomatch	plus	-1	1	y	0.9704900000000001
8.493299999999998	0.2	kmswgjh	2	noun	list	1	2	nomatch	plus	-1	1	y	0.9704900000000001
8.693199999999997	0.0	+	2	noun	list	1	3	nomatch	plus	-1	1	y	0.9704900000000001
9.093000000000004	0.2	zrmn	2	noun	list	1	4	nomatch	plus	-1	1	y	0.9704900000000001
9.292900000000003	0.0	+	2	noun	list	1	5	nomatch	plus	-1	1	y	0.9704900000000001
9.692799999999998	0.2	qmj	2	noun	list	1	6	nomatch	plus	-1	1	y	0.9704900000000001
9.892699999999998	0.0	+	2	noun	list	1	7	nomatch	plus	-1	1	y	0.9704900000000001
10.292499999999997	0.2	hpmgczv	2	noun	list	1	8	nomatch	plus	-1	1	y	0.9704900000000001
10.492400000000004	0.0	+	2	noun	list	1	9	nomatch	plus	-1	1	y	0.9704900000000001
10.892299999999999	0.2	beaucoup	2	noun	list	1	10	nomatch	plus	-1	1	y	0.9704900000000001
11.092100000000002	0.0	+	2	noun	list	1	11	nomatch	plus	-1	1	y	0.9704900000000001
11.491999999999997	0.0	+	2	noun	list	1	12	nomatch	plus	-1	1	y	0.9704900000000001
13.491100000000003	0.0	PLUS	2	noun	list	1	13	nomatch	plus	-1	1	y	0.9704900000000001
14.504099999999994	0.0	+	2	noun	list	1	14	nomatch	plus	-1	1	y	0.9704900000000001
14.461600000000004	0.0	[response]	2	noun	list	1	15	nomatch	plus	-1	1	y	0.9704900000000001
15.890200000000007	0.0	+	3	noun	phrase	4	1	match	grenier	5	1	p	1.0606
16.4499	0.2	gkxw	3	noun	phrase	4	2	match	grenier	5	1	p	1.0606
16.6498	0.0	+	3	noun	phrase	4	3	match	grenier	5	1	p	1.0606
17.0497	0.2	vers	3	noun	phrase	4	4	match	grenier	5	1	p	1.0606
17.249499999999998	0.0	+	3	noun	phrase	4	5	match	grenier	5	1	p	1.0606
17.649299999999997	0.2	mon	3	noun	phrase	4	6	match	grenier	5	1	p	1.0606
17.8493	0.0	+	3	noun	phrase	4	7	match	grenier	5	1	p	1.0606
18.249200000000002	0.2	vieux	3	noun	phrase	4	8	match	grenier	5	1	p	1.0606
18.4491	0.0	+	3	noun	phrase	4	9	match	grenier	5	1	p	1.0606
18.849000000000004	0.2	grenier	3	noun	phrase	4	10	match	grenier	5	1	p	1.0606
19.048900000000003	0.0	+	3	noun	phrase	4	11	match	grenier	5	1	p	1.0606
19.448700000000002	0.0	+	3	noun	phrase	4	12	match	grenier	5	1	p	1.0606
21.4478	0.0	GRENIER	3	noun	phrase	4	13	match	grenier	5	1	p	1.0606
22.553799999999995	0.0	+	3	noun	phrase	4	14	match	grenier	5	1	p	1.0606
22.508399999999995	0.0	[response]	3	noun	phrase	4	15	match	grenier	5	1	p	1.0606
23.8335	0.0	+	4	noun	phrase	1	1	nomatch	vert	-1	1	y	1.1579
24.393200000000007	0.2	qcmdg	4	noun	phrase	1	2	nomatch	vert	-1	1	y	1.1579
24.593199999999996	0.0	+	4	noun	phrase	1	3	nomatch	vert	-1	1	y	1.1579
24.992900000000006	0.2	bmnq	4	noun	phrase	1	4	nomatch	vert	-1	1	y	1.1579
25.192899999999995	0.0	+	4	noun	phrase	1	5	nomatch	vert	-1	1	y	1.1579
25.592699999999994	0.2	qmj	4	noun	phrase	1	6	nomatch	vert	-1	1	y	1.1579
25.792699999999996	0.0	+	4	noun	phrase	1	7	nomatch	vert	-1	1	y	1.1579
26.192499999999995	0.2	hpmgczv	4	noun	phrase	1	8	nomatch	vert	-1	1	y	1.1579
26.392399999999995	0.0	+	4	noun	phrase	1	9	nomatch	vert	-1	1	y	1.1579
26.792199999999994	0.2	blanc	4	noun	phrase	1	10	nomatch	vert	-1	1	y	1.1579
26.992099999999994	0.0	+	4	noun	phrase	1	11	nomatch	vert	-1	1	y	1.1579
27.391900000000007	0.0	+	4	noun	phrase	1	12	nomatch	vert	-1	1	y	1.1579
29.391099999999994	0.0	VERT	4	noun	phrase	1	13	nomatch	vert	-1	1	y	1.1579
30.603800000000007	0.0	+	4	noun	phrase	1	14	nomatch	vert	-1	1	y	1.1579
30.549000000000007	0.0	[response]	4	noun	phrase	1	15	nomatch	vert	-1	1	y	1.1579
31.790099999999995	0.0	+	5	noun	phrase	3	1	nomatch	leur	-1	1	y	0.97297
32.349900000000005	0.2	xvfkpgw	5	noun	phrase	3	2	nomatch	leur	-1	1	y	0.97297
32.549800000000005	0.0	+	5	noun	phrase	3	3	nomatch	leur	-1	1	y	0.97297
32.949600000000004	0.2	mvsc	5	noun	phrase	3	4	nomatch	leur	-1	1	y	0.97297
33.1495	0.0	+	5	noun	phrase	3	5	nomatch	leur	-1	1	y	0.97297
33.5493	0.2	son	5	noun	phrase	3	6	nomatch	leur	-1	1	y	0.97297
33.7492	0.0	+	5	noun	phrase	3	7	nomatch	leur	-1	1	y	0.97297
34.149100000000004	0.2	tablier	5	noun	phrase	3	8	nomatch	leur	-1	1	y	0.97297
34.3489	0.0	+	5	noun	phrase	3	9	nomatch	leur	-1	1	y	0.97297
34.7488	0.2	bleu	5	noun	phrase	3	10	nomatch	leur	-1	1	y	0.97297
34.9487	0.0	+	5	noun	phrase	3	11	nomatch	leur	-1	1	y	0.97297
35.348600000000005	0.0	+	5	noun	phrase	3	12	nomatch	leur	-1	1	y	0.97297
37.3477	0.0	LEUR	5	noun	phrase	3	13	nomatch	leur	-1	1	y	0.97297
38.3738	0.0	+	5	noun	phrase	3	14	nomatch	leur	-1	1	y	0.97297
38.3207	0.0	[response]	5	noun	phrase	3	15	nomatch	leur	-1	1	y	0.97297
39.7334	0.0	+	6	verb	phrase	1	1	match	plonger	5	1	p	0.51153
40.2932	0.2	sfnkt	6	verb	phrase	1	2	match	plonger	5	1	p	0.51153
40.4931	0.0	+	6	verb	phrase	1	3	match	plonger	5	1	p	0.51153
40.8929	0.2	trvp	6	verb	phrase	1	4	match	plonger	5	1	p	0.51153
41.0928	0.0	+	6	verb	phrase	1	5	match	plonger	5	1	p	0.51153
41.492599999999996	0.2	szxj	6	verb	phrase	1	6	match	plonger	5	1	p	0.51153
41.6926	0.0	+	6	verb	phrase	1	7	match	plonger	5	1	p	0.51153
42.092299999999994	0.2	qjfl	6	verb	phrase	1	8	match	plonger	5	1	p	0.51153
42.2923	0.0	+	6	verb	phrase	1	9	match	plonger	5	1	p	0.51153
42.692099999999996	0.2	plonger	6	verb	phrase	1	10	match	plonger	5	1	p	0.51153
42.891999999999996	0.0	+	6	verb	phrase	1	11	match	plonger	5	1	p	0.51153
43.291799999999995	0.0	+	6	verb	phrase	1	12	match	plonger	5	1	p	0.51153
45.291	0.0	PLONGER	6	verb	phrase	1	13	match	plonger	5	1	p	0.51153
45.85080000000001	0.0	+	6	verb	phrase	1	14	match	plonger	5	1	p	0.51153
45.80250000000001	0.0	[response]	6	verb	phrase	1	15	match	plonger	5	1	p	0.51153
47.69	0.0	+	7	noun	list	1	1	nomatch	rouge	-1	1	y	0.93193
48.249700000000004	0.2	qcxnr	7	noun	list	1	2	nomatch	rouge	-1	1	y	0.93193
48.44970000000001	0.0	+	7	noun	list	1	3	nomatch	rouge	-1	1	y	0.93193
48.8494	0.2	zhdl	7	noun	list	1	4	nomatch	rouge	-1	1	y	0.93193
49.049400000000006	0.0	+	7	noun	list	1	5	nomatch	rouge	-1	1	y	0.93193
49.449200000000005	0.2	trzk	7	noun	list	1	6	nomatch	rouge	-1	1	y	0.93193
49.64919999999999	0.0	+	7	noun	list	1	7	nomatch	rouge	-1	1	y	0.93193
50.049099999999996	0.2	fls	7	noun	list	1	8	nomatch	rouge	-1	1	y	0.93193
50.248900000000006	0.0	+	7	noun	list	1	9	nomatch	rouge	-1	1	y	0.93193
50.648799999999994	0.2	rocher	7	noun	list	1	10	nomatch	rouge	-1	1	y	0.93193
50.848699999999994	0.0	+	7	noun	list	1	11	nomatch	rouge	-1	1	y	0.93193
51.24850000000001	0.0	+	7	noun	list	1	12	nomatch	rouge	-1	1	y	0.93193
53.247600000000006	0.0	ROUGE	7	noun	list	1	13	nomatch	rouge	-1	1	y	0.93193
54.2337	0.0	+	7	noun	list	1	14	nomatch	rouge	-1	1	y	0.93193
54.17959999999999	0.0	[response]	7	noun	list	1	15	nomatch	rouge	-1	1	y	0.93193
55.633300000000006	0.0	+	8	noun	list	4	1	nomatch	marc	-1	1	y	0.82986
56.193	0.2	prjg	8	noun	list	4	2	nomatch	marc	-1	1	y	0.82986
56.3929	0.0	+	8	noun	list	4	3	nomatch	marc	-1	1	y	0.82986
56.7928	0.2	paul	8	noun	list	4	4	nomatch	marc	-1	1	y	0.82986
56.9927	0.0	+	8	noun	list	4	5	nomatch	marc	-1	1	y	0.82986
57.3925	0.2	mon	8	noun	list	4	6	nomatch	marc	-1	1	y	0.82986
57.5925	0.0	+	8	noun	list	4	7	nomatch	marc	-1	1	y	0.82986
57.9923	0.2	trop	8	noun	list	4	8	nomatch	marc	-1	1	y	0.82986
58.1922	0.0	+	8	noun	list	4	9	nomatch	marc	-1	1	y	0.82986
58.592	0.2	clavier	8	noun	list	4	10	nomatch	marc	-1	1	y	0.82986
58.7919	0.0	+	8	noun	list	4	11	nomatch	marc	-1	1	y	0.82986
59.1918	0.0	+	8	noun	list	4	12	nomatch	marc	-1	1	y	0.82986
61.191	0.0	MARC	8	noun	list	4	13	nomatch	marc	-1	1	y	0.82986
62.07040000000001	0.0	+	8	noun	list	4	14	nomatch	marc	-1	1	y	0.82986
62.020799999999994	0.0	[response]	8	noun	list	4	15	nomatch	marc	-1	1	y	0.82986
63.5899	0.0	+	9	noun	list	2	1	match	ainsi	5	0	y	1.1173
64.1497	0.2	ctzbg	9	noun	list	2	2	match	ainsi	5	0	y	1.1173
64.3496	0.0	+	9	noun	list	2	3	match	ainsi	5	0	y	1.1173
64.7494	0.2	xndr	9	noun	list	2	4	match	ainsi	5	0	y	1.1173
64.9493	0.0	+	9	noun	list	2	5	match	ainsi	5	0	y	1.1173
65.3492	0.2	szxj	9	noun	list	2	6	match	ainsi	5	0	y	1.1173
65.5491	0.0	+	9	noun	list	2	7	match	ainsi	5	0	y	1.1173
65.9489	0.2	grenier	9	noun	list	2	8	match	ainsi	5	0	y	1.1173
66.1488	0.0	+	9	noun	list	2	9	match	ainsi	5	0	y	1.1173
66.5487	0.2	ainsi	9	noun	list	2	10	match	ainsi	5	0	y	1.1173
66.7486	0.0	+	9	noun	list	2	11	match	ainsi	5	0	y	1.1173
67.1484	0.0	+	9	noun	list	2	12	match	ainsi	5	0	y	1.1173
69.1475	0.0	AINSI	9	noun	list	2	13	match	ainsi	5	0	y	1.1173
70.307	0.0	+	9	noun	list	2	14	match	ainsi	5	0	y	1.1173
70.2648	0.0	[response]	9	noun	list	2	15	match	ainsi	5	0	y	1.1173
71.5333	0.0	+	10	verb	phrase	2	1	match	rouler	4	1	p	0.97554
72.093	0.2	zjdbwgk	10	verb	phrase	2	2	match	rouler	4	1	p	0.97554
72.2928	0.0	+	10	verb	phrase	2	3	match	rouler	4	1	p	0.97554
72.6927	0.2	srp	10	verb	phrase	2	4	match	rouler	4	1	p	0.97554
72.8926	0.0	+	10	verb	phrase	2	5	match	rouler	4	1	p	0.97554
73.2925	0.2	trzk	10	verb	phrase	2	6	match	rouler	4	1	p	0.97554
73.4924	0.0	+	10	verb	phrase	2	7	match	rouler	4	1	p	0.97554
73.892	0.2	rouler	10	verb	phrase	2	8	match	rouler	4	1	p	0.97554
74.0921	0.0	+	10	verb	phrase	2	9	match	rouler	4	1	p	0.97554
74.4919	0.2	tôt	10	verb	phrase	2	10	match	rouler	4	1	p	0.97554
74.6919	0.0	+	10	verb	phrase	2	11	match	rouler	4	1	p	0.97554
75.0917	0.0	+	10	verb	phrase	2	12	match	rouler	4	1	p	0.97554
77.0909	0.0	ROULER	10	verb	phrase	2	13	match	rouler	4	1	p	0.97554
78.1169	0.0	+	10	verb	phrase	2	14	match	rouler	4	1	p	0.97554
78.0664	0.0	[response]	10	verb	phrase	2	15	match	rouler	4	1	p	0.97554
79.48979999999999	0.0	+	11	noun	list	4	1	nomatch	blanc	-1	1	y	0.74417
80.04960000000001	0.2	qmbn	11	noun	list	4	2	nomatch	blanc	-1	1	y	0.74417
80.2495	0.0	+	11	noun	list	4	3	nomatch	blanc	-1	1	y	0.74417
80.6493	0.2	luc	11	noun	list	4	4	nomatch	blanc	-1	1	y	0.74417
80.84930000000001	0.0	+	11	noun	list	4	5	nomatch	blanc	-1	1	y	0.74417
81.24910000000001	0.2	mon	11	noun	list	4	6	nomatch	blanc	-1	1	y	0.74417
81.449	0.0	+	11	noun	list	4	7	nomatch	blanc	-1	1	y	0.74417
81.8488	0.2	plus	11	noun	list	4	8	nomatch	blanc	-1	1	y	0.74417
82.04870000000001	0.0	+	11	noun	list	4	9	nomatch	blanc	-1	1	y	0.74417
82.44860000000001	0.2	rocher	11	noun	list	4	10	nomatch	blanc	-1	1	y	0.74417
82.6485	0.0	+	11	noun	list	4	11	nomatch	blanc	-1	1	y	0.74417
83.0483	0.0	+	11	noun	list	4	12	nomatch	blanc	-1	1	y	0.74417
85.0475	0.0	BLANC	11	noun	list	4	13	nomatch	blanc	-1	1	y	0.74417
85.8472	0.0	+	11	noun	list	4	14	nomatch	blanc	-1	1	y	0.74417
85.7917	0.0	[response]	11	noun	list	4	15	nomatch	blanc	-1	1	y	0.74417
87.43310000000001	0.0	+	12	noun	list	1	1	match	grenier	5	1	p	0.5601
87.9929	0.2	mlknq	12	noun	list	1	2	match	grenier	5	1	p	0.5601
88.19279999999999	0.0	+	12	noun	list	1	3	match	grenier	5	1	p	0.5601
88.59259999999999	0.2	trvp	12	noun	list	1	4	match	grenier	5	1	p	0.5601
88.79260000000001	0.0	+	12	noun	list	1	5	match	grenier	5	1	p	0.5601
89.1924	0.2	zqgk	12	noun	list	1	6	match	grenier	5	1	p	0.5601
89.39229999999999	0.0	+	12	noun	list	1	7	match	grenier	5	1	p	0.5601
89.79209999999999	0.2	svqkdtfc	12	noun	list	1	8	match	grenier	5	1	p	0.5601
89.992	0.0	+	12	noun	list	1	9	match	grenier	5	1	p	0.5601
90.3919	0.2	grenier	12	noun	list	1	10	match	grenier	5	1	p	0.5601
90.59169999999999	0.0	+	12	noun	list	1	11	match	grenier	5	1	p	0.5601
90.99159999999999	0.0	+	12	noun	list	1	12	match	grenier	5	1	p	0.5601
92.9908	0.0	GRENIER	12	noun	list	1	13	match	grenier	5	1	p	0.5601
93.60379999999999	0.0	+	12	noun	list	1	14	match	grenier	5	1	p	0.5601
93.5509	0.0	[response]	12	noun	list	1	15	match	grenier	5	1	p	0.5601
95.3898	0.0	+	13	verb	phrase	1	1	nomatch	nager	-1	1	y	0.79146
95.94940000000001	0.2	mgc	13	verb	phrase	1	2	nomatch	nager	-1	1	y	0.79146
96.1494	0.0	+	13	verb	phrase	1	3	nomatch	nager	-1	1	y	0.79146
96.5493	0.2	zrmn	13	verb	phrase	1	4	nomatch	nager	-1	1	y	0.79146
96.74919999999999	0.0	+	13	verb	phrase	1	5	nomatch	nager	-1	1	y	0.79146
97.14899999999999	0.2	szxj	13	verb	phrase	1	6	nomatch	nager	-1	1	y	0.79146
97.3489	0.0	+	13	verb	phrase	1	7	nomatch	nager	-1	1	y	0.79146
97.7488	0.2	htjrv	13	verb	phrase	1	8	nomatch	nager	-1	1	y	0.79146
97.94869999999999	0.0	+	13	verb	phrase	1	9	nomatch	nager	-1	1	y	0.79146
98.34849999999999	0.2	chasser	13	verb	phrase	1	10	nomatch	nager	-1	1	y	0.79146
98.5484	0.0	+	13	verb	phrase	1	11	nomatch	nager	-1	1	y	0.79146
98.9482	0.0	+	13	verb	phrase	1	12	nomatch	nager	-1	1	y	0.79146
100.9473	0.0	NAGER	13	verb	phrase	1	13	nomatch	nager	-1	1	y	0.79146
101.78689999999999	0.0	+	13	verb	phrase	1	14	nomatch	nager	-1	1	y	0.79146
101.73880000000001	0.0	[response]	13	verb	phrase	1	15	nomatch	nager	-1	1	y	0.79146
111.32969999999999	0.0	+	14	noun	phrase	3	1	match	nouveau	4	1	p	1.0662
111.88940000000001	0.2	wjnc	14	noun	phrase	3	2	match	nouveau	4	1	p	1.0662
112.0893	0.0	+	14	noun	phrase	3	3	match	nouveau	4	1	p	1.0662
112.4891	0.2	bmnq	14	noun	phrase	3	4	match	nouveau	4	1	p	1.0662
112.68910000000001	0.0	+	14	noun	phrase	3	5	match	nouveau	4	1	p	1.0662
113.08890000000001	0.2	mon	14	noun	phrase	3	6	match	nouveau	4	1	p	1.0662
113.2888	0.0	+	14	noun	phrase	3	7	match	nouveau	4	1	p	1.0662
113.6887	0.2	nouveau	14	noun	phrase	3	8	match	nouveau	4	1	p	1.0662
113.9019	0.0	+	14	noun	phrase	3	9	match	nouveau	4	1	p	1.0662
114.3017	0.2	cendrier	14	noun	phrase	3	10	match	nouveau	4	1	p	1.0662
114.50160000000001	0.0	+	14	noun	phrase	3	11	match	nouveau	4	1	p	1.0662
114.90140000000001	0.0	+	14	noun	phrase	3	12	match	nouveau	4	1	p	1.0662
116.90060000000001	0.0	NOUVEAU	14	noun	phrase	3	13	match	nouveau	4	1	p	1.0662
118.0201	0.0	+	14	noun	phrase	3	14	match	nouveau	4	1	p	1.0662
117.96679999999999	0.0	[response]	14	noun	phrase	3	15	match	nouveau	4	1	p	1.0662
119.2863	0.0	+	15	noun	phrase	3	1	nomatch	beau	-1	1	y	1.026
119.84599999999999	0.2	mlwtgvs	15	noun	phrase	3	2	nomatch	beau	-1	1	y	1.026
120.0459	0.0	+	15	noun	phrase	3	3	nomatch	beau	-1	1	y	1.026
120.4458	0.2	xhj	15	noun	phrase	3	4	nomatch	beau	-1	1	y	1.026
120.64569999999999	0.0	+	15	noun	phrase	3	5	nomatch	beau	-1	1	y	1.026
121.04549999999999	0.2	son	15	noun	phrase	3	6	nomatch	beau	-1	1	y	1.026
121.2454	0.0	+	15	noun	phrase	3	7	nomatch	beau	-1	1	y	1.026
121.6453	0.2	vieux	15	noun	phrase	3	8	nomatch	beau	-1	1	y	1.026
121.84519999999999	0.0	+	15	noun	phrase	3	9	nomatch	beau	-1	1	y	1.026
122.24499999999999	0.2	panier	15	noun	phrase	3	10	nomatch	beau	-1	1	y	1.026
122.4449	0.0	+	15	noun	phrase	3	11	nomatch	beau	-1	1	y	1.026
122.8447	0.0	+	15	noun	phrase	3	12	nomatch	beau	-1	1	y	1.026
124.8439	0.0	BEAU	15	noun	phrase	3	13	nomatch	beau	-1	1	y	1.026
125.9234	0.0	+	15	noun	phrase	3	14	nomatch	beau	-1	1	y	1.026
125.86980000000001	0.0	[response]	15	noun	phrase	3	15	nomatch	beau	-1	1	y	1.026
135.23950000000002	0.0	+	16	verb	list	2	1	match	blanc	5	1	p	0.8641600000000002
135.79919999999998	0.2	bcjg	16	verb	list	2	2	match	blanc	5	1	p	0.8641600000000002
135.9991	0.0	+	16	verb	list	2	3	match	blanc	5	1	p	0.8641600000000002
136.399	0.2	lzdr	16	verb	list	2	4	match	blanc	5	1	p	0.8641600000000002
136.59890000000001	0.0	+	16	verb	list	2	5	match	blanc	5	1	p	0.8641600000000002
136.99869999999999	0.2	zqgk	16	verb	list	2	6	match	blanc	5	1	p	0.8641600000000002
137.1986	0.0	+	16	verb	list	2	7	match	blanc	5	1	p	0.8641600000000002
137.59840000000003	0.2	rouler	16	verb	list	2	8	match	blanc	5	1	p	0.8641600000000002
137.79840000000002	0.0	+	16	verb	list	2	9	match	blanc	5	1	p	0.8641600000000002
138.19819999999999	0.2	blanc	16	verb	list	2	10	match	blanc	5	1	p	0.8641600000000002
138.3981	0.0	+	16	verb	list	2	11	match	blanc	5	1	p	0.8641600000000002
138.79790000000003	0.0	+	16	verb	list	2	12	match	blanc	5	1	p	0.8641600000000002
140.7971	0.0	BLANC	16	verb	list	2	13	match	blanc	5	1	p	0.8641600000000002
141.7034	0.0	+	16	verb	list	2	14	match	blanc	5	1	p	0.8641600000000002
141.6612	0.0	[response]	16	verb	list	2	15	match	blanc	5	1	p	0.8641600000000002
143.1828	0.0	+	17	verb	list	3	1	nomatch	vieux	-1	1	y	0.8573
143.7425	0.2	wtqcdp	17	verb	list	3	2	nomatch	vieux	-1	1	y	0.8573
143.94240000000002	0.0	+	17	verb	list	3	3	nomatch	vieux	-1	1	y	0.8573
144.3422	0.2	glcf	17	verb	list	3	4	nomatch	vieux	-1	1	y	0.8573
144.54219999999998	0.0	+	17	verb	list	3	5	nomatch	vieux	-1	1	y	0.8573
144.942	0.2	va	17	verb	list	3	6	nomatch	vieux	-1	1	y	0.8573
145.14190000000002	0.0	+	17	verb	list	3	7	nomatch	vieux	-1	1	y	0.8573
145.5417	0.2	grand	17	verb	list	3	8	nomatch	vieux	-1	1	y	0.8573
145.7416	0.0	+	17	verb	list	3	9	nomatch	vieux	-1	1	y	0.8573
146.1415	0.2	patiner	17	verb	list	3	10	nomatch	vieux	-1	1	y	0.8573
146.34140000000002	0.0	+	17	verb	list	3	11	nomatch	vieux	-1	1	y	0.8573
146.7412	0.0	+	17	verb	list	3	12	nomatch	vieux	-1	1	y	0.8573
148.74040000000002	0.0	VIEUX	17	verb	list	3	13	nomatch	vieux	-1	1	y	0.8573
149.64659999999998	0.0	+	17	verb	list	3	14	nomatch	vieux	-1	1	y	0.8573
149.59769999999997	0.0	[response]	17	verb	list	3	15	nomatch	vieux	-1	1	y	0.8573
159.13600000000002	0.0	+	18	noun	list	3	1	nomatch	peut	-1	1	y	1.5193000000000003
159.6957	0.2	bjs	18	noun	list	3	2	nomatch	peut	-1	1	y	1.5193000000000003
159.8956	0.0	+	18	noun	list	3	3	nomatch	peut	-1	1	y	1.5193000000000003
160.2955	0.2	lzdr	18	noun	list	3	4	nomatch	peut	-1	1	y	1.5193000000000003
160.49540000000002	0.0	+	18	noun	list	3	5	nomatch	peut	-1	1	y	1.5193000000000003
160.8952	0.2	mon	18	noun	list	3	6	nomatch	peut	-1	1	y	1.5193000000000003
161.0951	0.0	+	18	noun	list	3	7	nomatch	peut	-1	1	y	1.5193000000000003
161.495	0.2	mieux	18	noun	list	3	8	nomatch	peut	-1	1	y	1.5193000000000003
161.69490000000002	0.0	+	18	noun	list	3	9	nomatch	peut	-1	1	y	1.5193000000000003
162.0947	0.2	clavier	18	noun	list	3	10	nomatch	peut	-1	1	y	1.5193000000000003
162.2946	0.0	+	18	noun	list	3	11	nomatch	peut	-1	1	y	1.5193000000000003
162.69439999999997	0.0	+	18	noun	list	3	12	nomatch	peut	-1	1	y	1.5193000000000003
164.6936	0.0	PEUT	18	noun	list	3	13	nomatch	peut	-1	1	y	1.5193000000000003
166.26620000000003	0.0	+	18	noun	list	3	14	nomatch	peut	-1	1	y	1.5193000000000003
166.2129	0.0	[response]	18	noun	list	3	15	nomatch	peut	-1	1	y	1.5193000000000003
167.0793	0.0	+	19	noun	list	1	1	match	cendrier	5	1	p	0.5791
167.639	0.2	jqtl	19	noun	list	1	2	match	cendrier	5	1	p	0.5791
167.83890000000002	0.0	+	19	noun	list	1	3	match	cendrier	5	1	p	0.5791
168.23880000000003	0.2	hqkz	19	noun	list	1	4	match	cendrier	5	1	p	0.5791
168.43869999999998	0.0	+	19	noun	list	1	5	match	cendrier	5	1	p	0.5791
168.85180000000003	0.2	szxj	19	noun	list	1	6	match	cendrier	5	1	p	0.5791
169.05169999999998	0.0	+	19	noun	list	1	7	match	cendrier	5	1	p	0.5791
169.45159999999998	0.2	drwvk	19	noun	list	1	8	match	cendrier	5	1	p	0.5791
169.6515	0.0	+	19	noun	list	1	9	match	cendrier	5	1	p	0.5791
170.05130000000003	0.2	cendrier	19	noun	list	1	10	match	cendrier	5	1	p	0.5791
170.25119999999998	0.0	+	19	noun	list	1	11	match	cendrier	5	1	p	0.5791
170.651	0.0	+	19	noun	list	1	12	match	cendrier	5	1	p	0.5791
172.65019999999998	0.0	CENDRIER	19	noun	list	1	13	match	cendrier	5	1	p	0.5791
173.2765	0.0	+	19	noun	list	1	14	match	cendrier	5	1	p	0.5791
173.22930000000002	0.0	[response]	19	noun	list	1	15	match	cendrier	5	1	p	0.5791
175.03590000000003	0.0	+	20	noun	phrase	2	1	nomatch	trop	-1	1	y	1.0862
175.5956	0.2	kxr	20	noun	phrase	2	2	nomatch	trop	-1	1	y	1.0862
175.7955	0.0	+	20	noun	phrase	2	3	nomatch	trop	-1	1	y	1.0862
176.1954	0.2	zhdl	20	noun	phrase	2	4	nomatch	trop	-1	1	y	1.0862
176.39530000000002	0.0	+	20	noun	phrase	2	5	nomatch	trop	-1	1	y	1.0862
176.7951	0.2	vpc	20	noun	phrase	2	6	nomatch	trop	-1	1	y	1.0862
176.99509999999998	0.0	+	20	noun	phrase	2	7	nomatch	trop	-1	1	y	1.0862
177.3949	0.2	rocher	20	noun	phrase	2	8	nomatch	trop	-1	1	y	1.0862
177.59480000000002	0.0	+	20	noun	phrase	2	9	nomatch	trop	-1	1	y	1.0862
177.9946	0.2	blanc	20	noun	phrase	2	10	nomatch	trop	-1	1	y	1.0862
178.1945	0.0	+	20	noun	phrase	2	11	nomatch	trop	-1	1	y	1.0862
178.59429999999998	0.0	+	20	noun	phrase	2	12	nomatch	trop	-1	1	y	1.0862
180.5935	0.0	TROP	20	noun	phrase	2	13	nomatch	trop	-1	1	y	1.0862
181.7262	0.0	+	20	noun	phrase	2	14	nomatch	trop	-1	1	y	1.0862
181.67970000000003	0.0	[response]	20	noun	phrase	2	15	nomatch	trop	-1	1	y	1.0862
182.9792	0.0	+	21	noun	list	1	1	nomatch	loin	-1	1	y	1.0749
183.5389	0.2	qxjfh	21	noun	list	1	2	nomatch	loin	-1	1	y	1.0749
183.73880000000003	0.0	+	21	noun	list	1	3	nomatch	loin	-1	1	y	1.0749
184.1386	0.2	bdrm	21	noun	list	1	4	nomatch	loin	-1	1	y	1.0749
184.3519	0.0	+	21	noun	list	1	5	nomatch	loin	-1	1	y	1.0749
184.75170000000003	0.2	zqgk	21	noun	list	1	6	nomatch	loin	-1	1	y	1.0749
184.95159999999998	0.0	+	21	noun	list	1	7	nomatch	loin	-1	1	y	1.0749
185.3515	0.2	kqjhmw	21	noun	list	1	8	nomatch	loin	-1	1	y	1.0749
185.5514	0.0	+	21	noun	list	1	9	nomatch	loin	-1	1	y	1.0749
185.95120000000003	0.2	moins	21	noun	list	1	10	nomatch	loin	-1	1	y	1.0749
186.15109999999999	0.0	+	21	noun	list	1	11	nomatch	loin	-1	1	y	1.0749
186.551	0.0	+	21	noun	list	1	12	nomatch	loin	-1	1	y	1.0749
188.5501	0.0	LOIN	21	noun	list	1	13	nomatch	loin	-1	1	y	1.0749
189.6696	0.0	+	21	noun	list	1	14	nomatch	loin	-1	1	y	1.0749
189.62509999999997	0.0	[response]	21	noun	list	1	15	nomatch	loin	-1	1	y	1.0749
190.93579999999997	0.0	+	22	verb	list	1	1	match	nager	5	1	p	1.0645
191.4955	0.2	wkmrxgv	22	verb	list	1	2	match	nager	5	1	p	1.0645
191.69549999999998	0.0	+	22	verb	list	1	3	match	nager	5	1	p	1.0645
192.0953	0.2	dnbc	22	verb	list	1	4	match	nager	5	1	p	1.0645
192.29520000000002	0.0	+	22	verb	list	1	5	match	nager	5	1	p	1.0645
192.695	0.2	vpc	22	verb	list	1	6	match	nager	5	1	p	1.0645
192.8949	0.0	+	22	verb	list	1	7	match	nager	5	1	p	1.0645
193.2948	0.2	gdpbv	22	verb	list	1	8	match	nager	5	1	p	1.0645
193.49470000000002	0.0	+	22	verb	list	1	9	match	nager	5	1	p	1.0645
193.8943	0.2	nager	22	verb	list	1	10	match	nager	5	1	p	1.0645
194.0944	0.0	+	22	verb	list	1	11	match	nager	5	1	p	1.0645
194.4943	0.0	+	22	verb	list	1	12	match	nager	5	1	p	1.0645
196.4934	0.0	NAGER	22	verb	list	1	13	match	nager	5	1	p	1.0645
197.613	0.0	+	22	verb	list	1	14	match	nager	5	1	p	1.0645
197.558	0.0	[response]	22	verb	list	1	15	match	nager	5	1	p	1.0645
206.889	0.0	+	23	noun	list	4	1	nomatch	trop	-1	1	y	1.1098
207.4488	0.2	vrsx	23	noun	list	4	2	nomatch	trop	-1	1	y	1.1098
207.64870000000002	0.0	+	23	noun	list	4	3	nomatch	trop	-1	1	y	1.1098
208.0485	0.2	jean	23	noun	list	4	4	nomatch	trop	-1	1	y	1.1098
208.24850000000004	0.0	+	23	noun	list	4	5	nomatch	trop	-1	1	y	1.1098
208.6483	0.2	son	23	noun	list	4	6	nomatch	trop	-1	1	y	1.1098
208.84820000000002	0.0	+	23	noun	list	4	7	nomatch	trop	-1	1	y	1.1098
209.248	0.2	beaucoup	23	noun	list	4	8	nomatch	trop	-1	1	y	1.1098
209.4479	0.0	+	23	noun	list	4	9	nomatch	trop	-1	1	y	1.1098
209.8478	0.2	cendrier	23	noun	list	4	10	nomatch	trop	-1	1	y	1.1098
210.04770000000002	0.0	+	23	noun	list	4	11	nomatch	trop	-1	1	y	1.1098
210.4475	0.0	+	23	noun	list	4	12	nomatch	trop	-1	1	y	1.1098
212.4466	0.0	TROP	23	noun	list	4	13	nomatch	trop	-1	1	y	1.1098
213.60610000000003	0.0	+	23	noun	list	4	14	nomatch	trop	-1	1	y	1.1098
213.5564	0.0	[response]	23	noun	list	4	15	nomatch	trop	-1	1	y	1.1098
230.8388	0.0	+	24	verb	list	1	1	nomatch	plonger	-1	1	y	0.90412
231.3986	0.2	tvdp	24	verb	list	1	2	nomatch	plonger	-1	1	y	0.90412
231.5985	0.0	+	24	verb	list	1	3	nomatch	plonger	-1	1	y	0.90412
231.9984	0.2	vhrw	24	verb	list	1	4	nomatch	plonger	-1	1	y	0.90412
232.19820000000004	0.0	+	24	verb	list	1	5	nomatch	plonger	-1	1	y	0.90412
232.5981	0.2	vpc	24	verb	list	1	6	nomatch	plonger	-1	1	y	0.90412
232.798	0.0	+	24	verb	list	1	7	nomatch	plonger	-1	1	y	0.90412
233.19780000000003	0.2	lfsz	24	verb	list	1	8	nomatch	plonger	-1	1	y	0.90412
233.39780000000002	0.0	+	24	verb	list	1	9	nomatch	plonger	-1	1	y	0.90412
233.7976	0.2	chasser	24	verb	list	1	10	nomatch	plonger	-1	1	y	0.90412
233.9975	0.0	+	24	verb	list	1	11	nomatch	plonger	-1	1	y	0.90412
234.39730000000003	0.0	+	24	verb	list	1	12	nomatch	plonger	-1	1	y	0.90412
236.3965	0.0	PLONGER	24	verb	list	1	13	nomatch	plonger	-1	1	y	0.90412
237.3426	0.0	+	24	verb	list	1	14	nomatch	plonger	-1	1	y	0.90412
237.30060000000003	0.0	[response]	24	verb	list	1	15	nomatch	plonger	-1	1	y	0.90412
238.7822	0.0	+	25	noun	list	2	1	match	voilier	4	1	p	1.2544
239.3419	0.2	ptnrkc	25	noun	list	2	2	match	voilier	4	1	p	1.2544
239.54180000000002	0.0	+	25	noun	list	2	3	match	voilier	4	1	p	1.2544
239.94150000000002	0.2	glcf	25	noun	list	2	4	match	voilier	4	1	p	1.2544
240.1415	0.0	+	25	noun	list	2	5	match	voilier	4	1	p	1.2544
240.5414	0.2	kq	25	noun	list	2	6	match	voilier	4	1	p	1.2544
240.74130000000002	0.0	+	25	noun	list	2	7	match	voilier	4	1	p	1.2544
241.1411	0.2	voilier	25	noun	list	2	8	match	voilier	4	1	p	1.2544
241.341	0.0	+	25	noun	list	2	9	match	voilier	4	1	p	1.2544
241.7409	0.2	vite	25	noun	list	2	10	match	voilier	4	1	p	1.2544
241.94080000000002	0.0	+	25	noun	list	2	11	match	voilier	4	1	p	1.2544
242.3406	0.0	+	25	noun	list	2	12	match	voilier	4	1	p	1.2544
244.33980000000003	0.0	VOILIER	25	noun	list	2	13	match	voilier	4	1	p	1.2544
245.64590000000004	0.0	+	25	noun	list	2	14	match	voilier	4	1	p	1.2544
245.59420000000006	0.0	[response]	25	noun	list	2	15	match	voilier	4	1	p	1.2544
246.7387	0.0	+	26	verb	phrase	4	1	match	tard	5	0	y	3.9996
247.2985	0.2	vlfs	26	verb	phrase	4	2	match	tard	5	0	y	3.9996
247.4984	0.0	+	26	verb	phrase	4	3	match	tard	5	0	y	3.9996
247.8983	0.2	jade	26	verb	phrase	4	4	match	tard	5	0	y	3.9996
248.0981	0.0	+	26	verb	phrase	4	5	match	tard	5	0	y	3.9996
248.498	0.2	peut	26	verb	phrase	4	6	match	tard	5	0	y	3.9996
248.6979	0.0	+	26	verb	phrase	4	7	match	tard	5	0	y	3.9996
249.0978	0.2	nager	26	verb	phrase	4	8	match	tard	5	0	y	3.9996
249.2976	0.0	+	26	verb	phrase	4	9	match	tard	5	0	y	3.9996
249.6975	0.2	tard	26	verb	phrase	4	10	match	tard	5	0	y	3.9996
249.8974	0.0	+	26	verb	phrase	4	11	match	tard	5	0	y	3.9996
250.29720000000003	0.0	+	26	verb	phrase	4	12	match	tard	5	0	y	3.9996
252.29630000000003	0.0	TARD	26	verb	phrase	4	13	match	tard	5	0	y	3.9996
256.348	0.0	+	26	verb	phrase	4	14	match	tard	5	0	y	3.9996
256.2959	0.0	[response]	26	verb	phrase	4	15	match	tard	5	0	y	3.9996
262.6786	0.0	+	27	verb	list	1	1	match	jongler	5	1	p	0.86458
263.23830000000004	0.2	jgszvpt	27	verb	list	1	2	match	jongler	5	1	p	0.86458
263.4517	0.0	+	27	verb	list	1	3	match	jongler	5	1	p	0.86458
263.8514	0.2	bmnq	27	verb	list	1	4	match	jongler	5	1	p	0.86458
264.0514	0.0	+	27	verb	list	1	5	match	jongler	5	1	p	0.86458
264.45120000000003	0.2	szxj	27	verb	list	1	6	match	jongler	5	1	p	0.86458
264.65110000000004	0.0	+	27	verb	list	1	7	match	jongler	5	1	p	0.86458
265.0509	0.2	khtbf	27	verb	list	1	8	match	jongler	5	1	p	0.86458
265.2509	0.0	+	27	verb	list	1	9	match	jongler	5	1	p	0.86458
265.6506	0.2	jongler	27	verb	list	1	10	match	jongler	5	1	p	0.86458
265.85060000000004	0.0	+	27	verb	list	1	11	match	jongler	5	1	p	0.86458
266.2504	0.0	+	27	verb	list	1	12	match	jongler	5	1	p	0.86458
268.2496	0.0	JONGLER	27	verb	list	1	13	match	jongler	5	1	p	0.86458
269.16900000000004	0.0	+	27	verb	list	1	14	match	jongler	5	1	p	0.86458
269.11420000000004	0.0	[response]	27	verb	list	1	15	match	jongler	5	1	p	0.86458
270.6352	0.0	+	28	noun	phrase	4	1	nomatch	plus	-1	1	y	0.81337
271.195	0.2	bjpfmqc	28	noun	phrase	4	2	nomatch	plus	-1	1	y	0.81337
271.3949	0.0	+	28	noun	phrase	4	3	nomatch	plus	-1	1	y	0.81337
271.79470000000003	0.2	vers	28	noun	phrase	4	4	nomatch	plus	-1	1	y	0.81337
271.9946	0.0	+	28	noun	phrase	4	5	nomatch	plus	-1	1	y	0.81337
272.3945	0.2	leur	28	noun	phrase	4	6	nomatch	plus	-1	1	y	0.81337
272.5944	0.0	+	28	noun	phrase	4	7	nomatch	plus	-1	1	y	0.81337
272.9943	0.2	casier	28	noun	phrase	4	8	nomatch	plus	-1	1	y	0.81337
273.1941	0.0	+	28	noun	phrase	4	9	nomatch	plus	-1	1	y	0.81337
273.594	0.2	bleu	28	noun	phrase	4	10	nomatch	plus	-1	1	y	0.81337
273.7939	0.0	+	28	noun	phrase	4	11	nomatch	plus	-1	1	y	0.81337
274.19370000000004	0.0	+	28	noun	phrase	4	12	nomatch	plus	-1	1	y	0.81337
276.19280000000003	0.0	PLUS	28	noun	phrase	4	13	nomatch	plus	-1	1	y	0.81337
277.0591	0.0	+	28	noun	phrase	4	14	nomatch	plus	-1	1	y	0.81337
277.00620000000004	0.0	[response]	28	noun	phrase	4	15	nomatch	plus	-1	1	y	0.81337
278.5919	0.0	+	29	noun	phrase	3	1	nomatch	vite	-1	1	y	0.91905
279.15160000000003	0.2	lthdjn	29	noun	phrase	3	2	nomatch	vite	-1	1	y	0.91905
279.3515	0.0	+	29	noun	phrase	3	3	nomatch	vite	-1	1	y	0.91905
279.7513	0.2	hqkz	29	noun	phrase	3	4	nomatch	vite	-1	1	y	0.91905
279.9513	0.0	+	29	noun	phrase	3	5	nomatch	vite	-1	1	y	0.91905
280.35110000000003	0.2	mon	29	noun	phrase	3	6	nomatch	vite	-1	1	y	0.91905
280.551	0.0	+	29	noun	phrase	3	7	nomatch	vite	-1	1	y	0.91905
280.9508	0.2	cendrier	29	noun	phrase	3	8	nomatch	vite	-1	1	y	0.91905
281.15070000000003	0.0	+	29	noun	phrase	3	9	nomatch	vite	-1	1	y	0.91905
281.55060000000003	0.2	blanc	29	noun	phrase	3	10	nomatch	vite	-1	1	y	0.91905
281.7505	0.0	+	29	noun	phrase	3	11	nomatch	vite	-1	1	y	0.91905
282.1503	0.0	+	29	noun	phrase	3	12	nomatch	vite	-1	1	y	0.91905
284.1495	0.0	VITE	29	noun	phrase	3	13	nomatch	vite	-1	1	y	0.91905
285.1224	0.0	+	29	noun	phrase	3	14	nomatch	vite	-1	1	y	0.91905
285.0686	0.0	[response]	29	noun	phrase	3	15	nomatch	vite	-1	1	y	0.91905
294.5317	0.0	+	30	noun	phrase	1	1	nomatch	bleu	-1	1	y	0.88749
295.0915	0.2	cbx	30	noun	phrase	1	2	nomatch	bleu	-1	1	y	0.88749
295.2914	0.0	+	30	noun	phrase	1	3	nomatch	bleu	-1	1	y	0.88749
295.69120000000004	0.2	xndr	30	noun	phrase	1	4	nomatch	bleu	-1	1	y	0.88749
295.8912	0.0	+	30	noun	phrase	1	5	nomatch	bleu	-1	1	y	0.88749
296.291	0.2	zqgk	30	noun	phrase	1	6	nomatch	bleu	-1	1	y	0.88749
296.4909	0.0	+	30	noun	phrase	1	7	nomatch	bleu	-1	1	y	0.88749
296.89070000000004	0.2	wgvqrj	30	noun	phrase	1	8	nomatch	bleu	-1	1	y	0.88749
297.0907	0.0	+	30	noun	phrase	1	9	nomatch	bleu	-1	1	y	0.88749
297.4905	0.2	vert	30	noun	phrase	1	10	nomatch	bleu	-1	1	y	0.88749
297.69030000000004	0.0	+	30	noun	phrase	1	11	nomatch	bleu	-1	1	y	0.88749
298.09020000000004	0.0	+	30	noun	phrase	1	12	nomatch	bleu	-1	1	y	0.88749
300.0894	0.0	BLEU	30	noun	phrase	1	13	nomatch	bleu	-1	1	y	0.88749
301.0222	0.0	+	30	noun	phrase	1	14	nomatch	bleu	-1	1	y	0.88749
300.9769	0.0	[response]	30	noun	phrase	1	15	nomatch	bleu	-1	1	y	0.88749
302.4884	0.0	+	31	noun	phrase	2	1	match	cendrier	4	1	p	0.86288
303.048	0.2	rlphdx	31	noun	phrase	2	2	match	cendrier	4	1	p	0.86288
303.248	0.0	+	31	noun	phrase	2	3	match	cendrier	4	1	p	0.86288
303.6479	0.2	glcf	31	noun	phrase	2	4	match	cendrier	4	1	p	0.86288
303.8478	0.0	+	31	noun	phrase	2	5	match	cendrier	4	1	p	0.86288
304.24760000000003	0.2	qmj	31	noun	phrase	2	6	match	cendrier	4	1	p	0.86288
304.4475	0.0	+	31	noun	phrase	2	7	match	cendrier	4	1	p	0.86288
304.8474	0.2	cendrier	31	noun	phrase	2	8	match	cendrier	4	1	p	0.86288
305.0473	0.0	+	31	noun	phrase	2	9	match	cendrier	4	1	p	0.86288
305.44710000000003	0.2	blanc	31	noun	phrase	2	10	match	cendrier	4	1	p	0.86288
305.647	0.0	+	31	noun	phrase	2	11	match	cendrier	4	1	p	0.86288
306.0468	0.0	+	31	noun	phrase	2	12	match	cendrier	4	1	p	0.86288
308.046	0.0	CENDRIER	31	noun	phrase	2	13	match	cendrier	4	1	p	0.86288
308.95210000000003	0.0	+	31	noun	phrase	2	14	match	cendrier	4	1	p	0.86288
308.9089	0.0	[response]	31	noun	phrase	2	15	match	cendrier	4	1	p	0.86288
318.4416	0.0	+	32	noun	list	3	1	nomatch	rocher	-1	1	y	1.3842
319.0013	0.2	bcsnfh	32	noun	list	3	2	nomatch	rocher	-1	1	y	1.3842
319.20120000000003	0.0	+	32	noun	list	3	3	nomatch	rocher	-1	1	y	1.3842
319.60110000000003	0.2	vhrw	32	noun	list	3	4	nomatch	rocher	-1	1	y	1.3842
319.801	0.0	+	32	noun	list	3	5	nomatch	rocher	-1	1	y	1.3842
320.2008	0.2	son	32	noun	list	3	6	nomatch	rocher	-1	1	y	1.3842
320.40070000000003	0.0	+	32	noun	list	3	7	nomatch	rocher	-1	1	y	1.3842
320.80060000000003	0.2	beaucoup	32	noun	list	3	8	nomatch	rocher	-1	1	y	1.3842
321.0005	0.0	+	32	noun	list	3	9	nomatch	rocher	-1	1	y	1.3842
321.4003	0.2	tablier	32	noun	list	3	10	nomatch	rocher	-1	1	y	1.3842
321.6001	0.0	+	32	noun	list	3	11	nomatch	rocher	-1	1	y	1.3842
322.0	0.0	+	32	noun	list	3	12	nomatch	rocher	-1	1	y	1.3842
323.99920000000003	0.0	ROCHER	32	noun	list	3	13	nomatch	rocher	-1	1	y	1.3842
325.43850000000003	0.0	+	32	noun	list	3	14	nomatch	rocher	-1	1	y	1.3842
325.3833	0.0	[response]	32	noun	list	3	15	nomatch	rocher	-1	1	y	1.3842
326.3849	0.0	+	33	noun	phrase	1	1	nomatch	va	-1	1	y	0.9958000000000001
326.94460000000004	0.2	tskrh	33	noun	phrase	1	2	nomatch	va	-1	1	y	0.9958000000000001
327.1446	0.0	+	33	noun	phrase	1	3	nomatch	va	-1	1	y	0.9958000000000001
327.5444	0.2	mvsc	33	noun	phrase	1	4	nomatch	va	-1	1	y	0.9958000000000001
327.74420000000003	0.0	+	33	noun	phrase	1	5	nomatch	va	-1	1	y	0.9958000000000001
328.14410000000004	0.2	vpc	33	noun	phrase	1	6	nomatch	va	-1	1	y	0.9958000000000001
328.3441	0.0	+	33	noun	phrase	1	7	nomatch	va	-1	1	y	0.9958000000000001
328.7439	0.2	wgvqrj	33	noun	phrase	1	8	nomatch	va	-1	1	y	0.9958000000000001
328.9438	0.0	+	33	noun	phrase	1	9	nomatch	va	-1	1	y	0.9958000000000001
329.34360000000004	0.2	grand	33	noun	phrase	1	10	nomatch	va	-1	1	y	0.9958000000000001
329.5435	0.0	+	33	noun	phrase	1	11	nomatch	va	-1	1	y	0.9958000000000001
329.9434	0.0	+	33	noun	phrase	1	12	nomatch	va	-1	1	y	0.9958000000000001
331.9425	0.0	VA	33	noun	phrase	1	13	nomatch	va	-1	1	y	0.9958000000000001
332.9819	0.0	+	33	noun	phrase	1	14	nomatch	va	-1	1	y	0.9958000000000001
332.9383	0.0	[response]	33	noun	phrase	1	15	nomatch	va	-1	1	y	0.9958000000000001
334.3415	0.0	+	34	noun	phrase	1	1	match	bleu	5	1	p	0.75482
334.9013	0.2	zbdxf	34	noun	phrase	1	2	match	bleu	5	1	p	0.75482
335.10110000000003	0.0	+	34	noun	phrase	1	3	match	bleu	5	1	p	0.75482
335.50100000000003	0.2	bmnq	34	noun	phrase	1	4	match	bleu	5	1	p	0.75482
335.7009	0.0	+	34	noun	phrase	1	5	match	bleu	5	1	p	0.75482
336.1008	0.2	zqgk	34	noun	phrase	1	6	match	bleu	5	1	p	0.75482
336.30060000000003	0.0	+	34	noun	phrase	1	7	match	bleu	5	1	p	0.75482
336.7004	0.2	flntzqrp	34	noun	phrase	1	8	match	bleu	5	1	p	0.75482
336.9004	0.0	+	34	noun	phrase	1	9	match	bleu	5	1	p	0.75482
337.3002	0.2	bleu	34	noun	phrase	1	10	match	bleu	5	1	p	0.75482
337.50010000000003	0.0	+	34	noun	phrase	1	11	match	bleu	5	1	p	0.75482
337.8999	0.0	+	34	noun	phrase	1	12	match	bleu	5	1	p	0.75482
339.89910000000003	0.0	BLEU	34	noun	phrase	1	13	match	bleu	5	1	p	0.75482
340.6986	0.0	+	34	noun	phrase	1	14	match	bleu	5	1	p	0.75482
340.654	0.0	[response]	34	noun	phrase	1	15	match	bleu	5	1	p	0.75482
342.2848	0.0	+	35	noun	list	4	1	match	peut	3	1	p	0.72814
342.84450000000004	0.2	sbqg	35	noun	list	4	2	match	peut	3	1	p	0.72814
343.0444	0.0	+	35	noun	list	4	3	match	peut	3	1	p	0.72814
343.4443	0.2	dans	35	noun	list	4	4	match	peut	3	1	p	0.72814
343.6442	0.0	+	35	noun	list	4	5	match	peut	3	1	p	0.72814
344.04400000000004	0.2	peut	35	noun	list	4	6	match	peut	3	1	p	0.72814
344.2438	0.0	+	35	noun	list	4	7	match	peut	3	1	p	0.72814
344.6437	0.2	grenier	35	noun	list	4	8	match	peut	3	1	p	0.72814
344.8437	0.0	+	35	noun	list	4	9	match	peut	3	1	p	0.72814
345.24350000000004	0.2	ainsi	35	noun	list	4	10	match	peut	3	1	p	0.72814
345.4434	0.0	+	35	noun	list	4	11	match	peut	3	1	p	0.72814
345.8433	0.0	+	35	noun	list	4	12	match	peut	3	1	p	0.72814
347.8424	0.0	PEUT	35	noun	list	4	13	match	peut	3	1	p	0.72814
348.6153	0.0	+	35	noun	list	4	14	match	peut	3	1	p	0.72814
348.5706	0.0	[response]	35	noun	list	4	15	match	peut	3	1	p	0.72814
358.238	0.0	+	36	noun	phrase	2	1	match	tablier	4	1	p	0.91676
358.7977	0.2	xvpnzhf	36	noun	phrase	2	2	match	tablier	4	1	p	0.91676
358.99760000000003	0.0	+	36	noun	phrase	2	3	match	tablier	4	1	p	0.91676
359.39750000000004	0.2	mvsc	36	noun	phrase	2	4	match	tablier	4	1	p	0.91676
359.5974	0.0	+	36	noun	phrase	2	5	match	tablier	4	1	p	0.91676
359.9972	0.2	zqgk	36	noun	phrase	2	6	match	tablier	4	1	p	0.91676
360.19710000000003	0.0	+	36	noun	phrase	2	7	match	tablier	4	1	p	0.91676
360.59700000000004	0.2	tablier	36	noun	phrase	2	8	match	tablier	4	1	p	0.91676
360.7969	0.0	+	36	noun	phrase	2	9	match	tablier	4	1	p	0.91676
361.1967	0.2	rouge	36	noun	phrase	2	10	match	tablier	4	1	p	0.91676
361.39660000000003	0.0	+	36	noun	phrase	2	11	match	tablier	4	1	p	0.91676
361.79650000000004	0.0	+	36	noun	phrase	2	12	match	tablier	4	1	p	0.91676
363.79540000000003	0.0	TABLIER	36	noun	phrase	2	13	match	tablier	4	1	p	0.91676
364.7551	0.0	+	36	noun	phrase	2	14	match	tablier	4	1	p	0.91676
364.7122	0.0	[response]	36	noun	phrase	2	15	match	tablier	4	1	p	0.91676
366.1811	0.0	+	37	noun	list	3	1	nomatch	plus	-1	1	y	1.1839
366.74080000000004	0.2	bst	37	noun	list	3	2	nomatch	plus	-1	1	y	1.1839
366.9408	0.0	+	37	noun	list	3	3	nomatch	plus	-1	1	y	1.1839
367.3406	0.2	trvp	37	noun	list	3	4	nomatch	plus	-1	1	y	1.1839
367.5405	0.0	+	37	noun	list	3	5	nomatch	plus	-1	1	y	1.1839
367.94030000000004	0.2	leur	37	noun	list	3	6	nomatch	plus	-1	1	y	1.1839
368.1402	0.0	+	37	noun	list	3	7	nomatch	plus	-1	1	y	1.1839
368.5401	0.2	trop	37	noun	list	3	8	nomatch	plus	-1	1	y	1.1839
368.74	0.0	+	37	noun	list	3	9	nomatch	plus	-1	1	y	1.1839
369.13980000000004	0.2	rocher	37	noun	list	3	10	nomatch	plus	-1	1	y	1.1839
369.3397	0.0	+	37	noun	list	3	11	nomatch	plus	-1	1	y	1.1839
369.7396	0.0	+	37	noun	list	3	12	nomatch	plus	-1	1	y	1.1839
371.7389	0.0	PLUS	37	noun	list	3	13	nomatch	plus	-1	1	y	1.1839
372.9649	0.0	+	37	noun	list	3	14	nomatch	plus	-1	1	y	1.1839
372.9228	0.0	[response]	37	noun	list	3	15	nomatch	plus	-1	1	y	1.1839
374.1378	0.0	+	38	verb	list	4	1	nomatch	chasser	-1	1	y	1.0067
374.6976	0.2	mkpnzcl	38	verb	list	4	2	nomatch	chasser	-1	1	y	1.0067
374.89750000000004	0.0	+	38	verb	list	4	3	nomatch	chasser	-1	1	y	1.0067
375.2973	0.2	sur	38	verb	list	4	4	nomatch	chasser	-1	1	y	1.0067
375.4972	0.0	+	38	verb	list	4	5	nomatch	chasser	-1	1	y	1.0067
375.8971	0.2	peut	38	verb	list	4	6	nomatch	chasser	-1	1	y	1.0067
376.09700000000004	0.0	+	38	verb	list	4	7	nomatch	chasser	-1	1	y	1.0067
376.49690000000004	0.2	beau	38	verb	list	4	8	nomatch	chasser	-1	1	y	1.0067
376.6968	0.0	+	38	verb	list	4	9	nomatch	chasser	-1	1	y	1.0067
377.0966	0.2	parader	38	verb	list	4	10	nomatch	chasser	-1	1	y	1.0067
377.29650000000004	0.0	+	38	verb	list	4	11	nomatch	chasser	-1	1	y	1.0067
377.6963	0.0	+	38	verb	list	4	12	nomatch	chasser	-1	1	y	1.0067
379.69550000000004	0.0	CHASSER	38	verb	list	4	13	nomatch	chasser	-1	1	y	1.0067
380.74830000000003	0.0	+	38	verb	list	4	14	nomatch	chasser	-1	1	y	1.0067
380.7021000000001	0.0	[response]	38	verb	list	4	15	nomatch	chasser	-1	1	y	1.0067
382.0812	0.0	+	39	verb	phrase	1	1	match	rouler	5	1	p	0.79383
382.6409	0.2	glnwcvm	39	verb	phrase	1	2	match	rouler	5	1	p	0.79383
382.8408	0.0	+	39	verb	phrase	1	3	match	rouler	5	1	p	0.79383
383.24060000000003	0.2	trvp	39	verb	phrase	1	4	match	rouler	5	1	p	0.79383
383.4406	0.0	+	39	verb	phrase	1	5	match	rouler	5	1	p	0.79383
383.8404	0.2	szxj	39	verb	phrase	1	6	match	rouler	5	1	p	0.79383
384.0403	0.0	+	39	verb	phrase	1	7	match	rouler	5	1	p	0.79383
384.4402	0.2	cpfnv	39	verb	phrase	1	8	match	rouler	5	1	p	0.79383
384.64	0.0	+	39	verb	phrase	1	9	match	rouler	5	1	p	0.79383
385.0398	0.2	rouler	39	verb	phrase	1	10	match	rouler	5	1	p	0.79383
385.2398	0.0	+	39	verb	phrase	1	11	match	rouler	5	1	p	0.79383
385.63960000000003	0.0	+	39	verb	phrase	1	12	match	rouler	5	1	p	0.79383
387.6388	0.0	ROULER	39	verb	phrase	1	13	match	rouler	5	1	p	0.79383
388.4783	0.0	+	39	verb	phrase	1	14	match	rouler	5	1	p	0.79383
388.43260000000004	0.0	[response]	39	verb	phrase	1	15	match	rouler	5	1	p	0.79383
390.0378	0.0	+	40	noun	list	1	1	match	tôt	5	1	p	0.86024
390.5975	0.2	bmskwh	40	noun	list	1	2	match	tôt	5	1	p	0.86024
390.79740000000004	0.0	+	40	noun	list	1	3	match	tôt	5	1	p	0.86024
391.19730000000004	0.2	xndr	40	noun	list	1	4	match	tôt	5	1	p	0.86024
391.3972	0.0	+	40	noun	list	1	5	match	tôt	5	1	p	0.86024
391.797	0.2	trzk	40	noun	list	1	6	match	tôt	5	1	p	0.86024
391.99690000000004	0.0	+	40	noun	list	1	7	match	tôt	5	1	p	0.86024
392.39680000000004	0.2	kqjhmw	40	noun	list	1	8	match	tôt	5	1	p	0.86024
392.5967	0.0	+	40	noun	list	1	9	match	tôt	5	1	p	0.86024
392.9965	0.2	tôt	40	noun	list	1	10	match	tôt	5	1	p	0.86024
393.19640000000004	0.0	+	40	noun	list	1	11	match	tôt	5	1	p	0.86024
393.5962	0.0	+	40	noun	list	1	12	match	tôt	5	1	p	0.86024
395.59540000000004	0.0	TÔT	40	noun	list	1	13	match	tôt	5	1	p	0.86024
396.5016	0.0	+	40	noun	list	1	14	match	tôt	5	1	p	0.86024
396.4556	0.0	[response]	40	noun	list	1	15	match	tôt	5	1	p	0.86024
397.9811	0.0	+	41	verb	list	4	1	nomatch	va	-1	1	y	1.0801
398.5408	0.2	mdr	41	verb	list	4	2	nomatch	va	-1	1	y	1.0801
398.7407	0.0	+	41	verb	list	4	3	nomatch	va	-1	1	y	1.0801
399.1406	0.2	sous	41	verb	list	4	4	nomatch	va	-1	1	y	1.0801
399.3404	0.0	+	41	verb	list	4	5	nomatch	va	-1	1	y	1.0801
399.7403	0.2	peut	41	verb	list	4	6	nomatch	va	-1	1	y	1.0801
399.9402	0.0	+	41	verb	list	4	7	nomatch	va	-1	1	y	1.0801
400.34000000000003	0.2	beau	41	verb	list	4	8	nomatch	va	-1	1	y	1.0801
400.5399	0.0	+	41	verb	list	4	9	nomatch	va	-1	1	y	1.0801
400.9397	0.2	rouler	41	verb	list	4	10	nomatch	va	-1	1	y	1.0801
401.1397	0.0	+	41	verb	list	4	11	nomatch	va	-1	1	y	1.0801
401.53950000000003	0.0	+	41	verb	list	4	12	nomatch	va	-1	1	y	1.0801
403.5387	0.0	VA	41	verb	list	4	13	nomatch	va	-1	1	y	1.0801
404.67150000000004	0.0	+	41	verb	list	4	14	nomatch	va	-1	1	y	1.0801
404.6188	0.0	[response]	41	verb	list	4	15	nomatch	va	-1	1	y	1.0801
405.9377	0.0	+	42	verb	phrase	2	1	nomatch	mon	-1	1	y	0.8949
406.4974	0.2	bmchwtz	42	verb	phrase	2	2	nomatch	mon	-1	1	y	0.8949
406.69730000000004	0.0	+	42	verb	phrase	2	3	nomatch	mon	-1	1	y	0.8949
407.0971	0.2	zrmn	42	verb	phrase	2	4	nomatch	mon	-1	1	y	0.8949
407.2971	0.0	+	42	verb	phrase	2	5	nomatch	mon	-1	1	y	0.8949
407.6969	0.2	trzk	42	verb	phrase	2	6	nomatch	mon	-1	1	y	0.8949
407.8969	0.0	+	42	verb	phrase	2	7	nomatch	mon	-1	1	y	0.8949
408.2967	0.2	plus	42	verb	phrase	2	8	nomatch	mon	-1	1	y	0.8949
408.4966	0.0	+	42	verb	phrase	2	9	nomatch	mon	-1	1	y	0.8949
408.8964	0.2	jongler	42	verb	phrase	2	10	nomatch	mon	-1	1	y	0.8949
409.09630000000004	0.0	+	42	verb	phrase	2	11	nomatch	mon	-1	1	y	0.8949
409.4961	0.0	+	42	verb	phrase	2	12	nomatch	mon	-1	1	y	0.8949
411.49530000000004	0.0	MON	42	verb	phrase	2	13	nomatch	mon	-1	1	y	0.8949
412.4414	0.0	+	42	verb	phrase	2	14	nomatch	mon	-1	1	y	0.8949
412.3902	0.0	[response]	42	verb	phrase	2	15	nomatch	mon	-1	1	y	0.8949
421.8909	0.0	+	43	noun	phrase	1	1	nomatch	jade	-1	1	y	0.64782
422.4506	0.2	zbsqvkg	43	noun	phrase	1	2	nomatch	jade	-1	1	y	0.64782
422.6505	0.0	+	43	noun	phrase	1	3	nomatch	jade	-1	1	y	0.64782
423.0504	0.2	mvsc	43	noun	phrase	1	4	nomatch	jade	-1	1	y	0.64782
423.25030000000004	0.0	+	43	noun	phrase	1	5	nomatch	jade	-1	1	y	0.64782
423.6501	0.2	zqgk	43	noun	phrase	1	6	nomatch	jade	-1	1	y	0.64782
423.85	0.0	+	43	noun	phrase	1	7	nomatch	jade	-1	1	y	0.64782
424.2498	0.2	gdpbv	43	noun	phrase	1	8	nomatch	jade	-1	1	y	0.64782
424.44980000000004	0.0	+	43	noun	phrase	1	9	nomatch	jade	-1	1	y	0.64782
424.8496	0.2	clavier	43	noun	phrase	1	10	nomatch	jade	-1	1	y	0.64782
425.0496	0.0	+	43	noun	phrase	1	11	nomatch	jade	-1	1	y	0.64782
425.4494	0.0	+	43	noun	phrase	1	12	nomatch	jade	-1	1	y	0.64782
427.4485	0.0	JADE	43	noun	phrase	1	13	nomatch	jade	-1	1	y	0.64782
428.14140000000003	0.0	+	43	noun	phrase	1	14	nomatch	jade	-1	1	y	0.64782
428.0963000000001	0.0	[response]	43	noun	phrase	1	15	nomatch	jade	-1	1	y	0.64782
429.8342	0.0	+	44	noun	phrase	1	1	nomatch	beau	-1	1	y	0.75878
430.39390000000003	0.2	xrqglk	44	noun	phrase	1	2	nomatch	beau	-1	1	y	0.75878
430.5938	0.0	+	44	noun	phrase	1	3	nomatch	beau	-1	1	y	0.75878
430.9936	0.2	hqkz	44	noun	phrase	1	4	nomatch	beau	-1	1	y	0.75878
431.1936	0.0	+	44	noun	phrase	1	5	nomatch	beau	-1	1	y	0.75878
431.59340000000003	0.2	qmj	44	noun	phrase	1	6	nomatch	beau	-1	1	y	0.75878
431.7933	0.0	+	44	noun	phrase	1	7	nomatch	beau	-1	1	y	0.75878
432.1931	0.2	bxlrsdw	44	noun	phrase	1	8	nomatch	beau	-1	1	y	0.75878
432.3931	0.0	+	44	noun	phrase	1	9	nomatch	beau	-1	1	y	0.75878
432.79290000000003	0.2	petit	44	noun	phrase	1	10	nomatch	beau	-1	1	y	0.75878
432.9928	0.0	+	44	noun	phrase	1	11	nomatch	beau	-1	1	y	0.75878
433.3926	0.0	+	44	noun	phrase	1	12	nomatch	beau	-1	1	y	0.75878
435.3918	0.0	BEAU	44	noun	phrase	1	13	nomatch	beau	-1	1	y	0.75878
436.2046	0.0	+	44	noun	phrase	1	14	nomatch	beau	-1	1	y	0.75878
436.1506	0.0	[response]	44	noun	phrase	1	15	nomatch	beau	-1	1	y	0.75878
445.7874	0.0	+	45	verb	phrase	3	1	match	tard	5	1	p	0.77953
446.3471	0.2	rlb	45	verb	phrase	3	2	match	tard	5	1	p	0.77953
446.5471	0.0	+	45	verb	phrase	3	3	match	tard	5	1	p	0.77953
446.9469	0.2	vhrw	45	verb	phrase	3	4	match	tard	5	1	p	0.77953
447.14680000000004	0.0	+	45	verb	phrase	3	5	match	tard	5	1	p	0.77953
447.5466	0.2	peut	45	verb	phrase	3	6	match	tard	5	1	p	0.77953
447.7465	0.0	+	45	verb	phrase	3	7	match	tard	5	1	p	0.77953
448.1464	0.2	plonger	45	verb	phrase	3	8	match	tard	5	1	p	0.77953
448.3462	0.0	+	45	verb	phrase	3	9	match	tard	5	1	p	0.77953
448.7461	0.2	tard	45	verb	phrase	3	10	match	tard	5	1	p	0.77953
448.946	0.0	+	45	verb	phrase	3	11	match	tard	5	1	p	0.77953
449.34590000000003	0.0	+	45	verb	phrase	3	12	match	tard	5	1	p	0.77953
451.345	0.0	TARD	45	verb	phrase	3	13	match	tard	5	1	p	0.77953
452.1712	0.0	+	45	verb	phrase	3	14	match	tard	5	1	p	0.77953
452.1246	0.0	[response]	45	verb	phrase	3	15	match	tard	5	1	p	0.77953
453.7307	0.0	+	46	noun	phrase	4	1	match	nouveau	4	1	p	0.74891
454.2905	0.2	cpdmj	46	noun	phrase	4	2	match	nouveau	4	1	p	0.74891
454.4904	0.0	+	46	noun	phrase	4	3	match	nouveau	4	1	p	0.74891
454.8902	0.2	sous	46	noun	phrase	4	4	match	nouveau	4	1	p	0.74891
455.0901	0.0	+	46	noun	phrase	4	5	match	nouveau	4	1	p	0.74891
455.48990000000003	0.2	son	46	noun	phrase	4	6	match	nouveau	4	1	p	0.74891
455.6898	0.0	+	46	noun	phrase	4	7	match	nouveau	4	1	p	0.74891
456.0897	0.2	nouveau	46	noun	phrase	4	8	match	nouveau	4	1	p	0.74891
456.2896	0.0	+	46	noun	phrase	4	9	match	nouveau	4	1	p	0.74891
456.68940000000003	0.2	rocher	46	noun	phrase	4	10	match	nouveau	4	1	p	0.74891
456.8893	0.0	+	46	noun	phrase	4	11	match	nouveau	4	1	p	0.74891
457.2891	0.0	+	46	noun	phrase	4	12	match	nouveau	4	1	p	0.74891
459.30170000000004	0.0	NOUVEAU	46	noun	phrase	4	13	match	nouveau	4	1	p	0.74891
460.10130000000004	0.0	+	46	noun	phrase	4	14	match	nouveau	4	1	p	0.74891
460.0506000000001	0.0	[response]	46	noun	phrase	4	15	match	nouveau	4	1	p	0.74891
461.6873	0.0	+	47	verb	phrase	2	1	nomatch	yves	-1	1	y	0.69624
462.24700000000007	0.2	vjkdwz	47	verb	phrase	2	2	nomatch	yves	-1	1	y	0.69624
462.447	0.0	+	47	verb	phrase	2	3	nomatch	yves	-1	1	y	0.69624
462.84680000000003	0.2	lzdr	47	verb	phrase	2	4	nomatch	yves	-1	1	y	0.69624
463.0467	0.0	+	47	verb	phrase	2	5	nomatch	yves	-1	1	y	0.69624
463.4466	0.2	szxj	47	verb	phrase	2	6	nomatch	yves	-1	1	y	0.69624
463.64650000000006	0.0	+	47	verb	phrase	2	7	nomatch	yves	-1	1	y	0.69624
464.0463	0.2	patiner	47	verb	phrase	2	8	nomatch	yves	-1	1	y	0.69624
464.24620000000004	0.0	+	47	verb	phrase	2	9	nomatch	yves	-1	1	y	0.69624
464.64610000000005	0.2	loin	47	verb	phrase	2	10	nomatch	yves	-1	1	y	0.69624
464.846	0.0	+	47	verb	phrase	2	11	nomatch	yves	-1	1	y	0.69624
465.24580000000003	0.0	+	47	verb	phrase	2	12	nomatch	yves	-1	1	y	0.69624
467.245	0.0	YVES	47	verb	phrase	2	13	nomatch	yves	-1	1	y	0.69624
467.99120000000005	0.0	+	47	verb	phrase	2	14	nomatch	yves	-1	1	y	0.69624
467.9412	0.0	[response]	47	verb	phrase	2	15	nomatch	yves	-1	1	y	0.69624
469.63059999999996	0.0	+	48	noun	phrase	1	1	match	bleu	5	1	p	0.85038
470.19040000000007	0.2	flhbjz	48	noun	phrase	1	2	match	bleu	5	1	p	0.85038
470.3903	0.0	+	48	noun	phrase	1	3	match	bleu	5	1	p	0.85038
470.79010000000005	0.2	zhdl	48	noun	phrase	1	4	match	bleu	5	1	p	0.85038
470.99	0.0	+	48	noun	phrase	1	5	match	bleu	5	1	p	0.85038
471.38980000000004	0.2	vpc	48	noun	phrase	1	6	match	bleu	5	1	p	0.85038
471.58979999999997	0.0	+	48	noun	phrase	1	7	match	bleu	5	1	p	0.85038
471.9896	0.2	kqjhmw	48	noun	phrase	1	8	match	bleu	5	1	p	0.85038
472.18950000000007	0.0	+	48	noun	phrase	1	9	match	bleu	5	1	p	0.85038
472.5892	0.2	bleu	48	noun	phrase	1	10	match	bleu	5	1	p	0.85038
472.78909999999996	0.0	+	48	noun	phrase	1	11	match	bleu	5	1	p	0.85038
473.18899999999996	0.0	+	48	noun	phrase	1	12	match	bleu	5	1	p	0.85038
475.2016	0.0	BLEU	48	noun	phrase	1	13	match	bleu	5	1	p	0.85038
476.09450000000004	0.0	+	48	noun	phrase	1	14	match	bleu	5	1	p	0.85038
476.05190000000005	0.0	[response]	48	noun	phrase	1	15	match	bleu	5	1	p	0.85038
477.58720000000005	0.0	+	49	verb	list	3	1	match	peut	3	1	p	0.8003
478.14700000000005	0.2	bhl	49	verb	list	3	2	match	peut	3	1	p	0.8003
478.3469	0.0	+	49	verb	list	3	3	match	peut	3	1	p	0.8003
478.74670000000003	0.2	mvsc	49	verb	list	3	4	match	peut	3	1	p	0.8003
478.9466	0.0	+	49	verb	list	3	5	match	peut	3	1	p	0.8003
479.3464	0.2	peut	49	verb	list	3	6	match	peut	3	1	p	0.8003
479.54640000000006	0.0	+	49	verb	list	3	7	match	peut	3	1	p	0.8003
479.9462	0.2	beau	49	verb	list	3	8	match	peut	3	1	p	0.8003
480.14610000000005	0.0	+	49	verb	list	3	9	match	peut	3	1	p	0.8003
480.54589999999996	0.2	parader	49	verb	list	3	10	match	peut	3	1	p	0.8003
480.7459	0.0	+	49	verb	list	3	11	match	peut	3	1	p	0.8003
481.14570000000003	0.0	+	49	verb	list	3	12	match	peut	3	1	p	0.8003
483.14480000000003	0.0	PEUT	49	verb	list	3	13	match	peut	3	1	p	0.8003
483.99760000000003	0.0	+	49	verb	list	3	14	match	peut	3	1	p	0.8003
483.9451	0.0	[response]	49	verb	list	3	15	match	peut	3	1	p	0.8003
485.53049999999996	0.0	+	50	noun	list	1	1	nomatch	son	-1	1	y	1.4498
486.09030000000007	0.2	tjnk	50	noun	list	1	2	nomatch	son	-1	1	y	1.4498
486.29010000000005	0.0	+	50	noun	list	1	3	nomatch	son	-1	1	y	1.4498
486.69000000000005	0.2	zrmn	50	noun	list	1	4	nomatch	son	-1	1	y	1.4498
486.8899	0.0	+	50	noun	list	1	5	nomatch	son	-1	1	y	1.4498
487.2898	0.2	vpc	50	noun	list	1	6	nomatch	son	-1	1	y	1.4498
487.4896	0.0	+	50	noun	list	1	7	nomatch	son	-1	1	y	1.4498
487.8895	0.2	mjwg	50	noun	list	1	8	nomatch	son	-1	1	y	1.4498
488.0893	0.0	+	50	noun	list	1	9	nomatch	son	-1	1	y	1.4498
488.4892	0.2	casier	50	noun	list	1	10	nomatch	son	-1	1	y	1.4498
488.68910000000005	0.0	+	50	noun	list	1	11	nomatch	son	-1	1	y	1.4498
489.08900000000006	0.0	+	50	noun	list	1	12	nomatch	son	-1	1	y	1.4498
491.1014	0.0	SON	50	noun	list	1	13	nomatch	son	-1	1	y	1.4498
492.5941	0.0	+	50	noun	list	1	14	nomatch	son	-1	1	y	1.4498
492.5512	0.0	[response]	50	noun	list	1	15	nomatch	son	-1	1	y	1.4498
517.4902	0.0	+	51	verb	list	2	1	match	beau	4	1	p	0.9324500000000001
518.0500000000001	0.2	cxz	51	verb	list	2	2	match	beau	4	1	p	0.9324500000000001
518.2499	0.0	+	51	verb	list	2	3	match	beau	4	1	p	0.9324500000000001
518.6497	0.2	glcf	51	verb	list	2	4	match	beau	4	1	p	0.9324500000000001
518.8496	0.0	+	51	verb	list	2	5	match	beau	4	1	p	0.9324500000000001
519.2495	0.2	szxj	51	verb	list	2	6	match	beau	4	1	p	0.9324500000000001
519.4494	0.0	+	51	verb	list	2	7	match	beau	4	1	p	0.9324500000000001
519.8492	0.2	beau	51	verb	list	2	8	match	beau	4	1	p	0.9324500000000001
520.0491000000001	0.0	+	51	verb	list	2	9	match	beau	4	1	p	0.9324500000000001
520.4490000000001	0.2	chasser	51	verb	list	2	10	match	beau	4	1	p	0.9324500000000001
520.6489	0.0	+	51	verb	list	2	11	match	beau	4	1	p	0.9324500000000001
521.0487	0.0	+	51	verb	list	2	12	match	beau	4	1	p	0.9324500000000001
523.0479	0.0	BEAU	51	verb	list	2	13	match	beau	4	1	p	0.9324500000000001
524.0339	0.0	+	51	verb	list	2	14	match	beau	4	1	p	0.9324500000000001
523.9803	0.0	[response]	51	verb	list	2	15	match	beau	4	1	p	0.9324500000000001
525.4335	0.0	+	52	verb	list	4	1	nomatch	blanc	-1	1	y	0.71066
525.9933	0.2	bqv	52	verb	list	4	2	nomatch	blanc	-1	1	y	0.71066
526.1931	0.0	+	52	verb	list	4	3	nomatch	blanc	-1	1	y	0.71066
526.593	0.2	avec	52	verb	list	4	4	nomatch	blanc	-1	1	y	0.71066
526.7929	0.0	+	52	verb	list	4	5	nomatch	blanc	-1	1	y	0.71066
527.1928	0.2	doit	52	verb	list	4	6	nomatch	blanc	-1	1	y	0.71066
527.3927	0.0	+	52	verb	list	4	7	nomatch	blanc	-1	1	y	0.71066
527.7925	0.2	vieux	52	verb	list	4	8	nomatch	blanc	-1	1	y	0.71066
527.9924	0.0	+	52	verb	list	4	9	nomatch	blanc	-1	1	y	0.71066
528.3923	0.2	nager	52	verb	list	4	10	nomatch	blanc	-1	1	y	0.71066
528.5922	0.0	+	52	verb	list	4	11	nomatch	blanc	-1	1	y	0.71066
528.992	0.0	+	52	verb	list	4	12	nomatch	blanc	-1	1	y	0.71066
530.9911	0.0	BLANC	52	verb	list	4	13	nomatch	blanc	-1	1	y	0.71066
531.7507	0.0	+	52	verb	list	4	14	nomatch	blanc	-1	1	y	0.71066
531.7017	0.0	[response]	52	verb	list	4	15	nomatch	blanc	-1	1	y	0.71066
533.3901	0.0	+	53	noun	phrase	4	1	match	leur	3	0	TIMEOUT	-1.0
533.9499000000001	0.2	cfjlr	53	noun	phrase	4	2	match	leur	3	0	TIMEOUT	-1.0
534.1498	0.0	+	53	noun	phrase	4	3	match	leur	3	0	TIMEOUT	-1.0
534.5496	0.2	sur	53	noun	phrase	4	4	match	leur	3	0	TIMEOUT	-1.0
534.7496	0.0	+	53	noun	phrase	4	5	match	leur	3	0	TIMEOUT	-1.0
535.1493	0.2	leur	53	noun	phrase	4	6	match	leur	3	0	TIMEOUT	-1.0
535.3493	0.0	+	53	noun	phrase	4	7	match	leur	3	0	TIMEOUT	-1.0
535.7491	0.2	rocher	53	noun	phrase	4	8	match	leur	3	0	TIMEOUT	-1.0
535.9490000000001	0.0	+	53	noun	phrase	4	9	match	leur	3	0	TIMEOUT	-1.0
536.3488	0.2	rouge	53	noun	phrase	4	10	match	leur	3	0	TIMEOUT	-1.0
536.5488	0.0	+	53	noun	phrase	4	11	match	leur	3	0	TIMEOUT	-1.0
536.9486	0.0	+	53	noun	phrase	4	12	match	leur	3	0	TIMEOUT	-1.0
538.9477	0.0	LEUR	53	noun	phrase	4	13	match	leur	3	0	TIMEOUT	-1.0
541.3333	0.0	+	54	verb	list	1	1	nomatch	grand	-1	1	y	0.79068
541.9465	0.2	ktqgh	54	verb	list	1	2	nomatch	grand	-1	1	y	0.79068
542.1464	0.0	+	54	verb	list	1	3	nomatch	grand	-1	1	y	0.79068
542.5462	0.2	bmnq	54	verb	list	1	4	nomatch	grand	-1	1	y	0.79068
542.7461000000001	0.0	+	54	verb	list	1	5	nomatch	grand	-1	1	y	0.79068
543.146	0.2	szxj	54	verb	list	1	6	nomatch	grand	-1	1	y	0.79068
543.3458	0.0	+	54	verb	list	1	7	nomatch	grand	-1	1	y	0.79068
543.7457	0.2	wmbxd	54	verb	list	1	8	nomatch	grand	-1	1	y	0.79068
543.9457	0.0	+	54	verb	list	1	9	nomatch	grand	-1	1	y	0.79068
544.3455	0.2	vieux	54	verb	list	1	10	nomatch	grand	-1	1	y	0.79068
544.5454	0.0	+	54	verb	list	1	11	nomatch	grand	-1	1	y	0.79068
544.9452	0.0	+	54	verb	list	1	12	nomatch	grand	-1	1	y	0.79068
546.9444	0.0	GRAND	54	verb	list	1	13	nomatch	grand	-1	1	y	0.79068
547.784	0.0	+	54	verb	list	1	14	nomatch	grand	-1	1	y	0.79068
547.7351	0.0	[response]	54	verb	list	1	15	nomatch	grand	-1	1	y	0.79068
549.33	0.0	+	55	verb	phrase	1	1	match	vite	5	1	p	0.58293
549.8897000000001	0.2	fwnhk	55	verb	phrase	1	2	match	vite	5	1	p	0.58293
550.0897	0.0	+	55	verb	phrase	1	3	match	vite	5	1	p	0.58293
550.4894	0.2	lzdr	55	verb	phrase	1	4	match	vite	5	1	p	0.58293
550.6895000000001	0.0	+	55	verb	phrase	1	5	match	vite	5	1	p	0.58293
551.0892	0.2	kq	55	verb	phrase	1	6	match	vite	5	1	p	0.58293
551.2892	0.0	+	55	verb	phrase	1	7	match	vite	5	1	p	0.58293
551.689	0.2	xhwmqlt	55	verb	phrase	1	8	match	vite	5	1	p	0.58293
551.8889	0.0	+	55	verb	phrase	1	9	match	vite	5	1	p	0.58293
552.2888	0.2	vite	55	verb	phrase	1	10	match	vite	5	1	p	0.58293
552.4886	0.0	+	55	verb	phrase	1	11	match	vite	5	1	p	0.58293
552.9018	0.0	+	55	verb	phrase	1	12	match	vite	5	1	p	0.58293
554.9010000000001	0.0	VITE	55	verb	phrase	1	13	match	vite	5	1	p	0.58293
555.5274000000001	0.0	+	55	verb	phrase	1	14	match	vite	5	1	p	0.58293
555.4839000000001	0.0	[response]	55	verb	phrase	1	15	match	vite	5	1	p	0.58293
557.2867	0.0	+	56	verb	phrase	1	1	match	loin	5	1	p	0.7779600000000001
557.8464	0.2	bnq	56	verb	phrase	1	2	match	loin	5	1	p	0.7779600000000001
558.0463	0.0	+	56	verb	phrase	1	3	match	loin	5	1	p	0.7779600000000001
558.4461	0.2	dnbc	56	verb	phrase	1	4	match	loin	5	1	p	0.7779600000000001
558.6461	0.0	+	56	verb	phrase	1	5	match	loin	5	1	p	0.7779600000000001
559.0459	0.2	trzk	56	verb	phrase	1	6	match	loin	5	1	p	0.7779600000000001
559.2458	0.0	+	56	verb	phrase	1	7	match	loin	5	1	p	0.7779600000000001
559.6456000000001	0.2	xfpwgcb	56	verb	phrase	1	8	match	loin	5	1	p	0.7779600000000001
559.8456	0.0	+	56	verb	phrase	1	9	match	loin	5	1	p	0.7779600000000001
560.2454	0.2	loin	56	verb	phrase	1	10	match	loin	5	1	p	0.7779600000000001
560.4453	0.0	+	56	verb	phrase	1	11	match	loin	5	1	p	0.7779600000000001
560.8451	0.0	+	56	verb	phrase	1	12	match	loin	5	1	p	0.7779600000000001
562.8443	0.0	LOIN	56	verb	phrase	1	13	match	loin	5	1	p	0.7779600000000001
563.6704	0.0	+	56	verb	phrase	1	14	match	loin	5	1	p	0.7779600000000001
563.6222	0.0	[response]	56	verb	phrase	1	15	match	loin	5	1	p	0.7779600000000001
565.2299	0.0	+	57	verb	phrase	4	1	nomatch	pour	-1	1	y	1.1513
565.7897	0.2	bgpwd	57	verb	phrase	4	2	nomatch	pour	-1	1	y	1.1513
565.9896	0.0	+	57	verb	phrase	4	3	nomatch	pour	-1	1	y	1.1513
566.3894	0.2	marc	57	verb	phrase	4	4	nomatch	pour	-1	1	y	1.1513
566.5894000000001	0.0	+	57	verb	phrase	4	5	nomatch	pour	-1	1	y	1.1513
566.9891	0.2	peut	57	verb	phrase	4	6	nomatch	pour	-1	1	y	1.1513
567.1891	0.0	+	57	verb	phrase	4	7	nomatch	pour	-1	1	y	1.1513
567.5889	0.2	beaucoup	57	verb	phrase	4	8	nomatch	pour	-1	1	y	1.1513
567.7888	0.0	+	57	verb	phrase	4	9	nomatch	pour	-1	1	y	1.1513
568.1887	0.2	patiner	57	verb	phrase	4	10	nomatch	pour	-1	1	y	1.1513
568.4019000000001	0.0	+	57	verb	phrase	4	11	nomatch	pour	-1	1	y	1.1513
568.8018000000001	0.0	+	57	verb	phrase	4	12	nomatch	pour	-1	1	y	1.1513
570.8009000000001	0.0	POUR	57	verb	phrase	4	13	nomatch	pour	-1	1	y	1.1513
572.0004	0.0	+	57	verb	phrase	4	14	nomatch	pour	-1	1	y	1.1513
571.9522000000001	0.0	[response]	57	verb	phrase	4	15	nomatch	pour	-1	1	y	1.1513
581.1832	0.0	+	58	verb	phrase	4	1	match	tôt	5	1	p	0.79693
581.7429	0.2	dcvnr	58	verb	phrase	4	2	match	tôt	5	1	p	0.79693
581.9428	0.0	+	58	verb	phrase	4	3	match	tôt	5	1	p	0.79693
582.3426000000001	0.2	yves	58	verb	phrase	4	4	match	tôt	5	1	p	0.79693
582.5425	0.0	+	58	verb	phrase	4	5	match	tôt	5	1	p	0.79693
582.9424	0.2	doit	58	verb	phrase	4	6	match	tôt	5	1	p	0.79693
583.1423	0.0	+	58	verb	phrase	4	7	match	tôt	5	1	p	0.79693
583.5422	0.2	parader	58	verb	phrase	4	8	match	tôt	5	1	p	0.79693
583.7421	0.0	+	58	verb	phrase	4	9	match	tôt	5	1	p	0.79693
584.1419	0.2	tôt	58	verb	phrase	4	10	match	tôt	5	1	p	0.79693
584.3418	0.0	+	58	verb	phrase	4	11	match	tôt	5	1	p	0.79693
584.7416000000001	0.0	+	58	verb	phrase	4	12	match	tôt	5	1	p	0.79693
586.7408	0.0	TÔT	58	verb	phrase	4	13	match	tôt	5	1	p	0.79693
587.5803	0.0	+	58	verb	phrase	4	14	match	tôt	5	1	p	0.79693
587.5377	0.0	[response]	58	verb	phrase	4	15	match	tôt	5	1	p	0.79693
589.1398	0.0	+	59	noun	list	3	1	match	va	3	0	y	2.0489
589.6995000000001	0.2	xrmsn	59	noun	list	3	2	match	va	3	0	y	2.0489
589.8995	0.0	+	59	noun	list	3	3	match	va	3	0	y	2.0489
590.2993	0.2	xhj	59	noun	list	3	4	match	va	3	0	y	2.0489
590.4992	0.0	+	59	noun	list	3	5	match	va	3	0	y	2.0489
590.899	0.2	va	59	noun	list	3	6	match	va	3	0	y	2.0489
591.0989	0.0	+	59	noun	list	3	7	match	va	3	0	y	2.0489
591.4988	0.2	voilier	59	noun	list	3	8	match	va	3	0	y	2.0489
591.6987	0.0	+	59	noun	list	3	9	match	va	3	0	y	2.0489
592.0985000000001	0.2	loin	59	noun	list	3	10	match	va	3	0	y	2.0489
592.2984	0.0	+	59	noun	list	3	11	match	va	3	0	y	2.0489
592.6983	0.0	+	59	noun	list	3	12	match	va	3	0	y	2.0489
594.6974	0.0	VA	59	noun	list	3	13	match	va	3	0	y	2.0489
596.7897	0.0	+	59	noun	list	3	14	match	va	3	0	y	2.0489
596.7463	0.0	[response]	59	noun	list	3	15	match	va	3	0	y	2.0489
597.0831000000001	0.0	+	60	verb	list	3	1	nomatch	rocher	-1	1	y	1.0361
597.6428	0.2	kwml	60	verb	list	3	2	nomatch	rocher	-1	1	y	1.0361
597.8427	0.0	+	60	verb	list	3	3	nomatch	rocher	-1	1	y	1.0361
598.2426	0.2	trvp	60	verb	list	3	4	nomatch	rocher	-1	1	y	1.0361
598.4425	0.0	+	60	verb	list	3	5	nomatch	rocher	-1	1	y	1.0361
598.8423	0.2	leur	60	verb	list	3	6	nomatch	rocher	-1	1	y	1.0361
599.0422	0.0	+	60	verb	list	3	7	nomatch	rocher	-1	1	y	1.0361
599.442	0.2	jongler	60	verb	list	3	8	nomatch	rocher	-1	1	y	1.0361
599.642	0.0	+	60	verb	list	3	9	nomatch	rocher	-1	1	y	1.0361
600.0418	0.2	blanc	60	verb	list	3	10	nomatch	rocher	-1	1	y	1.0361
600.2417	0.0	+	60	verb	list	3	11	nomatch	rocher	-1	1	y	1.0361
600.6416	0.0	+	60	verb	list	3	12	nomatch	rocher	-1	1	y	1.0361
602.6407	0.0	ROCHER	60	verb	list	3	13	nomatch	rocher	-1	1	y	1.0361
603.7201	0.0	+	60	verb	list	3	14	nomatch	rocher	-1	1	y	1.0361
603.6768000000001	0.0	[response]	60	verb	list	3	15	nomatch	rocher	-1	1	y	1.0361
605.0397	0.0	+	61	noun	list	2	1	nomatch	vite	-1	1	y	0.73326
605.5994000000001	0.2	clfptv	61	noun	list	2	2	nomatch	vite	-1	1	y	0.73326
605.7994	0.0	+	61	noun	list	2	3	nomatch	vite	-1	1	y	0.73326
606.1992	0.2	xhj	61	noun	list	2	4	nomatch	vite	-1	1	y	0.73326
606.399	0.0	+	61	noun	list	2	5	nomatch	vite	-1	1	y	0.73326
606.7989	0.2	szxj	61	noun	list	2	6	nomatch	vite	-1	1	y	0.73326
606.9988	0.0	+	61	noun	list	2	7	nomatch	vite	-1	1	y	0.73326
607.3987	0.2	cendrier	61	noun	list	2	8	nomatch	vite	-1	1	y	0.73326
607.5985000000001	0.0	+	61	noun	list	2	9	nomatch	vite	-1	1	y	0.73326
607.9984000000001	0.2	loin	61	noun	list	2	10	nomatch	vite	-1	1	y	0.73326
608.1984	0.0	+	61	noun	list	2	11	nomatch	vite	-1	1	y	0.73326
608.5982	0.0	+	61	noun	list	2	12	nomatch	vite	-1	1	y	0.73326
610.5974	0.0	VITE	61	noun	list	2	13	nomatch	vite	-1	1	y	0.73326
611.3836	0.0	+	61	noun	list	2	14	nomatch	vite	-1	1	y	0.73326
611.3306	0.0	[response]	61	noun	list	2	15	nomatch	vite	-1	1	y	0.73326
612.9830000000001	0.0	+	62	verb	phrase	3	1	nomatch	grand	-1	1	y	1.1294
613.5427	0.2	kflgzwv	62	verb	phrase	3	2	nomatch	grand	-1	1	y	1.1294
613.7426	0.0	+	62	verb	phrase	3	3	nomatch	grand	-1	1	y	1.1294
614.1425	0.2	trvp	62	verb	phrase	3	4	nomatch	grand	-1	1	y	1.1294
614.3423	0.0	+	62	verb	phrase	3	5	nomatch	grand	-1	1	y	1.1294
614.7422	0.2	va	62	verb	phrase	3	6	nomatch	grand	-1	1	y	1.1294
614.9421	0.0	+	62	verb	phrase	3	7	nomatch	grand	-1	1	y	1.1294
615.342	0.2	plus	62	verb	phrase	3	8	nomatch	grand	-1	1	y	1.1294
615.5419	0.0	+	62	verb	phrase	3	9	nomatch	grand	-1	1	y	1.1294
615.9417	0.2	nager	62	verb	phrase	3	10	nomatch	grand	-1	1	y	1.1294
616.1416	0.0	+	62	verb	phrase	3	11	nomatch	grand	-1	1	y	1.1294
616.5415	0.0	+	62	verb	phrase	3	12	nomatch	grand	-1	1	y	1.1294
618.5406	0.0	GRAND	62	verb	phrase	3	13	nomatch	grand	-1	1	y	1.1294
619.7133	0.0	+	62	verb	phrase	3	14	nomatch	grand	-1	1	y	1.1294
619.6700000000001	0.0	[response]	62	verb	phrase	3	15	nomatch	grand	-1	1	y	1.1294
620.9396	0.0	+	63	noun	phrase	2	1	nomatch	grenier	-1	1	y	0.89497
621.4994	0.2	rqmc	63	noun	phrase	2	2	nomatch	grenier	-1	1	y	0.89497
621.6993	0.0	+	63	noun	phrase	2	3	nomatch	grenier	-1	1	y	0.89497
622.0991	0.2	xhj	63	noun	phrase	2	4	nomatch	grenier	-1	1	y	0.89497
622.299	0.0	+	63	noun	phrase	2	5	nomatch	grenier	-1	1	y	0.89497
622.6988	0.2	zqgk	63	noun	phrase	2	6	nomatch	grenier	-1	1	y	0.89497
622.8988	0.0	+	63	noun	phrase	2	7	nomatch	grenier	-1	1	y	0.89497
623.2986	0.2	nouveau	63	noun	phrase	2	8	nomatch	grenier	-1	1	y	0.89497
623.4985	0.0	+	63	noun	phrase	2	9	nomatch	grenier	-1	1	y	0.89497
623.8983000000001	0.2	rocher	63	noun	phrase	2	10	nomatch	grenier	-1	1	y	0.89497
624.0983	0.0	+	63	noun	phrase	2	11	nomatch	grenier	-1	1	y	0.89497
624.4981	0.0	+	63	noun	phrase	2	12	nomatch	grenier	-1	1	y	0.89497
626.4972	0.0	GRENIER	63	noun	phrase	2	13	nomatch	grenier	-1	1	y	0.89497
627.4433	0.0	+	63	noun	phrase	2	14	nomatch	grenier	-1	1	y	0.89497
627.3922	0.0	[response]	63	noun	phrase	2	15	nomatch	grenier	-1	1	y	0.89497
628.8829000000001	0.0	+	64	verb	phrase	1	1	match	galoper	5	1	p	0.5837900000000001
629.4426	0.2	rhsct	64	verb	phrase	1	2	match	galoper	5	1	p	0.5837900000000001
629.6426	0.0	+	64	verb	phrase	1	3	match	galoper	5	1	p	0.5837900000000001
630.0424	0.2	lzdr	64	verb	phrase	1	4	match	galoper	5	1	p	0.5837900000000001
630.2423	0.0	+	64	verb	phrase	1	5	match	galoper	5	1	p	0.5837900000000001
630.6421	0.2	szxj	64	verb	phrase	1	6	match	galoper	5	1	p	0.5837900000000001
630.8421	0.0	+	64	verb	phrase	1	7	match	galoper	5	1	p	0.5837900000000001
631.2419	0.2	drwvk	64	verb	phrase	1	8	match	galoper	5	1	p	0.5837900000000001
631.4418000000001	0.0	+	64	verb	phrase	1	9	match	galoper	5	1	p	0.5837900000000001
631.8416	0.2	galoper	64	verb	phrase	1	10	match	galoper	5	1	p	0.5837900000000001
632.0416	0.0	+	64	verb	phrase	1	11	match	galoper	5	1	p	0.5837900000000001
632.4414	0.0	+	64	verb	phrase	1	12	match	galoper	5	1	p	0.5837900000000001
634.4405	0.0	GALOPER	64	verb	phrase	1	13	match	galoper	5	1	p	0.5837900000000001
635.0668000000001	0.0	+	64	verb	phrase	1	14	match	galoper	5	1	p	0.5837900000000001
635.0243	0.0	[response]	64	verb	phrase	1	15	match	galoper	5	1	p	0.5837900000000001
636.8395	0.0	+	65	verb	phrase	3	1	match	vite	5	0	y	0.90648
637.3993	0.2	jhsmrpw	65	verb	phrase	3	2	match	vite	5	0	y	0.90648
637.5992	0.0	+	65	verb	phrase	3	3	match	vite	5	0	y	0.90648
637.999	0.2	trvp	65	verb	phrase	3	4	match	vite	5	0	y	0.90648
638.1988	0.0	+	65	verb	phrase	3	5	match	vite	5	0	y	0.90648
638.5987	0.2	doit	65	verb	phrase	3	6	match	vite	5	0	y	0.90648
638.7987	0.0	+	65	verb	phrase	3	7	match	vite	5	0	y	0.90648
639.1985	0.2	nager	65	verb	phrase	3	8	match	vite	5	0	y	0.90648
639.3984	0.0	+	65	verb	phrase	3	9	match	vite	5	0	y	0.90648
639.7983	0.2	vite	65	verb	phrase	3	10	match	vite	5	0	y	0.90648
639.9982	0.0	+	65	verb	phrase	3	11	match	vite	5	0	y	0.90648
640.398	0.0	+	65	verb	phrase	3	12	match	vite	5	0	y	0.90648
642.3971	0.0	VITE	65	verb	phrase	3	13	match	vite	5	0	y	0.90648
643.3567	0.0	+	65	verb	phrase	3	14	match	vite	5	0	y	0.90648
643.3036	0.0	[response]	65	verb	phrase	3	15	match	vite	5	0	y	0.90648
644.7828000000001	0.0	+	66	verb	list	2	1	nomatch	jongler	-1	1	y	0.75088
645.3426000000001	0.2	ckqs	66	verb	list	2	2	nomatch	jongler	-1	1	y	0.75088
645.5425	0.0	+	66	verb	list	2	3	nomatch	jongler	-1	1	y	0.75088
645.9424	0.2	vhrw	66	verb	list	2	4	nomatch	jongler	-1	1	y	0.75088
646.1422	0.0	+	66	verb	list	2	5	nomatch	jongler	-1	1	y	0.75088
646.5421	0.2	vpc	66	verb	list	2	6	nomatch	jongler	-1	1	y	0.75088
646.742	0.0	+	66	verb	list	2	7	nomatch	jongler	-1	1	y	0.75088
647.1418	0.2	patiner	66	verb	list	2	8	nomatch	jongler	-1	1	y	0.75088
647.3416	0.0	+	66	verb	list	2	9	nomatch	jongler	-1	1	y	0.75088
647.7416000000001	0.2	vert	66	verb	list	2	10	nomatch	jongler	-1	1	y	0.75088
647.9415	0.0	+	66	verb	list	2	11	nomatch	jongler	-1	1	y	0.75088
648.3412	0.0	+	66	verb	list	2	12	nomatch	jongler	-1	1	y	0.75088
650.3404	0.0	JONGLER	66	verb	list	2	13	nomatch	jongler	-1	1	y	0.75088
651.1399	0.0	+	66	verb	list	2	14	nomatch	jongler	-1	1	y	0.75088
651.0913	0.0	[response]	66	verb	list	2	15	nomatch	jongler	-1	1	y	0.75088
652.7394	0.0	+	67	verb	list	1	1	nomatch	peut	-1	1	y	0.78343
653.2991000000001	0.2	ztjgmwf	67	verb	list	1	2	nomatch	peut	-1	1	y	0.78343
653.499	0.0	+	67	verb	list	1	3	nomatch	peut	-1	1	y	0.78343
653.8989	0.2	trvp	67	verb	list	1	4	nomatch	peut	-1	1	y	0.78343
654.0988	0.0	+	67	verb	list	1	5	nomatch	peut	-1	1	y	0.78343
654.4987	0.2	qmj	67	verb	list	1	6	nomatch	peut	-1	1	y	0.78343
654.6985	0.0	+	67	verb	list	1	7	nomatch	peut	-1	1	y	0.78343
655.0984	0.2	xtsjdfm	67	verb	list	1	8	nomatch	peut	-1	1	y	0.78343
655.2983	0.0	+	67	verb	list	1	9	nomatch	peut	-1	1	y	0.78343
655.6982	0.2	blanc	67	verb	list	1	10	nomatch	peut	-1	1	y	0.78343
655.8981	0.0	+	67	verb	list	1	11	nomatch	peut	-1	1	y	0.78343
656.2979	0.0	+	67	verb	list	1	12	nomatch	peut	-1	1	y	0.78343
658.2971	0.0	PEUT	67	verb	list	1	13	nomatch	peut	-1	1	y	0.78343
659.1234000000001	0.0	+	67	verb	list	1	14	nomatch	peut	-1	1	y	0.78343
659.0805	0.0	[response]	67	verb	list	1	15	nomatch	peut	-1	1	y	0.78343
660.6828	0.0	+	68	verb	list	1	1	nomatch	paul	-1	1	y	0.80879
661.2425000000001	0.2	bcm	68	verb	list	1	2	nomatch	paul	-1	1	y	0.80879
661.4424	0.0	+	68	verb	list	1	3	nomatch	paul	-1	1	y	0.80879
661.8422	0.2	glcf	68	verb	list	1	4	nomatch	paul	-1	1	y	0.80879
662.0421	0.0	+	68	verb	list	1	5	nomatch	paul	-1	1	y	0.80879
662.442	0.2	szxj	68	verb	list	1	6	nomatch	paul	-1	1	y	0.80879
662.6419	0.0	+	68	verb	list	1	7	nomatch	paul	-1	1	y	0.80879
663.0417	0.2	xstcfrw	68	verb	list	1	8	nomatch	paul	-1	1	y	0.80879
663.2416000000001	0.0	+	68	verb	list	1	9	nomatch	paul	-1	1	y	0.80879
663.6415000000001	0.2	grand	68	verb	list	1	10	nomatch	paul	-1	1	y	0.80879
663.8414	0.0	+	68	verb	list	1	11	nomatch	paul	-1	1	y	0.80879
664.2412	0.0	+	68	verb	list	1	12	nomatch	paul	-1	1	y	0.80879
666.2403	0.0	PAUL	68	verb	list	1	13	nomatch	paul	-1	1	y	0.80879
667.0932	0.0	+	68	verb	list	1	14	nomatch	paul	-1	1	y	0.80879
667.0491000000001	0.0	[response]	68	verb	list	1	15	nomatch	paul	-1	1	y	0.80879
668.6394	0.0	+	69	noun	list	1	1	match	tôt	5	1	p	1.0052
669.1991	0.2	hdrv	69	noun	list	1	2	match	tôt	5	1	p	1.0052
669.399	0.0	+	69	noun	list	1	3	match	tôt	5	1	p	1.0052
669.7989	0.2	zhdl	69	noun	list	1	4	match	tôt	5	1	p	1.0052
669.9988	0.0	+	69	noun	list	1	5	match	tôt	5	1	p	1.0052
670.3986	0.2	trzk	69	noun	list	1	6	match	tôt	5	1	p	1.0052
670.5985000000001	0.0	+	69	noun	list	1	7	match	tôt	5	1	p	1.0052
670.9983	0.2	wkchfqj	69	noun	list	1	8	match	tôt	5	1	p	1.0052
671.1983	0.0	+	69	noun	list	1	9	match	tôt	5	1	p	1.0052
671.5981	0.2	tôt	69	noun	list	1	10	match	tôt	5	1	p	1.0052
671.798	0.0	+	69	noun	list	1	11	match	tôt	5	1	p	1.0052
672.1978	0.0	+	69	noun	list	1	12	match	tôt	5	1	p	1.0052
674.197	0.0	TÔT	69	noun	list	1	13	match	tôt	5	1	p	1.0052
675.2498	0.0	+	69	noun	list	1	14	match	tôt	5	1	p	1.0052
675.2021	0.0	[response]	69	noun	list	1	15	match	tôt	5	1	p	1.0052
676.5826000000001	0.0	+	70	verb	list	3	1	match	plonger	5	1	p	0.80595
677.1424000000001	0.2	bgprj	70	verb	list	3	2	match	plonger	5	1	p	0.80595
677.3423	0.0	+	70	verb	list	3	3	match	plonger	5	1	p	0.80595
677.7421	0.2	bmnq	70	verb	list	3	4	match	plonger	5	1	p	0.80595
677.942	0.0	+	70	verb	list	3	5	match	plonger	5	1	p	0.80595
678.3418	0.2	peut	70	verb	list	3	6	match	plonger	5	1	p	0.80595
678.5418	0.0	+	70	verb	list	3	7	match	plonger	5	1	p	0.80595
678.9416	0.2	grand	70	verb	list	3	8	match	plonger	5	1	p	0.80595
679.1415000000001	0.0	+	70	verb	list	3	9	match	plonger	5	1	p	0.80595
679.5414000000001	0.2	plonger	70	verb	list	3	10	match	plonger	5	1	p	0.80595
679.7412	0.0	+	70	verb	list	3	11	match	plonger	5	1	p	0.80595
680.1411	0.0	+	70	verb	list	3	12	match	plonger	5	1	p	0.80595
682.1402	0.0	PLONGER	70	verb	list	3	13	match	plonger	5	1	p	0.80595
682.9932	0.0	+	70	verb	list	3	14	match	plonger	5	1	p	0.80595
682.9462	0.0	[response]	70	verb	list	3	15	match	plonger	5	1	p	0.80595
684.5393	0.0	+	71	verb	phrase	3	1	match	va	3	1	p	1.0458
685.099	0.2	vqbpth	71	verb	phrase	3	2	match	va	3	1	p	1.0458
685.2989	0.0	+	71	verb	phrase	3	3	match	va	3	1	p	1.0458
685.6987	0.2	dnbc	71	verb	phrase	3	4	match	va	3	1	p	1.0458
685.8987	0.0	+	71	verb	phrase	3	5	match	va	3	1	p	1.0458
686.2985	0.2	va	71	verb	phrase	3	6	match	va	3	1	p	1.0458
686.4984000000001	0.0	+	71	verb	phrase	3	7	match	va	3	1	p	1.0458
686.8982	0.2	moins	71	verb	phrase	3	8	match	va	3	1	p	1.0458
687.0981	0.0	+	71	verb	phrase	3	9	match	va	3	1	p	1.0458
687.498	0.2	galoper	71	verb	phrase	3	10	match	va	3	1	p	1.0458
687.698	0.0	+	71	verb	phrase	3	11	match	va	3	1	p	1.0458
688.0977	0.0	+	71	verb	phrase	3	12	match	va	3	1	p	1.0458
690.0969	0.0	VA	71	verb	phrase	3	13	match	va	3	1	p	1.0458
691.1896	0.0	+	71	verb	phrase	3	14	match	va	3	1	p	1.0458
691.1427	0.0	[response]	71	verb	phrase	3	15	match	va	3	1	p	1.0458
692.4826	0.0	+	72	verb	list	1	1	match	vert	5	1	p	0.95657
693.0423000000001	0.2	rwnghp	72	verb	list	1	2	match	vert	5	1	p	0.95657
693.2422	0.0	+	72	verb	list	1	3	match	vert	5	1	p	0.95657
693.642	0.2	zrmn	72	verb	list	1	4	match	vert	5	1	p	0.95657
693.842	0.0	+	72	verb	list	1	5	match	vert	5	1	p	0.95657
694.2418	0.2	zqgk	72	verb	list	1	6	match	vert	5	1	p	0.95657
694.4417	0.0	+	72	verb	list	1	7	match	vert	5	1	p	0.95657
694.8415	0.2	xstcfrw	72	verb	list	1	8	match	vert	5	1	p	0.95657
695.0414000000001	0.0	+	72	verb	list	1	9	match	vert	5	1	p	0.95657
695.4413000000001	0.2	vert	72	verb	list	1	10	match	vert	5	1	p	0.95657
695.6412	0.0	+	72	verb	list	1	11	match	vert	5	1	p	0.95657
696.041	0.0	+	72	verb	list	1	12	match	vert	5	1	p	0.95657
698.0401	0.0	VERT	72	verb	list	1	13	match	vert	5	1	p	0.95657
699.0398	0.0	+	72	verb	list	1	14	match	vert	5	1	p	0.95657
698.9966000000002	0.0	[response]	72	verb	list	1	15	match	vert	5	1	p	0.95657
700.4391	0.0	+	73	verb	phrase	2	1	nomatch	tard	-1	1	y	0.76017
700.9989	0.2	twx	73	verb	phrase	2	2	nomatch	tard	-1	1	y	0.76017
701.1988	0.0	+	73	verb	phrase	2	3	nomatch	tard	-1	1	y	0.76017
701.5987	0.2	vhrw	73	verb	phrase	2	4	nomatch	tard	-1	1	y	0.76017
701.7986	0.0	+	73	verb	phrase	2	5	nomatch	tard	-1	1	y	0.76017
702.1984	0.2	trzk	73	verb	phrase	2	6	nomatch	tard	-1	1	y	0.76017
702.3983000000001	0.0	+	73	verb	phrase	2	7	nomatch	tard	-1	1	y	0.76017
702.7981	0.2	plus	73	verb	phrase	2	8	nomatch	tard	-1	1	y	0.76017
702.998	0.0	+	73	verb	phrase	2	9	nomatch	tard	-1	1	y	0.76017
703.3979	0.2	plonger	73	verb	phrase	2	10	nomatch	tard	-1	1	y	0.76017
703.5978	0.0	+	73	verb	phrase	2	11	nomatch	tard	-1	1	y	0.76017
703.9976	0.0	+	73	verb	phrase	2	12	nomatch	tard	-1	1	y	0.76017
705.9968	0.0	TARD	73	verb	phrase	2	13	nomatch	tard	-1	1	y	0.76017
706.8098	0.0	+	73	verb	phrase	2	14	nomatch	tard	-1	1	y	0.76017
706.7570000000001	0.0	[response]	73	verb	phrase	2	15	nomatch	tard	-1	1	y	0.76017
708.3824	0.0	+	74	verb	phrase	4	1	match	peut	3	1	p	0.82932
708.9422000000001	0.2	wzbqrhl	74	verb	phrase	4	2	match	peut	3	1	p	0.82932
709.1421	0.0	+	74	verb	phrase	4	3	match	peut	3	1	p	0.82932
709.5419	0.2	paul	74	verb	phrase	4	4	match	peut	3	1	p	0.82932
709.7419	0.0	+	74	verb	phrase	4	5	match	peut	3	1	p	0.82932
710.1417	0.2	peut	74	verb	phrase	4	6	match	peut	3	1	p	0.82932
710.3416	0.0	+	74	verb	phrase	4	7	match	peut	3	1	p	0.82932
710.7414	0.2	jongler	74	verb	phrase	4	8	match	peut	3	1	p	0.82932
710.9413000000001	0.0	+	74	verb	phrase	4	9	match	peut	3	1	p	0.82932
711.3412	0.2	tôt	74	verb	phrase	4	10	match	peut	3	1	p	0.82932
711.5411	0.0	+	74	verb	phrase	4	11	match	peut	3	1	p	0.82932
711.9409	0.0	+	74	verb	phrase	4	12	match	peut	3	1	p	0.82932
713.9401	0.0	PEUT	74	verb	phrase	4	13	match	peut	3	1	p	0.82932
714.8196	0.0	+	74	verb	phrase	4	14	match	peut	3	1	p	0.82932
714.7694	0.0	[response]	74	verb	phrase	4	15	match	peut	3	1	p	0.82932
716.3391	0.0	+	75	verb	list	2	1	match	rouge	5	1	p	0.9372100000000001
716.8988	0.2	kclxtf	75	verb	list	2	2	match	rouge	5	1	p	0.9372100000000001
717.0986	0.0	+	75	verb	list	2	3	match	rouge	5	1	p	0.9372100000000001
717.4985	0.2	trvp	75	verb	list	2	4	match	rouge	5	1	p	0.9372100000000001
717.6985	0.0	+	75	verb	list	2	5	match	rouge	5	1	p	0.9372100000000001
718.0983	0.2	vpc	75	verb	list	2	6	match	rouge	5	1	p	0.9372100000000001
718.2982000000001	0.0	+	75	verb	list	2	7	match	rouge	5	1	p	0.9372100000000001
718.698	0.2	plonger	75	verb	list	2	8	match	rouge	5	1	p	0.9372100000000001
718.8979	0.0	+	75	verb	list	2	9	match	rouge	5	1	p	0.9372100000000001
719.2978	0.2	rouge	75	verb	list	2	10	match	rouge	5	1	p	0.9372100000000001
719.4977	0.0	+	75	verb	list	2	11	match	rouge	5	1	p	0.9372100000000001
719.8975	0.0	+	75	verb	list	2	12	match	rouge	5	1	p	0.9372100000000001
721.8967	0.0	ROUGE	75	verb	list	2	13	match	rouge	5	1	p	0.9372100000000001
722.8829000000001	0.0	+	75	verb	list	2	14	match	rouge	5	1	p	0.9372100000000001
722.8339	0.0	[response]	75	verb	list	2	15	match	rouge	5	1	p	0.9372100000000001
724.2823	0.0	+	76	verb	phrase	1	1	nomatch	moins	-1	1	y	0.75626
724.8421	0.2	sjdbqh	76	verb	phrase	1	2	nomatch	moins	-1	1	y	0.75626
725.042	0.0	+	76	verb	phrase	1	3	nomatch	moins	-1	1	y	0.75626
725.4419	0.2	bdrm	76	verb	phrase	1	4	nomatch	moins	-1	1	y	0.75626
725.6418	0.0	+	76	verb	phrase	1	5	nomatch	moins	-1	1	y	0.75626
726.0416	0.2	kq	76	verb	phrase	1	6	nomatch	moins	-1	1	y	0.75626
726.2415	0.0	+	76	verb	phrase	1	7	nomatch	moins	-1	1	y	0.75626
726.6413	0.2	xhwmqlt	76	verb	phrase	1	8	nomatch	moins	-1	1	y	0.75626
726.8412	0.0	+	76	verb	phrase	1	9	nomatch	moins	-1	1	y	0.75626
727.2411	0.2	mieux	76	verb	phrase	1	10	nomatch	moins	-1	1	y	0.75626
727.4409	0.0	+	76	verb	phrase	1	11	nomatch	moins	-1	1	y	0.75626
727.8408000000001	0.0	+	76	verb	phrase	1	12	nomatch	moins	-1	1	y	0.75626
729.84	0.0	MOINS	76	verb	phrase	1	13	nomatch	moins	-1	1	y	0.75626
730.6397000000001	0.0	+	76	verb	phrase	1	14	nomatch	moins	-1	1	y	0.75626
730.5962000000001	0.0	[response]	76	verb	phrase	1	15	nomatch	moins	-1	1	y	0.75626
732.239	0.0	+	77	verb	list	1	1	nomatch	galoper	-1	1	y	0.5925
732.7987	0.2	pvcgsl	77	verb	list	1	2	nomatch	galoper	-1	1	y	0.5925
732.9986	0.0	+	77	verb	list	1	3	nomatch	galoper	-1	1	y	0.5925
733.3985	0.2	bmnq	77	verb	list	1	4	nomatch	galoper	-1	1	y	0.5925
733.5984	0.0	+	77	verb	list	1	5	nomatch	galoper	-1	1	y	0.5925
733.9982	0.2	szxj	77	verb	list	1	6	nomatch	galoper	-1	1	y	0.5925
734.198	0.0	+	77	verb	list	1	7	nomatch	galoper	-1	1	y	0.5925
734.5979	0.2	hsjqf	77	verb	list	1	8	nomatch	galoper	-1	1	y	0.5925
734.7979	0.0	+	77	verb	list	1	9	nomatch	galoper	-1	1	y	0.5925
735.1977	0.2	chasser	77	verb	list	1	10	nomatch	galoper	-1	1	y	0.5925
735.3976	0.0	+	77	verb	list	1	11	nomatch	galoper	-1	1	y	0.5925
735.7975	0.0	+	77	verb	list	1	12	nomatch	galoper	-1	1	y	0.5925
737.7966	0.0	GALOPER	77	verb	list	1	13	nomatch	galoper	-1	1	y	0.5925
738.4362	0.0	+	77	verb	list	1	14	nomatch	galoper	-1	1	y	0.5925
738.3891	0.0	[response]	77	verb	list	1	15	nomatch	galoper	-1	1	y	0.5925
740.1823	0.0	+	78	noun	phrase	1	1	nomatch	grand	-1	1	y	0.76658
740.742	0.2	cmtjfkz	78	noun	phrase	1	2	nomatch	grand	-1	1	y	0.76658
740.9419	0.0	+	78	noun	phrase	1	3	nomatch	grand	-1	1	y	0.76658
741.3418	0.2	hqkz	78	noun	phrase	1	4	nomatch	grand	-1	1	y	0.76658
741.5417	0.0	+	78	noun	phrase	1	5	nomatch	grand	-1	1	y	0.76658
741.9415	0.2	qmj	78	noun	phrase	1	6	nomatch	grand	-1	1	y	0.76658
742.1414	0.0	+	78	noun	phrase	1	7	nomatch	grand	-1	1	y	0.76658
742.5412	0.2	wkchfqj	78	noun	phrase	1	8	nomatch	grand	-1	1	y	0.76658
742.7412	0.0	+	78	noun	phrase	1	9	nomatch	grand	-1	1	y	0.76658
743.141	0.2	nouveau	78	noun	phrase	1	10	nomatch	grand	-1	1	y	0.76658
743.3409	0.0	+	78	noun	phrase	1	11	nomatch	grand	-1	1	y	0.76658
743.7408	0.0	+	78	noun	phrase	1	12	nomatch	grand	-1	1	y	0.76658
745.7398000000001	0.0	GRAND	78	noun	phrase	1	13	nomatch	grand	-1	1	y	0.76658
746.5528	0.0	+	78	noun	phrase	1	14	nomatch	grand	-1	1	y	0.76658
746.5064000000001	0.0	[response]	78	noun	phrase	1	15	nomatch	grand	-1	1	y	0.76658
748.1389	0.0	+	79	verb	list	4	1	nomatch	beaucoup	-1	1	y	0.94602
748.6986	0.2	gcsmn	79	verb	list	4	2	nomatch	beaucoup	-1	1	y	0.94602
748.8985	0.0	+	79	verb	list	4	3	nomatch	beaucoup	-1	1	y	0.94602
749.2984	0.2	jade	79	verb	list	4	4	nomatch	beaucoup	-1	1	y	0.94602
749.4983	0.0	+	79	verb	list	4	5	nomatch	beaucoup	-1	1	y	0.94602
749.8981	0.2	leur	79	verb	list	4	6	nomatch	beaucoup	-1	1	y	0.94602
750.0980000000001	0.0	+	79	verb	list	4	7	nomatch	beaucoup	-1	1	y	0.94602
750.4979	0.2	patiner	79	verb	list	4	8	nomatch	beaucoup	-1	1	y	0.94602
750.6977	0.0	+	79	verb	list	4	9	nomatch	beaucoup	-1	1	y	0.94602
751.0976	0.2	blanc	79	verb	list	4	10	nomatch	beaucoup	-1	1	y	0.94602
751.2975	0.0	+	79	verb	list	4	11	nomatch	beaucoup	-1	1	y	0.94602
751.6974	0.0	+	79	verb	list	4	12	nomatch	beaucoup	-1	1	y	0.94602
753.6965	0.0	BEAUCOUP	79	verb	list	4	13	nomatch	beaucoup	-1	1	y	0.94602
754.6959	0.0	+	79	verb	list	4	14	nomatch	beaucoup	-1	1	y	0.94602
754.6425	0.0	[response]	79	verb	list	4	15	nomatch	beaucoup	-1	1	y	0.94602
756.0821	0.0	+	80	verb	phrase	1	1	match	plus	5	1	p	0.85609
756.642	0.2	hnvxfb	80	verb	phrase	1	2	match	plus	5	1	p	0.85609
756.8418	0.0	+	80	verb	phrase	1	3	match	plus	5	1	p	0.85609
757.2417	0.2	bdrm	80	verb	phrase	1	4	match	plus	5	1	p	0.85609
757.4416	0.0	+	80	verb	phrase	1	5	match	plus	5	1	p	0.85609
757.8414	0.2	szxj	80	verb	phrase	1	6	match	plus	5	1	p	0.85609
758.0414000000001	0.0	+	80	verb	phrase	1	7	match	plus	5	1	p	0.85609
758.4412	0.2	xtsjdfm	80	verb	phrase	1	8	match	plus	5	1	p	0.85609
758.6411	0.0	+	80	verb	phrase	1	9	match	plus	5	1	p	0.85609
759.0409	0.2	plus	80	verb	phrase	1	10	match	plus	5	1	p	0.85609
759.2408	0.0	+	80	verb	phrase	1	11	match	plus	5	1	p	0.85609
759.6406000000001	0.0	+	80	verb	phrase	1	12	match	plus	5	1	p	0.85609
761.6398	0.0	PLUS	80	verb	phrase	1	13	match	plus	5	1	p	0.85609
762.546	0.0	+	80	verb	phrase	1	14	match	plus	5	1	p	0.85609
764.0388	0.0	+	80	verb	phrase	1	15	match	plus	5	1	p	0.85609
764.9849	0.0	+	80	verb	phrase	1	16	match	plus	5	1	p	0.85609
765.0783	0.0	+	80	verb	phrase	1	17	match	plus	5	1	p	0.85609
766.4909	0.0	+	80	verb	phrase	1	18	match	plus	5	1	p	0.85609
766.5843	0.0	+	80	verb	phrase	1	19	match	plus	5	1	p	0.85609
767.9836	0.0	+	80	verb	phrase	1	20	match	plus	5	1	p	0.85609
768.0771	0.0	+	80	verb	phrase	1	21	match	plus	5	1	p	0.85609
769.4897	0.0	+	80	verb	phrase	1	22	match	plus	5	1	p	0.85609
769.5831000000001	0.0	+	80	verb	phrase	1	23	match	plus	5	1	p	0.85609
770.9823	0.0	+	80	verb	phrase	1	24	match	plus	5	1	p	0.85609
771.0757	0.0	+	80	verb	phrase	1	25	match	plus	5	1	p	0.85609
772.4883	0.0	+	80	verb	phrase	1	26	match	plus	5	1	p	0.85609
772.5818	0.0	+	80	verb	phrase	1	27	match	plus	5	1	p	0.85609
773.9811	0.0	+	80	verb	phrase	1	28	match	plus	5	1	p	0.85609
774.0745000000001	0.0	+	80	verb	phrase	1	29	match	plus	5	1	p	0.85609
775.4871	0.0	+	80	verb	phrase	1	30	match	plus	5	1	p	0.85609
775.5806	0.0	+	80	verb	phrase	1	31	match	plus	5	1	p	0.85609
776.9798000000001	0.0	+	80	verb	phrase	1	32	match	plus	5	1	p	0.85609
777.0732	0.0	+	80	verb	phrase	1	33	match	plus	5	1	p	0.85609
778.4858	0.0	+	80	verb	phrase	1	34	match	plus	5	1	p	0.85609
778.5793	0.0	+	80	verb	phrase	1	35	match	plus	5	1	p	0.85609
788.335	0.0	+	80	verb	phrase	1	36	match	plus	5	1	p	0.85609
762.4959	0.0	[response]	80	verb	phrase	1	37	match	plus	5	1	p	0.85609
