onset	duration	stim	trial_number	trial_type	trial_structure	trial_length	sequential_position	probe_type	probe	probe_position	response_correct	response_key	response_time
0.0589999999999975	0.0	+	1	noun	phrase	1	1	match	blanc	5	1	p	0.45362
0.5420999999999978	0.2	bxkg	1	noun	phrase	1	2	match	blanc	5	1	p	0.45362
0.7419999999999973	0.0	+	1	noun	phrase	1	3	match	blanc	5	1	p	0.45362
1.1417999999999964	0.2	skml	1	noun	phrase	1	4	match	blanc	5	1	p	0.45362
1.341699999999996	0.0	+	1	noun	phrase	1	5	match	blanc	5	1	p	0.45362
1.7415999999999983	0.2	wbn	1	noun	phrase	1	6	match	blanc	5	1	p	0.45362
1.9414999999999978	0.0	+	1	noun	phrase	1	7	match	blanc	5	1	p	0.45362
2.341299999999997	0.2	njchwpdb	1	noun	phrase	1	8	match	blanc	5	1	p	0.45362
2.5411999999999964	0.0	+	1	noun	phrase	1	9	match	blanc	5	1	p	0.45362
2.9409999999999954	0.2	blanc	1	noun	phrase	1	10	match	blanc	5	1	p	0.45362
3.140899999999995	0.0	+	1	noun	phrase	1	11	match	blanc	5	1	p	0.45362
3.5407999999999973	0.0	+	1	noun	phrase	1	12	match	blanc	5	1	p	0.45362
5.539899999999996	0.0	BLANC	1	noun	phrase	1	13	match	blanc	5	1	p	0.45362
6.0563	0.0	+	1	noun	phrase	1	14	match	blanc	5	1	p	0.45362
5.9935000000000045	0.0	[response]	1	noun	phrase	1	15	match	blanc	5	1	p	0.45362
7.938799999999993	0.0	+	2	noun	list	1	1	nomatch	adam	-1	1	y	0.53946
8.488599999999998	0.2	dlh	2	noun	list	1	2	nomatch	adam	-1	1	y	0.53946
8.688499999999998	0.0	+	2	noun	list	1	3	nomatch	adam	-1	1	y	0.53946
9.088299999999997	0.2	rjbt	2	noun	list	1	4	nomatch	adam	-1	1	y	0.53946
9.288199999999996	0.0	+	2	noun	list	1	5	nomatch	adam	-1	1	y	0.53946
9.687999999999995	0.2	hjw	2	noun	list	1	6	nomatch	adam	-1	1	y	0.53946
9.887899999999995	0.0	+	2	noun	list	1	7	nomatch	adam	-1	1	y	0.53946
10.287699999999994	0.2	rkvz	2	noun	list	1	8	nomatch	adam	-1	1	y	0.53946
10.487699999999997	0.0	+	2	noun	list	1	9	nomatch	adam	-1	1	y	0.53946
10.887499999999996	0.2	clavier	2	noun	list	1	10	nomatch	adam	-1	1	y	0.53946
11.087399999999995	0.0	+	2	noun	list	1	11	nomatch	adam	-1	1	y	0.53946
11.487199999999994	0.0	+	2	noun	list	1	12	nomatch	adam	-1	1	y	0.53946
13.486299999999993	0.0	ADAM	2	noun	list	1	13	nomatch	adam	-1	1	y	0.53946
14.085999999999991	0.0	+	2	noun	list	1	14	nomatch	adam	-1	1	y	0.53946
14.025800000000011	0.0	[response]	2	noun	list	1	15	nomatch	adam	-1	1	y	0.53946
15.885299999999994	0.0	+	3	noun	list	1	1	match	plus	5	1	p	0.49169
16.434999999999995	0.2	hrbmksc	3	noun	list	1	2	match	plus	5	1	p	0.49169
16.634899999999995	0.0	+	3	noun	list	1	3	match	plus	5	1	p	0.49169
17.034699999999994	0.2	cqx	3	noun	list	1	4	match	plus	5	1	p	0.49169
17.234699999999997	0.0	+	3	noun	list	1	5	match	plus	5	1	p	0.49169
17.634499999999996	0.2	wbn	3	noun	list	1	6	match	plus	5	1	p	0.49169
17.834399999999995	0.0	+	3	noun	list	1	7	match	plus	5	1	p	0.49169
18.234199999999994	0.2	ftndwlq	3	noun	list	1	8	match	plus	5	1	p	0.49169
18.434099999999994	0.0	+	3	noun	list	1	9	match	plus	5	1	p	0.49169
18.833899999999993	0.2	plus	3	noun	list	1	10	match	plus	5	1	p	0.49169
19.033799999999992	0.0	+	3	noun	list	1	11	match	plus	5	1	p	0.49169
19.433699999999995	0.0	+	3	noun	list	1	12	match	plus	5	1	p	0.49169
21.449400000000004	0.0	PLUS	3	noun	list	1	13	match	plus	5	1	p	0.49169
21.999199999999995	0.0	+	3	noun	list	1	14	match	plus	5	1	p	0.49169
21.9411	0.0	[response]	3	noun	list	1	15	match	plus	5	1	p	0.49169
23.84839999999999	0.0	+	4	verb	list	3	1	match	rouler	4	1	p	0.59524
24.398099999999992	0.2	brghpv	4	verb	list	3	2	match	rouler	4	1	p	0.59524
24.597999999999992	0.0	+	4	verb	list	3	3	match	rouler	4	1	p	0.59524
24.99779999999999	0.2	lnqh	4	verb	list	3	4	match	rouler	4	1	p	0.59524
25.197799999999994	0.0	+	4	verb	list	3	5	match	rouler	4	1	p	0.59524
25.597599999999993	0.2	mon	4	verb	list	3	6	match	rouler	4	1	p	0.59524
25.797499999999992	0.0	+	4	verb	list	3	7	match	rouler	4	1	p	0.59524
26.19729999999999	0.2	rouler	4	verb	list	3	8	match	rouler	4	1	p	0.59524
26.39719999999999	0.0	+	4	verb	list	3	9	match	rouler	4	1	p	0.59524
26.797000000000004	0.2	blanc	4	verb	list	3	10	match	rouler	4	1	p	0.59524
26.996900000000004	0.0	+	4	verb	list	3	11	match	rouler	4	1	p	0.59524
27.396799999999992	0.0	+	4	verb	list	3	12	match	rouler	4	1	p	0.59524
29.395900000000005	0.0	ROULER	4	verb	list	3	13	match	rouler	4	1	p	0.59524
30.0456	0.0	+	4	verb	list	3	14	match	rouler	4	1	p	0.59524
29.991099999999996	0.0	[response]	4	verb	list	3	15	match	rouler	4	1	p	0.59524
31.794800000000002	0.0	+	5	noun	phrase	3	1	nomatch	vert	-1	1	y	0.55926
32.34459999999999	0.2	mwqfv	5	noun	phrase	3	2	nomatch	vert	-1	1	y	0.55926
32.54449999999999	0.0	+	5	noun	phrase	3	3	nomatch	vert	-1	1	y	0.55926
32.94429999999999	0.2	skml	5	noun	phrase	3	4	nomatch	vert	-1	1	y	0.55926
33.14419999999999	0.0	+	5	noun	phrase	3	5	nomatch	vert	-1	1	y	0.55926
33.544000000000004	0.2	leur	5	noun	phrase	3	6	nomatch	vert	-1	1	y	0.55926
33.743900000000004	0.0	+	5	noun	phrase	3	7	nomatch	vert	-1	1	y	0.55926
34.14379999999999	0.2	boîtier	5	noun	phrase	3	8	nomatch	vert	-1	1	y	0.55926
34.34369999999999	0.0	+	5	noun	phrase	3	9	nomatch	vert	-1	1	y	0.55926
34.743500000000004	0.2	bleu	5	noun	phrase	3	10	nomatch	vert	-1	1	y	0.55926
34.943400000000004	0.0	+	5	noun	phrase	3	11	nomatch	vert	-1	1	y	0.55926
35.3432	0.0	+	5	noun	phrase	3	12	nomatch	vert	-1	1	y	0.55926
37.3423	0.0	VERT	5	noun	phrase	3	13	nomatch	vert	-1	1	y	0.55926
37.9587	0.0	+	5	noun	phrase	3	14	nomatch	vert	-1	1	y	0.55926
37.901599999999995	0.0	[response]	5	noun	phrase	3	15	nomatch	vert	-1	1	y	0.55926
39.7413	0.0	+	6	noun	phrase	3	1	match	rouge	5	1	p	0.48983
40.291000000000004	0.2	mlvdq	6	noun	phrase	3	2	match	rouge	5	1	p	0.48983
40.4909	0.0	+	6	noun	phrase	3	3	match	rouge	5	1	p	0.48983
40.8907	0.2	qrdf	6	noun	phrase	3	4	match	rouge	5	1	p	0.48983
41.09069999999999	0.0	+	6	noun	phrase	3	5	match	rouge	5	1	p	0.48983
41.490500000000004	0.2	son	6	noun	phrase	3	6	match	rouge	5	1	p	0.48983
41.690400000000004	0.0	+	6	noun	phrase	3	7	match	rouge	5	1	p	0.48983
42.0902	0.2	casier	6	noun	phrase	3	8	match	rouge	5	1	p	0.48983
42.2901	0.0	+	6	noun	phrase	3	9	match	rouge	5	1	p	0.48983
42.6899	0.2	rouge	6	noun	phrase	3	10	match	rouge	5	1	p	0.48983
42.889900000000004	0.0	+	6	noun	phrase	3	11	match	rouge	5	1	p	0.48983
43.2897	0.0	+	6	noun	phrase	3	12	match	rouge	5	1	p	0.48983
45.2888	0.0	ROUGE	6	noun	phrase	3	13	match	rouge	5	1	p	0.48983
45.8385	0.0	+	6	noun	phrase	3	14	match	rouge	5	1	p	0.48983
45.778600000000004	0.0	[response]	6	noun	phrase	3	15	match	rouge	5	1	p	0.48983
47.6877	0.0	+	7	noun	phrase	2	1	nomatch	voilier	-1	1	y	0.74382
48.237500000000004	0.2	lmjqg	7	noun	phrase	2	2	nomatch	voilier	-1	1	y	0.74382
48.437400000000004	0.0	+	7	noun	phrase	2	3	nomatch	voilier	-1	1	y	0.74382
48.8372	0.2	jqzp	7	noun	phrase	2	4	nomatch	voilier	-1	1	y	0.74382
49.0371	0.0	+	7	noun	phrase	2	5	nomatch	voilier	-1	1	y	0.74382
49.4369	0.2	wbn	7	noun	phrase	2	6	nomatch	voilier	-1	1	y	0.74382
49.6368	0.0	+	7	noun	phrase	2	7	nomatch	voilier	-1	1	y	0.74382
50.0367	0.2	nouveau	7	noun	phrase	2	8	nomatch	voilier	-1	1	y	0.74382
50.2366	0.0	+	7	noun	phrase	2	9	nomatch	voilier	-1	1	y	0.74382
50.6364	0.2	tablier	7	noun	phrase	2	10	nomatch	voilier	-1	1	y	0.74382
50.8363	0.0	+	7	noun	phrase	2	11	nomatch	voilier	-1	1	y	0.74382
51.2361	0.0	+	7	noun	phrase	2	12	nomatch	voilier	-1	1	y	0.74382
53.2352	0.0	VOILIER	7	noun	phrase	2	13	nomatch	voilier	-1	1	y	0.74382
54.0349	0.0	+	7	noun	phrase	2	14	nomatch	voilier	-1	1	y	0.74382
53.979099999999995	0.0	[response]	7	noun	phrase	2	15	nomatch	voilier	-1	1	y	0.74382
55.6342	0.0	+	8	verb	list	1	1	nomatch	chasser	-1	1	y	0.72102
56.184099999999994	0.2	vzxg	8	verb	list	1	2	nomatch	chasser	-1	1	y	0.72102
56.3838	0.0	+	8	verb	list	1	3	nomatch	chasser	-1	1	y	0.72102
56.7837	0.2	nlxv	8	verb	list	1	4	nomatch	chasser	-1	1	y	0.72102
56.9836	0.0	+	8	verb	list	1	5	nomatch	chasser	-1	1	y	0.72102
57.4	0.2	hjw	8	verb	list	1	6	nomatch	chasser	-1	1	y	0.72102
57.6	0.0	+	8	verb	list	1	7	nomatch	chasser	-1	1	y	0.72102
57.9998	0.2	gxhcj	8	verb	list	1	8	nomatch	chasser	-1	1	y	0.72102
58.1997	0.0	+	8	verb	list	1	9	nomatch	chasser	-1	1	y	0.72102
58.5995	0.2	jongler	8	verb	list	1	10	nomatch	chasser	-1	1	y	0.72102
58.7994	0.0	+	8	verb	list	1	11	nomatch	chasser	-1	1	y	0.72102
59.1992	0.0	+	8	verb	list	1	12	nomatch	chasser	-1	1	y	0.72102
61.198299999999996	0.0	CHASSER	8	verb	list	1	13	nomatch	chasser	-1	1	y	0.72102
61.9813	0.0	+	8	verb	list	1	14	nomatch	chasser	-1	1	y	0.72102
61.91940000000002	0.0	[response]	8	verb	list	1	15	nomatch	chasser	-1	1	y	0.72102
63.5973	0.0	+	9	verb	phrase	3	1	nomatch	nouveau	-1	1	y	0.5758200000000001
64.14699999999999	0.2	rgjx	9	verb	phrase	3	2	nomatch	nouveau	-1	1	y	0.5758200000000001
64.3469	0.0	+	9	verb	phrase	3	3	nomatch	nouveau	-1	1	y	0.5758200000000001
64.74680000000001	0.2	dkcf	9	verb	phrase	3	4	nomatch	nouveau	-1	1	y	0.5758200000000001
64.94669999999999	0.0	+	9	verb	phrase	3	5	nomatch	nouveau	-1	1	y	0.5758200000000001
65.34649999999999	0.2	doit	9	verb	phrase	3	6	nomatch	nouveau	-1	1	y	0.5758200000000001
65.5464	0.0	+	9	verb	phrase	3	7	nomatch	nouveau	-1	1	y	0.5758200000000001
65.9462	0.2	trop	9	verb	phrase	3	8	nomatch	nouveau	-1	1	y	0.5758200000000001
66.14609999999999	0.0	+	9	verb	phrase	3	9	nomatch	nouveau	-1	1	y	0.5758200000000001
66.54599999999999	0.2	nager	9	verb	phrase	3	10	nomatch	nouveau	-1	1	y	0.5758200000000001
66.7459	0.0	+	9	verb	phrase	3	11	nomatch	nouveau	-1	1	y	0.5758200000000001
67.1457	0.0	+	9	verb	phrase	3	12	nomatch	nouveau	-1	1	y	0.5758200000000001
69.1448	0.0	NOUVEAU	9	verb	phrase	3	13	nomatch	nouveau	-1	1	y	0.5758200000000001
69.77779999999998	0.0	+	9	verb	phrase	3	14	nomatch	nouveau	-1	1	y	0.5758200000000001
69.72059999999999	0.0	[response]	9	verb	phrase	3	15	nomatch	nouveau	-1	1	y	0.5758200000000001
71.5437	0.0	+	10	noun	phrase	4	1	match	dans	2	1	p	0.51466
72.09349999999998	0.2	tqpzn	10	noun	phrase	4	2	match	dans	2	1	p	0.51466
72.29339999999999	0.0	+	10	noun	phrase	4	3	match	dans	2	1	p	0.51466
72.69319999999999	0.2	dans	10	noun	phrase	4	4	match	dans	2	1	p	0.51466
72.8931	0.0	+	10	noun	phrase	4	5	match	dans	2	1	p	0.51466
73.29299999999998	0.2	son	10	noun	phrase	4	6	match	dans	2	1	p	0.51466
73.49289999999999	0.0	+	10	noun	phrase	4	7	match	dans	2	1	p	0.51466
73.89269999999999	0.2	grand	10	noun	phrase	4	8	match	dans	2	1	p	0.51466
74.0926	0.0	+	10	noun	phrase	4	9	match	dans	2	1	p	0.51466
74.4924	0.2	boîtier	10	noun	phrase	4	10	match	dans	2	1	p	0.51466
74.69229999999999	0.0	+	10	noun	phrase	4	11	match	dans	2	1	p	0.51466
75.09209999999999	0.0	+	10	noun	phrase	4	12	match	dans	2	1	p	0.51466
77.09119999999999	0.0	DANS	10	noun	phrase	4	13	match	dans	2	1	p	0.51466
77.65769999999998	0.0	+	10	noun	phrase	4	14	match	dans	2	1	p	0.51466
77.60589999999999	0.0	[response]	10	noun	phrase	4	15	match	dans	2	1	p	0.51466
79.49019999999999	0.0	+	11	verb	phrase	1	1	match	jongler	5	1	p	0.47779000000000005
80.03989999999999	0.2	kncdq	11	verb	phrase	1	2	match	jongler	5	1	p	0.47779000000000005
80.2398	0.0	+	11	verb	phrase	1	3	match	jongler	5	1	p	0.47779000000000005
80.63969999999998	0.2	rjbt	11	verb	phrase	1	4	match	jongler	5	1	p	0.47779000000000005
80.83959999999999	0.0	+	11	verb	phrase	1	5	match	jongler	5	1	p	0.47779000000000005
81.23939999999999	0.2	vcpx	11	verb	phrase	1	6	match	jongler	5	1	p	0.47779000000000005
81.4393	0.0	+	11	verb	phrase	1	7	match	jongler	5	1	p	0.47779000000000005
81.8391	0.2	wvmbtgds	11	verb	phrase	1	8	match	jongler	5	1	p	0.47779000000000005
82.03899999999999	0.0	+	11	verb	phrase	1	9	match	jongler	5	1	p	0.47779000000000005
82.43889999999999	0.2	jongler	11	verb	phrase	1	10	match	jongler	5	1	p	0.47779000000000005
82.6388	0.0	+	11	verb	phrase	1	11	match	jongler	5	1	p	0.47779000000000005
83.0386	0.0	+	11	verb	phrase	1	12	match	jongler	5	1	p	0.47779000000000005
85.0377	0.0	JONGLER	11	verb	phrase	1	13	match	jongler	5	1	p	0.47779000000000005
85.57079999999999	0.0	+	11	verb	phrase	1	14	match	jongler	5	1	p	0.47779000000000005
85.5155	0.0	[response]	11	verb	phrase	1	15	match	jongler	5	1	p	0.47779000000000005
87.4366	0.0	+	12	noun	list	1	1	nomatch	plus	-1	1	y	0.54602
87.9864	0.2	hrk	12	noun	list	1	2	nomatch	plus	-1	1	y	0.54602
88.18629999999999	0.0	+	12	noun	list	1	3	nomatch	plus	-1	1	y	0.54602
88.58609999999999	0.2	cqx	12	noun	list	1	4	nomatch	plus	-1	1	y	0.54602
88.786	0.0	+	12	noun	list	1	5	nomatch	plus	-1	1	y	0.54602
89.1858	0.2	smdc	12	noun	list	1	6	nomatch	plus	-1	1	y	0.54602
89.38579999999999	0.0	+	12	noun	list	1	7	nomatch	plus	-1	1	y	0.54602
89.78559999999999	0.2	tbmdjvk	12	noun	list	1	8	nomatch	plus	-1	1	y	0.54602
89.9855	0.0	+	12	noun	list	1	9	nomatch	plus	-1	1	y	0.54602
90.3853	0.2	moins	12	noun	list	1	10	nomatch	plus	-1	1	y	0.54602
90.58519999999999	0.0	+	12	noun	list	1	11	nomatch	plus	-1	1	y	0.54602
90.98499999999999	0.0	+	12	noun	list	1	12	nomatch	plus	-1	1	y	0.54602
92.98419999999999	0.0	PLUS	12	noun	list	1	13	nomatch	plus	-1	1	y	0.54602
93.5839	0.0	+	12	noun	list	1	14	nomatch	plus	-1	1	y	0.54602
93.53020000000001	0.0	[response]	12	noun	list	1	15	nomatch	plus	-1	1	y	0.54602
95.3997	0.0	+	13	noun	phrase	4	1	nomatch	tablier	-1	1	y	0.6212
95.9495	0.2	rnv	13	noun	phrase	4	2	nomatch	tablier	-1	1	y	0.6212
96.14939999999999	0.0	+	13	noun	phrase	4	3	nomatch	tablier	-1	1	y	0.6212
96.54919999999998	0.2	vers	13	noun	phrase	4	4	nomatch	tablier	-1	1	y	0.6212
96.7491	0.0	+	13	noun	phrase	4	5	nomatch	tablier	-1	1	y	0.6212
97.149	0.2	mon	13	noun	phrase	4	6	nomatch	tablier	-1	1	y	0.6212
97.34889999999999	0.0	+	13	noun	phrase	4	7	nomatch	tablier	-1	1	y	0.6212
97.74869999999999	0.2	petit	13	noun	phrase	4	8	nomatch	tablier	-1	1	y	0.6212
97.9486	0.0	+	13	noun	phrase	4	9	nomatch	tablier	-1	1	y	0.6212
98.3484	0.2	rocher	13	noun	phrase	4	10	nomatch	tablier	-1	1	y	0.6212
98.54829999999998	0.0	+	13	noun	phrase	4	11	nomatch	tablier	-1	1	y	0.6212
98.94819999999999	0.0	+	13	noun	phrase	4	12	nomatch	tablier	-1	1	y	0.6212
100.94729999999998	0.0	TABLIER	13	noun	phrase	4	13	nomatch	tablier	-1	1	y	0.6212
101.63029999999998	0.0	+	13	noun	phrase	4	14	nomatch	tablier	-1	1	y	0.6212
101.5685	0.0	[response]	13	noun	phrase	4	15	nomatch	tablier	-1	1	y	0.6212
103.34619999999998	0.0	+	14	verb	phrase	4	1	match	danser	5	1	p	0.72738
103.89599999999999	0.2	qxfrjd	14	verb	phrase	4	2	match	danser	5	1	p	0.72738
104.0959	0.0	+	14	verb	phrase	4	3	match	danser	5	1	p	0.72738
104.4957	0.2	adam	14	verb	phrase	4	4	match	danser	5	1	p	0.72738
104.69559999999998	0.0	+	14	verb	phrase	4	5	match	danser	5	1	p	0.72738
105.09539999999998	0.2	peut	14	verb	phrase	4	6	match	danser	5	1	p	0.72738
105.2953	0.0	+	14	verb	phrase	4	7	match	danser	5	1	p	0.72738
105.6951	0.2	beaucoup	14	verb	phrase	4	8	match	danser	5	1	p	0.72738
105.89509999999999	0.0	+	14	verb	phrase	4	9	match	danser	5	1	p	0.72738
106.29489999999998	0.2	danser	14	verb	phrase	4	10	match	danser	5	1	p	0.72738
106.4948	0.0	+	14	verb	phrase	4	11	match	danser	5	1	p	0.72738
106.8946	0.0	+	14	verb	phrase	4	12	match	danser	5	1	p	0.72738
108.8937	0.0	DANSER	14	verb	phrase	4	13	match	danser	5	1	p	0.72738
109.67669999999998	0.0	+	14	verb	phrase	4	14	match	danser	5	1	p	0.72738
109.62109999999998	0.0	[response]	14	verb	phrase	4	15	match	danser	5	1	p	0.72738
111.2926	0.0	+	15	noun	phrase	3	1	match	mon	3	1	p	0.54881
111.8424	0.2	rkb	15	noun	phrase	3	2	match	mon	3	1	p	0.54881
112.04229999999998	0.0	+	15	noun	phrase	3	3	match	mon	3	1	p	0.54881
112.44209999999998	0.2	qrdf	15	noun	phrase	3	4	match	mon	3	1	p	0.54881
112.642	0.0	+	15	noun	phrase	3	5	match	mon	3	1	p	0.54881
113.04209999999998	0.2	mon	15	noun	phrase	3	6	match	mon	3	1	p	0.54881
113.24179999999998	0.0	+	15	noun	phrase	3	7	match	mon	3	1	p	0.54881
113.64159999999998	0.2	petit	15	noun	phrase	3	8	match	mon	3	1	p	0.54881
113.8415	0.0	+	15	noun	phrase	3	9	match	mon	3	1	p	0.54881
114.2413	0.2	rocher	15	noun	phrase	3	10	match	mon	3	1	p	0.54881
114.44119999999998	0.0	+	15	noun	phrase	3	11	match	mon	3	1	p	0.54881
114.84109999999998	0.0	+	15	noun	phrase	3	12	match	mon	3	1	p	0.54881
116.84019999999998	0.0	MON	15	noun	phrase	3	13	match	mon	3	1	p	0.54881
117.45659999999998	0.0	+	15	noun	phrase	3	14	match	mon	3	1	p	0.54881
117.38899999999998	0.0	[response]	15	noun	phrase	3	15	match	mon	3	1	p	0.54881
119.23909999999998	0.0	+	16	noun	list	2	1	match	cendrier	5	1	p	0.45663
119.78879999999998	0.2	nkwgptb	16	noun	list	2	2	match	cendrier	5	1	p	0.45663
119.9888	0.0	+	16	noun	list	2	3	match	cendrier	5	1	p	0.45663
120.3886	0.2	nfzp	16	noun	list	2	4	match	cendrier	5	1	p	0.45663
120.58849999999998	0.0	+	16	noun	list	2	5	match	cendrier	5	1	p	0.45663
120.98829999999998	0.2	wbn	16	noun	list	2	6	match	cendrier	5	1	p	0.45663
121.1882	0.0	+	16	noun	list	2	7	match	cendrier	5	1	p	0.45663
121.588	0.2	beaucoup	16	noun	list	2	8	match	cendrier	5	1	p	0.45663
121.78799999999998	0.0	+	16	noun	list	2	9	match	cendrier	5	1	p	0.45663
122.18779999999998	0.2	cendrier	16	noun	list	2	10	match	cendrier	5	1	p	0.45663
122.3877	0.0	+	16	noun	list	2	11	match	cendrier	5	1	p	0.45663
122.7875	0.0	+	16	noun	list	2	12	match	cendrier	5	1	p	0.45663
124.78659999999999	0.0	CENDRIER	16	noun	list	2	13	match	cendrier	5	1	p	0.45663
125.3031	0.0	+	16	noun	list	2	14	match	cendrier	5	1	p	0.45663
125.2432	0.0	[response]	16	noun	list	2	15	match	cendrier	5	1	p	0.45663
127.18629999999999	0.0	+	17	noun	list	1	1	match	ainsi	5	1	p	0.4377
127.7353	0.2	znd	17	noun	list	1	2	match	ainsi	5	1	p	0.4377
127.93519999999998	0.0	+	17	noun	list	1	3	match	ainsi	5	1	p	0.4377
128.33499999999998	0.2	jqzp	17	noun	list	1	4	match	ainsi	5	1	p	0.4377
128.5349	0.0	+	17	noun	list	1	5	match	ainsi	5	1	p	0.4377
128.9348	0.2	fhjp	17	noun	list	1	6	match	ainsi	5	1	p	0.4377
129.13469999999998	0.0	+	17	noun	list	1	7	match	ainsi	5	1	p	0.4377
129.53449999999998	0.2	wfjcnhm	17	noun	list	1	8	match	ainsi	5	1	p	0.4377
129.7344	0.0	+	17	noun	list	1	9	match	ainsi	5	1	p	0.4377
130.1342	0.2	ainsi	17	noun	list	1	10	match	ainsi	5	1	p	0.4377
130.33409999999998	0.0	+	17	noun	list	1	11	match	ainsi	5	1	p	0.4377
130.73399999999998	0.0	+	17	noun	list	1	12	match	ainsi	5	1	p	0.4377
132.7497	0.0	AINSI	17	noun	list	1	13	match	ainsi	5	1	p	0.4377
133.24949999999998	0.0	+	17	noun	list	1	14	match	ainsi	5	1	p	0.4377
133.1874	0.0	[response]	17	noun	list	1	15	match	ainsi	5	1	p	0.4377
135.1487	0.0	+	18	noun	list	1	1	nomatch	rocher	-1	1	y	0.57959
135.6984	0.2	tvmd	18	noun	list	1	2	nomatch	rocher	-1	1	y	0.57959
135.89829999999998	0.0	+	18	noun	list	1	3	nomatch	rocher	-1	1	y	0.57959
136.29819999999998	0.2	cqx	18	noun	list	1	4	nomatch	rocher	-1	1	y	0.57959
136.4981	0.0	+	18	noun	list	1	5	nomatch	rocher	-1	1	y	0.57959
136.8979	0.2	hjw	18	noun	list	1	6	nomatch	rocher	-1	1	y	0.57959
137.09779999999998	0.0	+	18	noun	list	1	7	nomatch	rocher	-1	1	y	0.57959
137.49759999999998	0.2	nthrd	18	noun	list	1	8	nomatch	rocher	-1	1	y	0.57959
137.6975	0.0	+	18	noun	list	1	9	nomatch	rocher	-1	1	y	0.57959
138.0973	0.2	tablier	18	noun	list	1	10	nomatch	rocher	-1	1	y	0.57959
138.29729999999998	0.0	+	18	noun	list	1	11	nomatch	rocher	-1	1	y	0.57959
138.69709999999998	0.0	+	18	noun	list	1	12	nomatch	rocher	-1	1	y	0.57959
140.6962	0.0	ROCHER	18	noun	list	1	13	nomatch	rocher	-1	1	y	0.57959
141.3292	0.0	+	18	noun	list	1	14	nomatch	rocher	-1	1	y	0.57959
141.2758	0.0	[response]	18	noun	list	1	15	nomatch	rocher	-1	1	y	0.57959
143.0951	0.0	+	19	noun	list	4	1	match	dans	2	1	p	0.48211
143.64489999999998	0.2	kwhzdtv	19	noun	list	4	2	match	dans	2	1	p	0.48211
143.8448	0.0	+	19	noun	list	4	3	match	dans	2	1	p	0.48211
144.2446	0.2	dans	19	noun	list	4	4	match	dans	2	1	p	0.48211
144.44449999999998	0.0	+	19	noun	list	4	5	match	dans	2	1	p	0.48211
144.8443	0.2	doit	19	noun	list	4	6	match	dans	2	1	p	0.48211
145.0442	0.0	+	19	noun	list	4	7	match	dans	2	1	p	0.48211
145.4441	0.2	boîtier	19	noun	list	4	8	match	dans	2	1	p	0.48211
145.64399999999998	0.0	+	19	noun	list	4	9	match	dans	2	1	p	0.48211
146.0438	0.2	tard	19	noun	list	4	10	match	dans	2	1	p	0.48211
146.2437	0.0	+	19	noun	list	4	11	match	dans	2	1	p	0.48211
146.6435	0.0	+	19	noun	list	4	12	match	dans	2	1	p	0.48211
148.6426	0.0	DANS	19	noun	list	4	13	match	dans	2	1	p	0.48211
149.1924	0.0	+	19	noun	list	4	14	match	dans	2	1	p	0.48211
149.1247	0.0	[response]	19	noun	list	4	15	match	dans	2	1	p	0.48211
151.0416	0.0	+	20	noun	phrase	4	1	match	voilier	5	1	p	0.5220800000000001
151.5913	0.2	mlt	20	noun	phrase	4	2	match	voilier	5	1	p	0.5220800000000001
151.7912	0.0	+	20	noun	phrase	4	3	match	voilier	5	1	p	0.5220800000000001
152.191	0.2	sans	20	noun	phrase	4	4	match	voilier	5	1	p	0.5220800000000001
152.391	0.0	+	20	noun	phrase	4	5	match	voilier	5	1	p	0.5220800000000001
152.7908	0.2	leur	20	noun	phrase	4	6	match	voilier	5	1	p	0.5220800000000001
152.9907	0.0	+	20	noun	phrase	4	7	match	voilier	5	1	p	0.5220800000000001
153.3905	0.2	beau	20	noun	phrase	4	8	match	voilier	5	1	p	0.5220800000000001
153.5904	0.0	+	20	noun	phrase	4	9	match	voilier	5	1	p	0.5220800000000001
153.9903	0.2	voilier	20	noun	phrase	4	10	match	voilier	5	1	p	0.5220800000000001
154.1901	0.0	+	20	noun	phrase	4	11	match	voilier	5	1	p	0.5220800000000001
154.59	0.0	+	20	noun	phrase	4	12	match	voilier	5	1	p	0.5220800000000001
156.5891	0.0	VOILIER	20	noun	phrase	4	13	match	voilier	5	1	p	0.5220800000000001
157.1722	0.0	+	20	noun	phrase	4	14	match	voilier	5	1	p	0.5220800000000001
157.1112	0.0	[response]	20	noun	phrase	4	15	match	voilier	5	1	p	0.5220800000000001
158.988	0.0	+	21	noun	list	4	1	match	doit	3	1	p	0.55535
159.5378	0.2	tbj	21	noun	list	4	2	match	doit	3	1	p	0.55535
159.7377	0.0	+	21	noun	list	4	3	match	doit	3	1	p	0.55535
160.1375	0.2	sous	21	noun	list	4	4	match	doit	3	1	p	0.55535
160.3374	0.0	+	21	noun	list	4	5	match	doit	3	1	p	0.55535
160.7372	0.2	doit	21	noun	list	4	6	match	doit	3	1	p	0.55535
160.9371	0.0	+	21	noun	list	4	7	match	doit	3	1	p	0.55535
161.337	0.2	clavier	21	noun	list	4	8	match	doit	3	1	p	0.55535
161.5369	0.0	+	21	noun	list	4	9	match	doit	3	1	p	0.55535
161.9367	0.2	vite	21	noun	list	4	10	match	doit	3	1	p	0.55535
162.1366	0.0	+	21	noun	list	4	11	match	doit	3	1	p	0.55535
162.5364	0.0	+	21	noun	list	4	12	match	doit	3	1	p	0.55535
164.53549999999998	0.0	DOIT	21	noun	list	4	13	match	doit	3	1	p	0.55535
165.15189999999998	0.0	+	21	noun	list	4	14	match	doit	3	1	p	0.55535
165.09089999999998	0.0	[response]	21	noun	list	4	15	match	doit	3	1	p	0.55535
166.93449999999999	0.0	+	22	verb	phrase	3	1	match	ainsi	5	1	p	0.78779
167.4842	0.2	tvpnwsr	22	verb	phrase	3	2	match	ainsi	5	1	p	0.78779
167.6841	0.0	+	22	verb	phrase	3	3	match	ainsi	5	1	p	0.78779
168.0839	0.2	nlxv	22	verb	phrase	3	4	match	ainsi	5	1	p	0.78779
168.2839	0.0	+	22	verb	phrase	3	5	match	ainsi	5	1	p	0.78779
168.6837	0.2	va	22	verb	phrase	3	6	match	ainsi	5	1	p	0.78779
168.88379999999998	0.0	+	22	verb	phrase	3	7	match	ainsi	5	1	p	0.78779
169.3001	0.2	rouler	22	verb	phrase	3	8	match	ainsi	5	1	p	0.78779
169.5	0.0	+	22	verb	phrase	3	9	match	ainsi	5	1	p	0.78779
169.8998	0.2	ainsi	22	verb	phrase	3	10	match	ainsi	5	1	p	0.78779
170.09969999999998	0.0	+	22	verb	phrase	3	11	match	ainsi	5	1	p	0.78779
170.49949999999998	0.0	+	22	verb	phrase	3	12	match	ainsi	5	1	p	0.78779
172.49859999999998	0.0	AINSI	22	verb	phrase	3	13	match	ainsi	5	1	p	0.78779
173.3483	0.0	+	22	verb	phrase	3	14	match	ainsi	5	1	p	0.78779
173.2864	0.0	[response]	22	verb	phrase	3	15	match	ainsi	5	1	p	0.78779
174.89759999999998	0.0	+	23	noun	phrase	1	1	nomatch	casier	-1	1	y	0.57234
175.44729999999998	0.2	cjzfw	23	noun	phrase	1	2	nomatch	casier	-1	1	y	0.57234
175.6472	0.0	+	23	noun	phrase	1	3	nomatch	casier	-1	1	y	0.57234
176.0471	0.2	grd	23	noun	phrase	1	4	nomatch	casier	-1	1	y	0.57234
176.24699999999999	0.0	+	23	noun	phrase	1	5	nomatch	casier	-1	1	y	0.57234
176.64679999999998	0.2	wbn	23	noun	phrase	1	6	nomatch	casier	-1	1	y	0.57234
176.8467	0.0	+	23	noun	phrase	1	7	nomatch	casier	-1	1	y	0.57234
177.2465	0.2	tbmdjvk	23	noun	phrase	1	8	nomatch	casier	-1	1	y	0.57234
177.44639999999998	0.0	+	23	noun	phrase	1	9	nomatch	casier	-1	1	y	0.57234
177.84629999999999	0.2	beau	23	noun	phrase	1	10	nomatch	casier	-1	1	y	0.57234
178.0462	0.0	+	23	noun	phrase	1	11	nomatch	casier	-1	1	y	0.57234
178.446	0.0	+	23	noun	phrase	1	12	nomatch	casier	-1	1	y	0.57234
180.4451	0.0	CASIER	23	noun	phrase	1	13	nomatch	casier	-1	1	y	0.57234
181.07809999999998	0.0	+	23	noun	phrase	1	14	nomatch	casier	-1	1	y	0.57234
181.01739999999998	0.0	[response]	23	noun	phrase	1	15	nomatch	casier	-1	1	y	0.57234
182.844	0.0	+	24	noun	list	4	1	nomatch	bleu	-1	1	y	0.66987
183.3938	0.2	zcgqlw	24	noun	list	4	2	nomatch	bleu	-1	1	y	0.66987
183.59369999999998	0.0	+	24	noun	list	4	3	nomatch	bleu	-1	1	y	0.66987
183.99349999999998	0.2	yves	24	noun	list	4	4	nomatch	bleu	-1	1	y	0.66987
184.1934	0.0	+	24	noun	list	4	5	nomatch	bleu	-1	1	y	0.66987
184.5932	0.2	mon	24	noun	list	4	6	nomatch	bleu	-1	1	y	0.66987
184.79309999999998	0.0	+	24	noun	list	4	7	nomatch	bleu	-1	1	y	0.66987
185.19299999999998	0.2	moins	24	noun	list	4	8	nomatch	bleu	-1	1	y	0.66987
185.3929	0.0	+	24	noun	list	4	9	nomatch	bleu	-1	1	y	0.66987
185.7927	0.2	grenier	24	noun	list	4	10	nomatch	bleu	-1	1	y	0.66987
185.99259999999998	0.0	+	24	noun	list	4	11	nomatch	bleu	-1	1	y	0.66987
186.39239999999998	0.0	+	24	noun	list	4	12	nomatch	bleu	-1	1	y	0.66987
188.39159999999998	0.0	BLEU	24	noun	list	4	13	nomatch	bleu	-1	1	y	0.66987
189.12449999999998	0.0	+	24	noun	list	4	14	nomatch	bleu	-1	1	y	0.66987
189.06140000000002	0.0	[response]	24	noun	list	4	15	nomatch	bleu	-1	1	y	0.66987
198.7869	0.0	+	25	noun	phrase	1	1	match	tablier	5	1	p	0.52003
199.33669999999998	0.2	fsvdc	25	noun	phrase	1	2	match	tablier	5	1	p	0.52003
199.5366	0.0	+	25	noun	phrase	1	3	match	tablier	5	1	p	0.52003
199.93639999999996	0.2	dgph	25	noun	phrase	1	4	match	tablier	5	1	p	0.52003
200.13629999999998	0.0	+	25	noun	phrase	1	5	match	tablier	5	1	p	0.52003
200.5361	0.2	smdc	25	noun	phrase	1	6	match	tablier	5	1	p	0.52003
200.73600000000002	0.0	+	25	noun	phrase	1	7	match	tablier	5	1	p	0.52003
201.13589999999996	0.2	vblq	25	noun	phrase	1	8	match	tablier	5	1	p	0.52003
201.33579999999998	0.0	+	25	noun	phrase	1	9	match	tablier	5	1	p	0.52003
201.7356	0.2	tablier	25	noun	phrase	1	10	match	tablier	5	1	p	0.52003
201.93550000000002	0.0	+	25	noun	phrase	1	11	match	tablier	5	1	p	0.52003
202.3353	0.0	+	25	noun	phrase	1	12	match	tablier	5	1	p	0.52003
204.3344	0.0	TABLIER	25	noun	phrase	1	13	match	tablier	5	1	p	0.52003
204.9175	0.0	+	25	noun	phrase	1	14	match	tablier	5	1	p	0.52003
204.85439999999997	0.0	[response]	25	noun	phrase	1	15	match	tablier	5	1	p	0.52003
206.74999999999997	0.0	+	26	noun	phrase	1	1	match	noir	5	1	p	0.39677000000000007
207.29979999999998	0.2	dtgwhmr	26	noun	phrase	1	2	match	noir	5	1	p	0.39677000000000007
207.4997	0.0	+	26	noun	phrase	1	3	match	noir	5	1	p	0.39677000000000007
207.89950000000002	0.2	grd	26	noun	phrase	1	4	match	noir	5	1	p	0.39677000000000007
208.09939999999997	0.0	+	26	noun	phrase	1	5	match	noir	5	1	p	0.39677000000000007
208.4992	0.2	wbn	26	noun	phrase	1	6	match	noir	5	1	p	0.39677000000000007
208.69910000000002	0.0	+	26	noun	phrase	1	7	match	noir	5	1	p	0.39677000000000007
209.09900000000002	0.2	gktvfz	26	noun	phrase	1	8	match	noir	5	1	p	0.39677000000000007
209.29889999999997	0.0	+	26	noun	phrase	1	9	match	noir	5	1	p	0.39677000000000007
209.6987	0.2	noir	26	noun	phrase	1	10	match	noir	5	1	p	0.39677000000000007
209.89860000000002	0.0	+	26	noun	phrase	1	11	match	noir	5	1	p	0.39677000000000007
210.2984	0.0	+	26	noun	phrase	1	12	match	noir	5	1	p	0.39677000000000007
212.29749999999999	0.0	NOIR	26	noun	phrase	1	13	match	noir	5	1	p	0.39677000000000007
212.74729999999997	0.0	+	26	noun	phrase	1	14	match	noir	5	1	p	0.39677000000000007
212.69429999999997	0.0	[response]	26	noun	phrase	1	15	match	noir	5	1	p	0.39677000000000007
214.6965	0.0	+	27	verb	phrase	4	1	nomatch	doit	-1	1	y	0.80502
215.24620000000002	0.2	dfzjspn	27	verb	phrase	4	2	nomatch	doit	-1	1	y	0.80502
215.44609999999997	0.0	+	27	verb	phrase	4	3	nomatch	doit	-1	1	y	0.80502
215.8459	0.2	yves	27	verb	phrase	4	4	nomatch	doit	-1	1	y	0.80502
216.0459	0.0	+	27	verb	phrase	4	5	nomatch	doit	-1	1	y	0.80502
216.44570000000002	0.2	peut	27	verb	phrase	4	6	nomatch	doit	-1	1	y	0.80502
216.64559999999997	0.0	+	27	verb	phrase	4	7	nomatch	doit	-1	1	y	0.80502
217.0454	0.2	chasser	27	verb	phrase	4	8	nomatch	doit	-1	1	y	0.80502
217.24530000000001	0.0	+	27	verb	phrase	4	9	nomatch	doit	-1	1	y	0.80502
217.64520000000002	0.2	ainsi	27	verb	phrase	4	10	nomatch	doit	-1	1	y	0.80502
217.84509999999997	0.0	+	27	verb	phrase	4	11	nomatch	doit	-1	1	y	0.80502
218.2449	0.0	+	27	verb	phrase	4	12	nomatch	doit	-1	1	y	0.80502
220.244	0.0	DOIT	27	verb	phrase	4	13	nomatch	doit	-1	1	y	0.80502
221.11029999999997	0.0	+	27	verb	phrase	4	14	nomatch	doit	-1	1	y	0.80502
221.049	0.0	[response]	27	verb	phrase	4	15	nomatch	doit	-1	1	y	0.80502
222.64289999999997	0.0	+	28	noun	list	2	1	nomatch	tablier	-1	1	y	0.57028
223.19269999999997	0.2	dqwp	28	noun	list	2	2	nomatch	tablier	-1	1	y	0.57028
223.3926	0.0	+	28	noun	list	2	3	nomatch	tablier	-1	1	y	0.57028
223.79240000000001	0.2	qrdf	28	noun	list	2	4	nomatch	tablier	-1	1	y	0.57028
223.99229999999997	0.0	+	28	noun	list	2	5	nomatch	tablier	-1	1	y	0.57028
224.3921	0.2	th	28	noun	list	2	6	nomatch	tablier	-1	1	y	0.57028
224.592	0.0	+	28	noun	list	2	7	nomatch	tablier	-1	1	y	0.57028
224.99190000000002	0.2	rocher	28	noun	list	2	8	nomatch	tablier	-1	1	y	0.57028
225.19179999999997	0.0	+	28	noun	list	2	9	nomatch	tablier	-1	1	y	0.57028
225.5916	0.2	tôt	28	noun	list	2	10	nomatch	tablier	-1	1	y	0.57028
225.7915	0.0	+	28	noun	list	2	11	nomatch	tablier	-1	1	y	0.57028
226.19129999999998	0.0	+	28	noun	list	2	12	nomatch	tablier	-1	1	y	0.57028
228.19039999999998	0.0	TABLIER	28	noun	list	2	13	nomatch	tablier	-1	1	y	0.57028
228.8235	0.0	+	28	noun	list	2	14	nomatch	tablier	-1	1	y	0.57028
228.7607	0.0	[response]	28	noun	list	2	15	nomatch	tablier	-1	1	y	0.57028
238.58579999999998	0.0	+	29	verb	phrase	4	1	nomatch	nouveau	-1	1	y	0.61385
239.1355	0.2	mvnlhbt	29	verb	phrase	4	2	nomatch	nouveau	-1	1	y	0.61385
239.3355	0.0	+	29	verb	phrase	4	3	nomatch	nouveau	-1	1	y	0.61385
239.73529999999997	0.2	marc	29	verb	phrase	4	4	nomatch	nouveau	-1	1	y	0.61385
239.93519999999998	0.0	+	29	verb	phrase	4	5	nomatch	nouveau	-1	1	y	0.61385
240.335	0.2	doit	29	verb	phrase	4	6	nomatch	nouveau	-1	1	y	0.61385
240.53489999999996	0.0	+	29	verb	phrase	4	7	nomatch	nouveau	-1	1	y	0.61385
240.93479999999997	0.2	plonger	29	verb	phrase	4	8	nomatch	nouveau	-1	1	y	0.61385
241.13469999999998	0.0	+	29	verb	phrase	4	9	nomatch	nouveau	-1	1	y	0.61385
241.5345	0.2	tard	29	verb	phrase	4	10	nomatch	nouveau	-1	1	y	0.61385
241.73439999999997	0.0	+	29	verb	phrase	4	11	nomatch	nouveau	-1	1	y	0.61385
242.1342	0.0	+	29	verb	phrase	4	12	nomatch	nouveau	-1	1	y	0.61385
244.15	0.0	NOUVEAU	29	verb	phrase	4	13	nomatch	nouveau	-1	1	y	0.61385
244.81629999999998	0.0	+	29	verb	phrase	4	14	nomatch	nouveau	-1	1	y	0.61385
244.76379999999997	0.0	[response]	29	verb	phrase	4	15	nomatch	nouveau	-1	1	y	0.61385
246.54889999999997	0.0	+	30	noun	phrase	2	1	match	boîtier	4	1	p	0.49133
247.09869999999998	0.2	fxm	30	noun	phrase	2	2	match	boîtier	4	1	p	0.49133
247.2986	0.0	+	30	noun	phrase	2	3	match	boîtier	4	1	p	0.49133
247.69839999999996	0.2	skml	30	noun	phrase	2	4	match	boîtier	4	1	p	0.49133
247.89829999999998	0.0	+	30	noun	phrase	2	5	match	boîtier	4	1	p	0.49133
248.2981	0.2	hjw	30	noun	phrase	2	6	match	boîtier	4	1	p	0.49133
248.49800000000002	0.0	+	30	noun	phrase	2	7	match	boîtier	4	1	p	0.49133
248.89789999999996	0.2	boîtier	30	noun	phrase	2	8	match	boîtier	4	1	p	0.49133
249.09779999999998	0.0	+	30	noun	phrase	2	9	match	boîtier	4	1	p	0.49133
249.4976	0.2	rouge	30	noun	phrase	2	10	match	boîtier	4	1	p	0.49133
249.69749999999996	0.0	+	30	noun	phrase	2	11	match	boîtier	4	1	p	0.49133
250.0973	0.0	+	30	noun	phrase	2	12	match	boîtier	4	1	p	0.49133
252.0964	0.0	BOÎTIER	30	noun	phrase	2	13	match	boîtier	4	1	p	0.49133
252.6462	0.0	+	30	noun	phrase	2	14	match	boîtier	4	1	p	0.49133
252.5878	0.0	[response]	30	noun	phrase	2	15	match	boîtier	4	1	p	0.49133
254.4954	0.0	+	31	verb	list	1	1	match	patiner	5	1	p	0.51234
255.04509999999996	0.2	dwc	31	verb	list	1	2	match	patiner	5	1	p	0.51234
255.24499999999998	0.0	+	31	verb	list	1	3	match	patiner	5	1	p	0.51234
255.6448	0.2	jsgh	31	verb	list	1	4	match	patiner	5	1	p	0.51234
255.8448	0.0	+	31	verb	list	1	5	match	patiner	5	1	p	0.51234
256.2446	0.2	th	31	verb	list	1	6	match	patiner	5	1	p	0.51234
256.4445	0.0	+	31	verb	list	1	7	match	patiner	5	1	p	0.51234
256.8444	0.2	rwhjncq	31	verb	list	1	8	match	patiner	5	1	p	0.51234
257.04420000000005	0.0	+	31	verb	list	1	9	match	patiner	5	1	p	0.51234
257.444	0.2	patiner	31	verb	list	1	10	match	patiner	5	1	p	0.51234
257.64390000000003	0.0	+	31	verb	list	1	11	match	patiner	5	1	p	0.51234
258.04380000000003	0.0	+	31	verb	list	1	12	match	patiner	5	1	p	0.51234
260.04290000000003	0.0	PATINER	31	verb	list	1	13	match	patiner	5	1	p	0.51234
260.6093	0.0	+	31	verb	list	1	14	match	patiner	5	1	p	0.51234
260.5552	0.0	[response]	31	verb	list	1	15	match	patiner	5	1	p	0.51234
262.4418	0.0	+	32	noun	list	2	1	match	ainsi	5	1	p	0.60993
262.9916	0.2	qfchklb	32	noun	list	2	2	match	ainsi	5	1	p	0.60993
263.1915	0.0	+	32	noun	list	2	3	match	ainsi	5	1	p	0.60993
263.59130000000005	0.2	qrdf	32	noun	list	2	4	match	ainsi	5	1	p	0.60993
263.7912	0.0	+	32	noun	list	2	5	match	ainsi	5	1	p	0.60993
264.19100000000003	0.2	fhjp	32	noun	list	2	6	match	ainsi	5	1	p	0.60993
264.39090000000004	0.0	+	32	noun	list	2	7	match	ainsi	5	1	p	0.60993
264.79080000000005	0.2	tablier	32	noun	list	2	8	match	ainsi	5	1	p	0.60993
264.9907	0.0	+	32	noun	list	2	9	match	ainsi	5	1	p	0.60993
265.39050000000003	0.2	ainsi	32	noun	list	2	10	match	ainsi	5	1	p	0.60993
265.59040000000005	0.0	+	32	noun	list	2	11	match	ainsi	5	1	p	0.60993
265.9902	0.0	+	32	noun	list	2	12	match	ainsi	5	1	p	0.60993
267.9893	0.0	AINSI	32	noun	list	2	13	match	ainsi	5	1	p	0.60993
268.6557	0.0	+	32	noun	list	2	14	match	ainsi	5	1	p	0.60993
268.5993000000001	0.0	[response]	32	noun	list	2	15	match	ainsi	5	1	p	0.60993
270.3883	0.0	+	33	verb	phrase	1	1	nomatch	rouler	-1	1	y	0.67393
270.93800000000005	0.2	bdszk	33	verb	phrase	1	2	nomatch	rouler	-1	1	y	0.67393
271.1379	0.0	+	33	verb	phrase	1	3	nomatch	rouler	-1	1	y	0.67393
271.5378	0.2	lnqh	33	verb	phrase	1	4	nomatch	rouler	-1	1	y	0.67393
271.7377	0.0	+	33	verb	phrase	1	5	nomatch	rouler	-1	1	y	0.67393
272.13750000000005	0.2	vcpx	33	verb	phrase	1	6	nomatch	rouler	-1	1	y	0.67393
272.3374	0.0	+	33	verb	phrase	1	7	nomatch	rouler	-1	1	y	0.67393
272.73720000000003	0.2	wxtfj	33	verb	phrase	1	8	nomatch	rouler	-1	1	y	0.67393
272.93710000000004	0.0	+	33	verb	phrase	1	9	nomatch	rouler	-1	1	y	0.67393
273.33700000000005	0.2	nager	33	verb	phrase	1	10	nomatch	rouler	-1	1	y	0.67393
273.5369	0.0	+	33	verb	phrase	1	11	nomatch	rouler	-1	1	y	0.67393
273.93670000000003	0.0	+	33	verb	phrase	1	12	nomatch	rouler	-1	1	y	0.67393
275.93580000000003	0.0	ROULER	33	verb	phrase	1	13	nomatch	rouler	-1	1	y	0.67393
276.66880000000003	0.0	+	33	verb	phrase	1	14	nomatch	rouler	-1	1	y	0.67393
276.60970000000003	0.0	[response]	33	verb	phrase	1	15	nomatch	rouler	-1	1	y	0.67393
278.3347	0.0	+	34	noun	phrase	2	1	match	tablier	4	1	p	0.54377
278.8845	0.2	xcmrjf	34	noun	phrase	2	2	match	tablier	4	1	p	0.54377
279.0844	0.0	+	34	noun	phrase	2	3	match	tablier	4	1	p	0.54377
279.48420000000004	0.2	jsgh	34	noun	phrase	2	4	match	tablier	4	1	p	0.54377
279.6841	0.0	+	34	noun	phrase	2	5	match	tablier	4	1	p	0.54377
280.0839	0.2	wbn	34	noun	phrase	2	6	match	tablier	4	1	p	0.54377
280.28380000000004	0.0	+	34	noun	phrase	2	7	match	tablier	4	1	p	0.54377
280.68370000000004	0.2	tablier	34	noun	phrase	2	8	match	tablier	4	1	p	0.54377
280.8836	0.0	+	34	noun	phrase	2	9	match	tablier	4	1	p	0.54377
281.3	0.2	rouge	34	noun	phrase	2	10	match	tablier	4	1	p	0.54377
281.5	0.0	+	34	noun	phrase	2	11	match	tablier	4	1	p	0.54377
281.8998	0.0	+	34	noun	phrase	2	12	match	tablier	4	1	p	0.54377
283.8989	0.0	TABLIER	34	noun	phrase	2	13	match	tablier	4	1	p	0.54377
284.4986	0.0	+	34	noun	phrase	2	14	match	tablier	4	1	p	0.54377
284.4427	0.0	[response]	34	noun	phrase	2	15	match	tablier	4	1	p	0.54377
286.2978	0.0	+	35	verb	phrase	2	1	nomatch	bleu	-1	1	y	0.57549
286.8476	0.2	jlvk	35	verb	phrase	2	2	nomatch	bleu	-1	1	y	0.57549
287.0475	0.0	+	35	verb	phrase	2	3	nomatch	bleu	-1	1	y	0.57549
287.44730000000004	0.2	lnqh	35	verb	phrase	2	4	nomatch	bleu	-1	1	y	0.57549
287.6472	0.0	+	35	verb	phrase	2	5	nomatch	bleu	-1	1	y	0.57549
288.0471	0.2	vcpx	35	verb	phrase	2	6	nomatch	bleu	-1	1	y	0.57549
288.247	0.0	+	35	verb	phrase	2	7	nomatch	bleu	-1	1	y	0.57549
288.64680000000004	0.2	danser	35	verb	phrase	2	8	nomatch	bleu	-1	1	y	0.57549
288.8467	0.0	+	35	verb	phrase	2	9	nomatch	bleu	-1	1	y	0.57549
289.2465	0.2	tôt	35	verb	phrase	2	10	nomatch	bleu	-1	1	y	0.57549
289.44640000000004	0.0	+	35	verb	phrase	2	11	nomatch	bleu	-1	1	y	0.57549
289.8462	0.0	+	35	verb	phrase	2	12	nomatch	bleu	-1	1	y	0.57549
291.84540000000004	0.0	BLEU	35	verb	phrase	2	13	nomatch	bleu	-1	1	y	0.57549
292.4784	0.0	+	35	verb	phrase	2	14	nomatch	bleu	-1	1	y	0.57549
292.42080000000004	0.0	[response]	35	verb	phrase	2	15	nomatch	bleu	-1	1	y	0.57549
294.2443	0.0	+	36	verb	phrase	3	1	nomatch	adam	-1	1	y	0.56749
294.79400000000004	0.2	tmxvw	36	verb	phrase	3	2	nomatch	adam	-1	1	y	0.56749
294.9939	0.0	+	36	verb	phrase	3	3	nomatch	adam	-1	1	y	0.56749
295.3938	0.2	rjbt	36	verb	phrase	3	4	nomatch	adam	-1	1	y	0.56749
295.5937	0.0	+	36	verb	phrase	3	5	nomatch	adam	-1	1	y	0.56749
295.99350000000004	0.2	peut	36	verb	phrase	3	6	nomatch	adam	-1	1	y	0.56749
296.1934	0.0	+	36	verb	phrase	3	7	nomatch	adam	-1	1	y	0.56749
296.5932	0.2	moins	36	verb	phrase	3	8	nomatch	adam	-1	1	y	0.56749
296.79310000000004	0.0	+	36	verb	phrase	3	9	nomatch	adam	-1	1	y	0.56749
297.19300000000004	0.2	voyager	36	verb	phrase	3	10	nomatch	adam	-1	1	y	0.56749
297.3929	0.0	+	36	verb	phrase	3	11	nomatch	adam	-1	1	y	0.56749
297.7927	0.0	+	36	verb	phrase	3	12	nomatch	adam	-1	1	y	0.56749
299.7918	0.0	ADAM	36	verb	phrase	3	13	nomatch	adam	-1	1	y	0.56749
300.42490000000004	0.0	+	36	verb	phrase	3	14	nomatch	adam	-1	1	y	0.56749
300.3593	0.0	[response]	36	verb	phrase	3	15	nomatch	adam	-1	1	y	0.56749
302.1907	0.0	+	37	noun	list	3	1	match	tôt	5	1	p	0.48196
302.7405	0.2	mnsbhl	37	noun	list	3	2	match	tôt	5	1	p	0.48196
302.9404	0.0	+	37	noun	list	3	3	match	tôt	5	1	p	0.48196
303.3403	0.2	dgph	37	noun	list	3	4	match	tôt	5	1	p	0.48196
303.5401	0.0	+	37	noun	list	3	5	match	tôt	5	1	p	0.48196
303.9399	0.2	va	37	noun	list	3	6	match	tôt	5	1	p	0.48196
304.1399	0.0	+	37	noun	list	3	7	match	tôt	5	1	p	0.48196
304.53970000000004	0.2	tablier	37	noun	list	3	8	match	tôt	5	1	p	0.48196
304.7396	0.0	+	37	noun	list	3	9	match	tôt	5	1	p	0.48196
305.1394	0.2	tôt	37	noun	list	3	10	match	tôt	5	1	p	0.48196
305.33930000000004	0.0	+	37	noun	list	3	11	match	tôt	5	1	p	0.48196
305.7391	0.0	+	37	noun	list	3	12	match	tôt	5	1	p	0.48196
307.7382	0.0	TÔT	37	noun	list	3	13	match	tôt	5	1	p	0.48196
308.2713	0.0	+	37	noun	list	3	14	match	tôt	5	1	p	0.48196
308.22020000000003	0.0	[response]	37	noun	list	3	15	match	tôt	5	1	p	0.48196
310.1372	0.0	+	38	verb	list	1	1	nomatch	bleu	-1	1	y	0.5258
310.68690000000004	0.2	kbp	38	verb	list	1	2	nomatch	bleu	-1	1	y	0.5258
310.8868	0.0	+	38	verb	list	1	3	nomatch	bleu	-1	1	y	0.5258
311.2867	0.2	lnqh	38	verb	list	1	4	nomatch	bleu	-1	1	y	0.5258
311.4866	0.0	+	38	verb	list	1	5	nomatch	bleu	-1	1	y	0.5258
311.88640000000004	0.2	wbn	38	verb	list	1	6	nomatch	bleu	-1	1	y	0.5258
312.0863	0.0	+	38	verb	list	1	7	nomatch	bleu	-1	1	y	0.5258
312.4861	0.2	tsqpr	38	verb	list	1	8	nomatch	bleu	-1	1	y	0.5258
312.68600000000004	0.0	+	38	verb	list	1	9	nomatch	bleu	-1	1	y	0.5258
313.08590000000004	0.2	rouge	38	verb	list	1	10	nomatch	bleu	-1	1	y	0.5258
313.2858	0.0	+	38	verb	list	1	11	nomatch	bleu	-1	1	y	0.5258
313.6856	0.0	+	38	verb	list	1	12	nomatch	bleu	-1	1	y	0.5258
315.6847	0.0	BLEU	38	verb	list	1	13	nomatch	bleu	-1	1	y	0.5258
316.2678	0.0	+	38	verb	list	1	14	nomatch	bleu	-1	1	y	0.5258
316.2105	0.0	[response]	38	verb	list	1	15	nomatch	bleu	-1	1	y	0.5258
326.0967	0.0	+	39	verb	phrase	3	1	match	trop	4	1	p	0.55364
326.6465	0.2	dks	39	verb	phrase	3	2	match	trop	4	1	p	0.55364
326.8464	0.0	+	39	verb	phrase	3	3	match	trop	4	1	p	0.55364
327.24620000000004	0.2	qrkg	39	verb	phrase	3	4	match	trop	4	1	p	0.55364
327.4461	0.0	+	39	verb	phrase	3	5	match	trop	4	1	p	0.55364
327.84590000000003	0.2	doit	39	verb	phrase	3	6	match	trop	4	1	p	0.55364
328.0459	0.0	+	39	verb	phrase	3	7	match	trop	4	1	p	0.55364
328.44570000000004	0.2	trop	39	verb	phrase	3	8	match	trop	4	1	p	0.55364
328.6456	0.0	+	39	verb	phrase	3	9	match	trop	4	1	p	0.55364
329.04540000000003	0.2	plonger	39	verb	phrase	3	10	match	trop	4	1	p	0.55364
329.24530000000004	0.0	+	39	verb	phrase	3	11	match	trop	4	1	p	0.55364
329.6451	0.0	+	39	verb	phrase	3	12	match	trop	4	1	p	0.55364
331.6442	0.0	TROP	39	verb	phrase	3	13	match	trop	4	1	p	0.55364
332.2606	0.0	+	39	verb	phrase	3	14	match	trop	4	1	p	0.55364
332.19790000000006	0.0	[response]	39	verb	phrase	3	15	match	trop	4	1	p	0.55364
342.0396	0.0	+	40	noun	list	1	1	match	beaucoup	5	1	p	0.5288400000000001
342.5894	0.2	lkdth	40	noun	list	1	2	match	beaucoup	5	1	p	0.5288400000000001
342.7893	0.0	+	40	noun	list	1	3	match	beaucoup	5	1	p	0.5288400000000001
343.1891	0.2	dkcf	40	noun	list	1	4	match	beaucoup	5	1	p	0.5288400000000001
343.389	0.0	+	40	noun	list	1	5	match	beaucoup	5	1	p	0.5288400000000001
343.78880000000004	0.2	hjw	40	noun	list	1	6	match	beaucoup	5	1	p	0.5288400000000001
343.9887	0.0	+	40	noun	list	1	7	match	beaucoup	5	1	p	0.5288400000000001
344.3886	0.2	wfjcnhm	40	noun	list	1	8	match	beaucoup	5	1	p	0.5288400000000001
344.5885	0.0	+	40	noun	list	1	9	match	beaucoup	5	1	p	0.5288400000000001
344.98830000000004	0.2	beaucoup	40	noun	list	1	10	match	beaucoup	5	1	p	0.5288400000000001
345.1882	0.0	+	40	noun	list	1	11	match	beaucoup	5	1	p	0.5288400000000001
345.588	0.0	+	40	noun	list	1	12	match	beaucoup	5	1	p	0.5288400000000001
347.5871	0.0	BEAUCOUP	40	noun	list	1	13	match	beaucoup	5	1	p	0.5288400000000001
348.1702	0.0	+	40	noun	list	1	14	match	beaucoup	5	1	p	0.5288400000000001
348.1160000000001	0.0	[response]	40	noun	list	1	15	match	beaucoup	5	1	p	0.5288400000000001
357.9991	0.0	+	41	noun	phrase	4	1	match	son	3	1	p	0.52142
358.5489	0.2	psnql	41	noun	phrase	4	2	match	son	3	1	p	0.52142
358.7488	0.0	+	41	noun	phrase	4	3	match	son	3	1	p	0.52142
359.14860000000004	0.2	vers	41	noun	phrase	4	4	match	son	3	1	p	0.52142
359.3485	0.0	+	41	noun	phrase	4	5	match	son	3	1	p	0.52142
359.7484	0.2	son	41	noun	phrase	4	6	match	son	3	1	p	0.52142
359.9483	0.0	+	41	noun	phrase	4	7	match	son	3	1	p	0.52142
360.34810000000004	0.2	tablier	41	noun	phrase	4	8	match	son	3	1	p	0.52142
360.548	0.0	+	41	noun	phrase	4	9	match	son	3	1	p	0.52142
360.94780000000003	0.2	vert	41	noun	phrase	4	10	match	son	3	1	p	0.52142
361.14770000000004	0.0	+	41	noun	phrase	4	11	match	son	3	1	p	0.52142
361.54760000000005	0.0	+	41	noun	phrase	4	12	match	son	3	1	p	0.52142
363.54670000000004	0.0	SON	41	noun	phrase	4	13	match	son	3	1	p	0.52142
364.1297	0.0	+	41	noun	phrase	4	14	match	son	3	1	p	0.52142
364.0681000000001	0.0	[response]	41	noun	phrase	4	15	match	son	3	1	p	0.52142
373.942	0.0	+	42	verb	phrase	2	1	nomatch	rouler	-1	1	y	0.68845
374.4918	0.2	pfr	42	verb	phrase	2	2	nomatch	rouler	-1	1	y	0.68845
374.6917	0.0	+	42	verb	phrase	2	3	nomatch	rouler	-1	1	y	0.68845
375.0915	0.2	rjbt	42	verb	phrase	2	4	nomatch	rouler	-1	1	y	0.68845
375.2914	0.0	+	42	verb	phrase	2	5	nomatch	rouler	-1	1	y	0.68845
375.69120000000004	0.2	fhjp	42	verb	phrase	2	6	nomatch	rouler	-1	1	y	0.68845
375.8912	0.0	+	42	verb	phrase	2	7	nomatch	rouler	-1	1	y	0.68845
376.291	0.2	plonger	42	verb	phrase	2	8	nomatch	rouler	-1	1	y	0.68845
376.4909	0.0	+	42	verb	phrase	2	9	nomatch	rouler	-1	1	y	0.68845
376.89070000000004	0.2	tard	42	verb	phrase	2	10	nomatch	rouler	-1	1	y	0.68845
377.0906	0.0	+	42	verb	phrase	2	11	nomatch	rouler	-1	1	y	0.68845
377.4904	0.0	+	42	verb	phrase	2	12	nomatch	rouler	-1	1	y	0.68845
379.4895	0.0	ROULER	42	verb	phrase	2	13	nomatch	rouler	-1	1	y	0.68845
380.23920000000004	0.0	+	42	verb	phrase	2	14	nomatch	rouler	-1	1	y	0.68845
380.178	0.0	[response]	42	verb	phrase	2	15	nomatch	rouler	-1	1	y	0.68845
381.8885	0.0	+	43	noun	list	4	1	nomatch	grenier	-1	1	y	0.58631
382.4382	0.2	cjsq	43	noun	list	4	2	nomatch	grenier	-1	1	y	0.58631
382.6381	0.0	+	43	noun	list	4	3	nomatch	grenier	-1	1	y	0.58631
383.038	0.2	luc	43	noun	list	4	4	nomatch	grenier	-1	1	y	0.58631
383.2379	0.0	+	43	noun	list	4	5	nomatch	grenier	-1	1	y	0.58631
383.6377	0.2	son	43	noun	list	4	6	nomatch	grenier	-1	1	y	0.58631
383.8376	0.0	+	43	noun	list	4	7	nomatch	grenier	-1	1	y	0.58631
384.23740000000004	0.2	trop	43	noun	list	4	8	nomatch	grenier	-1	1	y	0.58631
384.4373	0.0	+	43	noun	list	4	9	nomatch	grenier	-1	1	y	0.58631
384.8372	0.2	tablier	43	noun	list	4	10	nomatch	grenier	-1	1	y	0.58631
385.0371	0.0	+	43	noun	list	4	11	nomatch	grenier	-1	1	y	0.58631
385.43690000000004	0.0	+	43	noun	list	4	12	nomatch	grenier	-1	1	y	0.58631
387.43600000000004	0.0	GRENIER	43	noun	list	4	13	nomatch	grenier	-1	1	y	0.58631
388.08570000000003	0.0	+	43	noun	list	4	14	nomatch	grenier	-1	1	y	0.58631
388.0223000000001	0.0	[response]	43	noun	list	4	15	nomatch	grenier	-1	1	y	0.58631
389.8349	0.0	+	44	noun	list	3	1	nomatch	peut	-1	1	y	0.5728200000000001
390.3847	0.2	nscwpzd	44	noun	list	3	2	nomatch	peut	-1	1	y	0.5728200000000001
390.5846	0.0	+	44	noun	list	3	3	nomatch	peut	-1	1	y	0.5728200000000001
390.9844	0.2	qrdf	44	noun	list	3	4	nomatch	peut	-1	1	y	0.5728200000000001
391.1843	0.0	+	44	noun	list	3	5	nomatch	peut	-1	1	y	0.5728200000000001
391.58410000000003	0.2	va	44	noun	list	3	6	nomatch	peut	-1	1	y	0.5728200000000001
391.7841	0.0	+	44	noun	list	3	7	nomatch	peut	-1	1	y	0.5728200000000001
392.18420000000003	0.2	casier	44	noun	list	3	8	nomatch	peut	-1	1	y	0.5728200000000001
392.3838	0.0	+	44	noun	list	3	9	nomatch	peut	-1	1	y	0.5728200000000001
392.78360000000004	0.2	ainsi	44	noun	list	3	10	nomatch	peut	-1	1	y	0.5728200000000001
392.9836	0.0	+	44	noun	list	3	11	nomatch	peut	-1	1	y	0.5728200000000001
393.40000000000003	0.0	+	44	noun	list	3	12	nomatch	peut	-1	1	y	0.5728200000000001
395.39910000000003	0.0	PEUT	44	noun	list	3	13	nomatch	peut	-1	1	y	0.5728200000000001
396.03220000000005	0.0	+	44	noun	list	3	14	nomatch	peut	-1	1	y	0.5728200000000001
395.97190000000006	0.0	[response]	44	noun	list	3	15	nomatch	peut	-1	1	y	0.5728200000000001
397.798	0.0	+	45	verb	list	1	1	match	nouveau	5	1	p	0.43759
398.3478	0.2	cqwm	45	verb	list	1	2	match	nouveau	5	1	p	0.43759
398.5477	0.0	+	45	verb	list	1	3	match	nouveau	5	1	p	0.43759
398.9475	0.2	jsgh	45	verb	list	1	4	match	nouveau	5	1	p	0.43759
399.1474	0.0	+	45	verb	list	1	5	match	nouveau	5	1	p	0.43759
399.54720000000003	0.2	th	45	verb	list	1	6	match	nouveau	5	1	p	0.43759
399.7472	0.0	+	45	verb	list	1	7	match	nouveau	5	1	p	0.43759
400.147	0.2	ndvhcg	45	verb	list	1	8	match	nouveau	5	1	p	0.43759
400.3469	0.0	+	45	verb	list	1	9	match	nouveau	5	1	p	0.43759
400.74670000000003	0.2	nouveau	45	verb	list	1	10	match	nouveau	5	1	p	0.43759
400.94660000000005	0.0	+	45	verb	list	1	11	match	nouveau	5	1	p	0.43759
401.3465	0.0	+	45	verb	list	1	12	match	nouveau	5	1	p	0.43759
403.34560000000005	0.0	NOUVEAU	45	verb	list	1	13	match	nouveau	5	1	p	0.43759
403.8453	0.0	+	45	verb	list	1	14	match	nouveau	5	1	p	0.43759
403.7832	0.0	[response]	45	verb	list	1	15	match	nouveau	5	1	p	0.43759
405.7445	0.0	+	46	verb	list	1	1	match	grand	5	1	p	0.44913000000000003
406.29420000000005	0.2	tfmhsb	46	verb	list	1	2	match	grand	5	1	p	0.44913000000000003
406.49420000000003	0.0	+	46	verb	list	1	3	match	grand	5	1	p	0.44913000000000003
406.894	0.2	dkjf	46	verb	list	1	4	match	grand	5	1	p	0.44913000000000003
407.0939	0.0	+	46	verb	list	1	5	match	grand	5	1	p	0.44913000000000003
407.49370000000005	0.2	vcpx	46	verb	list	1	6	match	grand	5	1	p	0.44913000000000003
407.6936	0.0	+	46	verb	list	1	7	match	grand	5	1	p	0.44913000000000003
408.09340000000003	0.2	sbldhkp	46	verb	list	1	8	match	grand	5	1	p	0.44913000000000003
408.29330000000004	0.0	+	46	verb	list	1	9	match	grand	5	1	p	0.44913000000000003
408.69320000000005	0.2	grand	46	verb	list	1	10	match	grand	5	1	p	0.44913000000000003
408.8931	0.0	+	46	verb	list	1	11	match	grand	5	1	p	0.44913000000000003
409.29290000000003	0.0	+	46	verb	list	1	12	match	grand	5	1	p	0.44913000000000003
411.29200000000003	0.0	GRAND	46	verb	list	1	13	match	grand	5	1	p	0.44913000000000003
411.80850000000004	0.0	+	46	verb	list	1	14	match	grand	5	1	p	0.44913000000000003
411.7411000000001	0.0	[response]	46	verb	list	1	15	match	grand	5	1	p	0.44913000000000003
413.69100000000003	0.0	+	47	noun	phrase	1	1	match	voilier	5	1	p	0.40346
414.2407	0.2	zkc	47	noun	phrase	1	2	match	voilier	5	1	p	0.40346
414.4406	0.0	+	47	noun	phrase	1	3	match	voilier	5	1	p	0.40346
414.84040000000005	0.2	jqzp	47	noun	phrase	1	4	match	voilier	5	1	p	0.40346
415.0403	0.0	+	47	noun	phrase	1	5	match	voilier	5	1	p	0.40346
415.4402	0.2	smdc	47	noun	phrase	1	6	match	voilier	5	1	p	0.40346
415.6401	0.0	+	47	noun	phrase	1	7	match	voilier	5	1	p	0.40346
416.03990000000005	0.2	mktpd	47	noun	phrase	1	8	match	voilier	5	1	p	0.40346
416.2398	0.0	+	47	noun	phrase	1	9	match	voilier	5	1	p	0.40346
416.63960000000003	0.2	voilier	47	noun	phrase	1	10	match	voilier	5	1	p	0.40346
416.83950000000004	0.0	+	47	noun	phrase	1	11	match	voilier	5	1	p	0.40346
417.2393	0.0	+	47	noun	phrase	1	12	match	voilier	5	1	p	0.40346
419.23920000000004	0.0	VOILIER	47	noun	phrase	1	13	match	voilier	5	1	p	0.40346
419.7049	0.0	+	47	noun	phrase	1	14	match	voilier	5	1	p	0.40346
419.6426000000001	0.0	[response]	47	noun	phrase	1	15	match	voilier	5	1	p	0.40346
445.6433	0.0	+	48	verb	list	4	1	nomatch	tablier	-1	1	y	0.5924300000000001
446.1931	0.2	vmwkq	48	verb	list	4	2	nomatch	tablier	-1	1	y	0.5924300000000001
446.39300000000003	0.0	+	48	verb	list	4	3	nomatch	tablier	-1	1	y	0.5924300000000001
446.7928	0.2	pour	48	verb	list	4	4	nomatch	tablier	-1	1	y	0.5924300000000001
446.9927	0.0	+	48	verb	list	4	5	nomatch	tablier	-1	1	y	0.5924300000000001
447.3926	0.2	va	48	verb	list	4	6	nomatch	tablier	-1	1	y	0.5924300000000001
447.59250000000003	0.0	+	48	verb	list	4	7	nomatch	tablier	-1	1	y	0.5924300000000001
447.9923	0.2	grand	48	verb	list	4	8	nomatch	tablier	-1	1	y	0.5924300000000001
448.1922	0.0	+	48	verb	list	4	9	nomatch	tablier	-1	1	y	0.5924300000000001
448.59200000000004	0.2	nager	48	verb	list	4	10	nomatch	tablier	-1	1	y	0.5924300000000001
448.7919	0.0	+	48	verb	list	4	11	nomatch	tablier	-1	1	y	0.5924300000000001
449.1917	0.0	+	48	verb	list	4	12	nomatch	tablier	-1	1	y	0.5924300000000001
451.1909	0.0	TABLIER	48	verb	list	4	13	nomatch	tablier	-1	1	y	0.5924300000000001
451.8406	0.0	+	48	verb	list	4	14	nomatch	tablier	-1	1	y	0.5924300000000001
451.7833	0.0	[response]	48	verb	list	4	15	nomatch	tablier	-1	1	y	0.5924300000000001
453.5898	0.0	+	49	verb	list	4	1	nomatch	vite	-1	1	y	0.80719
454.1395	0.2	xdqfm	49	verb	list	4	2	nomatch	vite	-1	1	y	0.80719
454.33950000000004	0.0	+	49	verb	list	4	3	nomatch	vite	-1	1	y	0.80719
454.7393	0.2	sans	49	verb	list	4	4	nomatch	vite	-1	1	y	0.80719
454.9392	0.0	+	49	verb	list	4	5	nomatch	vite	-1	1	y	0.80719
455.33900000000006	0.2	doit	49	verb	list	4	6	nomatch	vite	-1	1	y	0.80719
455.5389	0.0	+	49	verb	list	4	7	nomatch	vite	-1	1	y	0.80719
455.93870000000004	0.2	nouveau	49	verb	list	4	8	nomatch	vite	-1	1	y	0.80719
456.1386	0.0	+	49	verb	list	4	9	nomatch	vite	-1	1	y	0.80719
456.5385	0.2	voyager	49	verb	list	4	10	nomatch	vite	-1	1	y	0.80719
456.73840000000007	0.0	+	49	verb	list	4	11	nomatch	vite	-1	1	y	0.80719
457.1382	0.0	+	49	verb	list	4	12	nomatch	vite	-1	1	y	0.80719
459.1373	0.0	VITE	49	verb	list	4	13	nomatch	vite	-1	1	y	0.80719
460.0036	0.0	+	49	verb	list	4	14	nomatch	vite	-1	1	y	0.80719
459.94450000000006	0.0	[response]	49	verb	list	4	15	nomatch	vite	-1	1	y	0.80719
461.5362	0.0	+	50	noun	phrase	2	1	match	grand	4	1	p	0.50631
462.086	0.2	mvcgqwf	50	noun	phrase	2	2	match	grand	4	1	p	0.50631
462.28589999999997	0.0	+	50	noun	phrase	2	3	match	grand	4	1	p	0.50631
462.6857	0.2	jqzp	50	noun	phrase	2	4	match	grand	4	1	p	0.50631
462.88560000000007	0.0	+	50	noun	phrase	2	5	match	grand	4	1	p	0.50631
463.28550000000007	0.2	wbn	50	noun	phrase	2	6	match	grand	4	1	p	0.50631
463.4854	0.0	+	50	noun	phrase	2	7	match	grand	4	1	p	0.50631
463.88520000000005	0.2	grand	50	noun	phrase	2	8	match	grand	4	1	p	0.50631
464.0851	0.0	+	50	noun	phrase	2	9	match	grand	4	1	p	0.50631
464.48490000000004	0.2	cendrier	50	noun	phrase	2	10	match	grand	4	1	p	0.50631
464.6848	0.0	+	50	noun	phrase	2	11	match	grand	4	1	p	0.50631
465.0847	0.0	+	50	noun	phrase	2	12	match	grand	4	1	p	0.50631
467.0838	0.0	GRAND	50	noun	phrase	2	13	match	grand	4	1	p	0.50631
467.65020000000004	0.0	+	50	noun	phrase	2	14	match	grand	4	1	p	0.50631
467.5901	0.0	[response]	50	noun	phrase	2	15	match	grand	4	1	p	0.50631
469.49930000000006	0.0	+	51	noun	list	3	1	nomatch	avec	-1	1	y	0.6617200000000001
470.04910000000007	0.2	vhqxp	51	noun	list	3	2	nomatch	avec	-1	1	y	0.6617200000000001
470.249	0.0	+	51	noun	list	3	3	nomatch	avec	-1	1	y	0.6617200000000001
470.64880000000005	0.2	dkcf	51	noun	list	3	4	nomatch	avec	-1	1	y	0.6617200000000001
470.8488	0.0	+	51	noun	list	3	5	nomatch	avec	-1	1	y	0.6617200000000001
471.2486	0.2	leur	51	noun	list	3	6	nomatch	avec	-1	1	y	0.6617200000000001
471.44849999999997	0.0	+	51	noun	list	3	7	nomatch	avec	-1	1	y	0.6617200000000001
471.8483	0.2	beaucoup	51	noun	list	3	8	nomatch	avec	-1	1	y	0.6617200000000001
472.04820000000007	0.0	+	51	noun	list	3	9	nomatch	avec	-1	1	y	0.6617200000000001
472.448	0.2	voilier	51	noun	list	3	10	nomatch	avec	-1	1	y	0.6617200000000001
472.64790000000005	0.0	+	51	noun	list	3	11	nomatch	avec	-1	1	y	0.6617200000000001
473.04780000000005	0.0	+	51	noun	list	3	12	nomatch	avec	-1	1	y	0.6617200000000001
475.04690000000005	0.0	AVEC	51	noun	list	3	13	nomatch	avec	-1	1	y	0.6617200000000001
475.7632	0.0	+	51	noun	list	3	14	nomatch	avec	-1	1	y	0.6617200000000001
475.70860000000005	0.0	[response]	51	noun	list	3	15	nomatch	avec	-1	1	y	0.6617200000000001
477.44579999999996	0.0	+	52	noun	phrase	1	1	match	beau	5	1	p	0.44649
477.99559999999997	0.2	tgjc	52	noun	phrase	1	2	match	beau	5	1	p	0.44649
478.19550000000004	0.0	+	52	noun	phrase	1	3	match	beau	5	1	p	0.44649
478.59530000000007	0.2	jqzp	52	noun	phrase	1	4	match	beau	5	1	p	0.44649
478.7952	0.0	+	52	noun	phrase	1	5	match	beau	5	1	p	0.44649
479.19500000000005	0.2	hjw	52	noun	phrase	1	6	match	beau	5	1	p	0.44649
479.3949	0.0	+	52	noun	phrase	1	7	match	beau	5	1	p	0.44649
479.79470000000003	0.2	wfjcnhm	52	noun	phrase	1	8	match	beau	5	1	p	0.44649
479.99469999999997	0.0	+	52	noun	phrase	1	9	match	beau	5	1	p	0.44649
480.3945	0.2	beau	52	noun	phrase	1	10	match	beau	5	1	p	0.44649
480.59440000000006	0.0	+	52	noun	phrase	1	11	match	beau	5	1	p	0.44649
480.9942	0.0	+	52	noun	phrase	1	12	match	beau	5	1	p	0.44649
482.9933	0.0	BEAU	52	noun	phrase	1	13	match	beau	5	1	p	0.44649
483.4931	0.0	+	52	noun	phrase	1	14	match	beau	5	1	p	0.44649
483.4398	0.0	[response]	52	noun	phrase	1	15	match	beau	5	1	p	0.44649
485.3923	0.0	+	53	verb	phrase	4	1	nomatch	jade	-1	1	y	0.67264
485.942	0.2	fhclt	53	verb	phrase	4	2	nomatch	jade	-1	1	y	0.67264
486.14189999999996	0.0	+	53	verb	phrase	4	3	nomatch	jade	-1	1	y	0.67264
486.5417	0.2	luc	53	verb	phrase	4	4	nomatch	jade	-1	1	y	0.67264
486.74170000000004	0.0	+	53	verb	phrase	4	5	nomatch	jade	-1	1	y	0.67264
487.14150000000006	0.2	va	53	verb	phrase	4	6	nomatch	jade	-1	1	y	0.67264
487.3414	0.0	+	53	verb	phrase	4	7	nomatch	jade	-1	1	y	0.67264
487.74120000000005	0.2	moins	53	verb	phrase	4	8	nomatch	jade	-1	1	y	0.67264
487.9411	0.0	+	53	verb	phrase	4	9	nomatch	jade	-1	1	y	0.67264
488.34090000000003	0.2	jongler	53	verb	phrase	4	10	nomatch	jade	-1	1	y	0.67264
488.54089999999997	0.0	+	53	verb	phrase	4	11	nomatch	jade	-1	1	y	0.67264
488.9407	0.0	+	53	verb	phrase	4	12	nomatch	jade	-1	1	y	0.67264
490.9398	0.0	JADE	53	verb	phrase	4	13	nomatch	jade	-1	1	y	0.67264
491.67280000000005	0.0	+	53	verb	phrase	4	14	nomatch	jade	-1	1	y	0.67264
491.6124	0.0	[response]	53	verb	phrase	4	15	nomatch	jade	-1	1	y	0.67264
501.3351	0.0	+	54	verb	phrase	2	1	match	loin	5	1	p	0.78406
501.8849	0.2	cbhs	54	verb	phrase	2	2	match	loin	5	1	p	0.78406
502.0848	0.0	+	54	verb	phrase	2	3	match	loin	5	1	p	0.78406
502.4846	0.2	nlxv	54	verb	phrase	2	4	match	loin	5	1	p	0.78406
502.68450000000007	0.0	+	54	verb	phrase	2	5	match	loin	5	1	p	0.78406
503.0843	0.2	fhjp	54	verb	phrase	2	6	match	loin	5	1	p	0.78406
503.28430000000003	0.0	+	54	verb	phrase	2	7	match	loin	5	1	p	0.78406
503.68410000000006	0.2	chasser	54	verb	phrase	2	8	match	loin	5	1	p	0.78406
503.884	0.0	+	54	verb	phrase	2	9	match	loin	5	1	p	0.78406
504.28380000000004	0.2	loin	54	verb	phrase	2	10	match	loin	5	1	p	0.78406
504.4837	0.0	+	54	verb	phrase	2	11	match	loin	5	1	p	0.78406
504.8836	0.0	+	54	verb	phrase	2	12	match	loin	5	1	p	0.78406
506.89930000000004	0.0	LOIN	54	verb	phrase	2	13	match	loin	5	1	p	0.78406
507.74890000000005	0.0	+	54	verb	phrase	2	14	match	loin	5	1	p	0.78406
507.6834	0.0	[response]	54	verb	phrase	2	15	match	loin	5	1	p	0.78406
509.2984	0.0	+	55	verb	phrase	1	1	match	rouler	5	1	p	0.48943
509.84800000000007	0.2	khfpw	55	verb	phrase	1	2	match	rouler	5	1	p	0.48943
510.0479	0.0	+	55	verb	phrase	1	3	match	rouler	5	1	p	0.48943
510.44770000000005	0.2	rjbt	55	verb	phrase	1	4	match	rouler	5	1	p	0.48943
510.6476	0.0	+	55	verb	phrase	1	5	match	rouler	5	1	p	0.48943
511.0475	0.2	th	55	verb	phrase	1	6	match	rouler	5	1	p	0.48943
511.24739999999997	0.0	+	55	verb	phrase	1	7	match	rouler	5	1	p	0.48943
511.6472	0.2	wsrl	55	verb	phrase	1	8	match	rouler	5	1	p	0.48943
511.84710000000007	0.0	+	55	verb	phrase	1	9	match	rouler	5	1	p	0.48943
512.2469	0.2	rouler	55	verb	phrase	1	10	match	rouler	5	1	p	0.48943
512.4468	0.0	+	55	verb	phrase	1	11	match	rouler	5	1	p	0.48943
512.8467	0.0	+	55	verb	phrase	1	12	match	rouler	5	1	p	0.48943
514.8458	0.0	ROULER	55	verb	phrase	1	13	match	rouler	5	1	p	0.48943
515.3955	0.0	+	55	verb	phrase	1	14	match	rouler	5	1	p	0.48943
515.3352	0.0	[response]	55	verb	phrase	1	15	match	rouler	5	1	p	0.48943
517.2447	0.0	+	56	noun	phrase	1	1	nomatch	patiner	-1	1	y	0.55116
517.7944	0.2	jpf	56	noun	phrase	1	2	nomatch	patiner	-1	1	y	0.55116
517.9944	0.0	+	56	noun	phrase	1	3	nomatch	patiner	-1	1	y	0.55116
518.3942000000001	0.2	dgph	56	noun	phrase	1	4	nomatch	patiner	-1	1	y	0.55116
518.5941	0.0	+	56	noun	phrase	1	5	nomatch	patiner	-1	1	y	0.55116
518.9939	0.2	hjw	56	noun	phrase	1	6	nomatch	patiner	-1	1	y	0.55116
519.1938	0.0	+	56	noun	phrase	1	7	nomatch	patiner	-1	1	y	0.55116
519.5936	0.2	jxbp	56	noun	phrase	1	8	nomatch	patiner	-1	1	y	0.55116
519.7936	0.0	+	56	noun	phrase	1	9	nomatch	patiner	-1	1	y	0.55116
520.1934	0.2	voilier	56	noun	phrase	1	10	nomatch	patiner	-1	1	y	0.55116
520.3933000000001	0.0	+	56	noun	phrase	1	11	nomatch	patiner	-1	1	y	0.55116
520.7931	0.0	+	56	noun	phrase	1	12	nomatch	patiner	-1	1	y	0.55116
522.7922	0.0	PATINER	56	noun	phrase	1	13	nomatch	patiner	-1	1	y	0.55116
523.4086	0.0	+	56	noun	phrase	1	14	nomatch	patiner	-1	1	y	0.55116
523.3434	0.0	[response]	56	noun	phrase	1	15	nomatch	patiner	-1	1	y	0.55116
525.1912	0.0	+	57	verb	phrase	1	1	match	voyager	5	1	p	0.44516000000000006
525.7409	0.2	xqdfmr	57	verb	phrase	1	2	match	voyager	5	1	p	0.44516000000000006
525.9408	0.0	+	57	verb	phrase	1	3	match	voyager	5	1	p	0.44516000000000006
526.3406	0.2	nfzp	57	verb	phrase	1	4	match	voyager	5	1	p	0.44516000000000006
526.5405000000001	0.0	+	57	verb	phrase	1	5	match	voyager	5	1	p	0.44516000000000006
526.9404000000001	0.2	th	57	verb	phrase	1	6	match	voyager	5	1	p	0.44516000000000006
527.1403	0.0	+	57	verb	phrase	1	7	match	voyager	5	1	p	0.44516000000000006
527.5401	0.2	nthrd	57	verb	phrase	1	8	match	voyager	5	1	p	0.44516000000000006
527.74	0.0	+	57	verb	phrase	1	9	match	voyager	5	1	p	0.44516000000000006
528.1398	0.2	voyager	57	verb	phrase	1	10	match	voyager	5	1	p	0.44516000000000006
528.3397	0.0	+	57	verb	phrase	1	11	match	voyager	5	1	p	0.44516000000000006
528.7396	0.0	+	57	verb	phrase	1	12	match	voyager	5	1	p	0.44516000000000006
530.7387	0.0	VOYAGER	57	verb	phrase	1	13	match	voyager	5	1	p	0.44516000000000006
531.2385	0.0	+	57	verb	phrase	1	14	match	voyager	5	1	p	0.44516000000000006
531.1838	0.0	[response]	57	verb	phrase	1	15	match	voyager	5	1	p	0.44516000000000006
541.134	0.0	+	58	verb	list	1	1	nomatch	trop	-1	1	y	0.62908
541.6838	0.2	cgrdmq	58	verb	list	1	2	nomatch	trop	-1	1	y	0.62908
541.8837	0.0	+	58	verb	list	1	3	nomatch	trop	-1	1	y	0.62908
542.2836	0.2	nlxv	58	verb	list	1	4	nomatch	trop	-1	1	y	0.62908
542.5001	0.0	+	58	verb	list	1	5	nomatch	trop	-1	1	y	0.62908
542.8999	0.2	smdc	58	verb	list	1	6	nomatch	trop	-1	1	y	0.62908
543.0998000000001	0.0	+	58	verb	list	1	7	nomatch	trop	-1	1	y	0.62908
543.4996	0.2	jfxdtrp	58	verb	list	1	8	nomatch	trop	-1	1	y	0.62908
543.6995000000001	0.0	+	58	verb	list	1	9	nomatch	trop	-1	1	y	0.62908
544.0994000000001	0.2	bleu	58	verb	list	1	10	nomatch	trop	-1	1	y	0.62908
544.2993	0.0	+	58	verb	list	1	11	nomatch	trop	-1	1	y	0.62908
544.6991	0.0	+	58	verb	list	1	12	nomatch	trop	-1	1	y	0.62908
546.6982	0.0	TROP	58	verb	list	1	13	nomatch	trop	-1	1	y	0.62908
547.3812	0.0	+	58	verb	list	1	14	nomatch	trop	-1	1	y	0.62908
547.3273	0.0	[response]	58	verb	list	1	15	nomatch	trop	-1	1	y	0.62908
557.0936	0.0	+	59	noun	phrase	3	1	nomatch	tablier	-1	1	y	1.0964
557.6433000000001	0.2	hxg	59	noun	phrase	3	2	nomatch	tablier	-1	1	y	1.0964
557.8432	0.0	+	59	noun	phrase	3	3	nomatch	tablier	-1	1	y	1.0964
558.2431	0.2	jqzp	59	noun	phrase	3	4	nomatch	tablier	-1	1	y	1.0964
558.443	0.0	+	59	noun	phrase	3	5	nomatch	tablier	-1	1	y	1.0964
558.8428	0.2	mon	59	noun	phrase	3	6	nomatch	tablier	-1	1	y	1.0964
559.0427	0.0	+	59	noun	phrase	3	7	nomatch	tablier	-1	1	y	1.0964
559.4425	0.2	rocher	59	noun	phrase	3	8	nomatch	tablier	-1	1	y	1.0964
559.6424000000001	0.0	+	59	noun	phrase	3	9	nomatch	tablier	-1	1	y	1.0964
560.0423000000001	0.2	vert	59	noun	phrase	3	10	nomatch	tablier	-1	1	y	1.0964
560.2422	0.0	+	59	noun	phrase	3	11	nomatch	tablier	-1	1	y	1.0964
560.642	0.0	+	59	noun	phrase	3	12	nomatch	tablier	-1	1	y	1.0964
562.6411	0.0	TABLIER	59	noun	phrase	3	13	nomatch	tablier	-1	1	y	1.0964
563.7906	0.0	+	59	noun	phrase	3	14	nomatch	tablier	-1	1	y	1.0964
563.7375000000001	0.0	[response]	59	noun	phrase	3	15	nomatch	tablier	-1	1	y	1.0964
565.04	0.0	+	60	verb	list	1	1	match	rouge	5	1	p	0.3953900000000001
565.5898	0.2	tcqrm	60	verb	list	1	2	match	rouge	5	1	p	0.3953900000000001
565.7897	0.0	+	60	verb	list	1	3	match	rouge	5	1	p	0.3953900000000001
566.1895000000001	0.2	lnqh	60	verb	list	1	4	match	rouge	5	1	p	0.3953900000000001
566.3894	0.0	+	60	verb	list	1	5	match	rouge	5	1	p	0.3953900000000001
566.7892	0.2	smdc	60	verb	list	1	6	match	rouge	5	1	p	0.3953900000000001
566.9892	0.0	+	60	verb	list	1	7	match	rouge	5	1	p	0.3953900000000001
567.389	0.2	cjbrlnz	60	verb	list	1	8	match	rouge	5	1	p	0.3953900000000001
567.5889	0.0	+	60	verb	list	1	9	match	rouge	5	1	p	0.3953900000000001
567.9887	0.2	rouge	60	verb	list	1	10	match	rouge	5	1	p	0.3953900000000001
568.1887	0.0	+	60	verb	list	1	11	match	rouge	5	1	p	0.3953900000000001
568.5884	0.0	+	60	verb	list	1	12	match	rouge	5	1	p	0.3953900000000001
570.5875	0.0	ROUGE	60	verb	list	1	13	match	rouge	5	1	p	0.3953900000000001
571.0374	0.0	+	60	verb	list	1	14	match	rouge	5	1	p	0.3953900000000001
570.9829	0.0	[response]	60	verb	list	1	15	match	rouge	5	1	p	0.3953900000000001
572.9865	0.0	+	61	verb	list	3	1	nomatch	rouler	-1	1	y	0.6647500000000001
573.5362	0.2	bgj	61	verb	list	3	2	nomatch	rouler	-1	1	y	0.6647500000000001
573.7361	0.0	+	61	verb	list	3	3	nomatch	rouler	-1	1	y	0.6647500000000001
574.136	0.2	jsgh	61	verb	list	3	4	nomatch	rouler	-1	1	y	0.6647500000000001
574.3359	0.0	+	61	verb	list	3	5	nomatch	rouler	-1	1	y	0.6647500000000001
574.7357000000001	0.2	peut	61	verb	list	3	6	nomatch	rouler	-1	1	y	0.6647500000000001
574.9356	0.0	+	61	verb	list	3	7	nomatch	rouler	-1	1	y	0.6647500000000001
575.3354	0.2	beau	61	verb	list	3	8	nomatch	rouler	-1	1	y	0.6647500000000001
575.5353	0.0	+	61	verb	list	3	9	nomatch	rouler	-1	1	y	0.6647500000000001
575.9352	0.2	plonger	61	verb	list	3	10	nomatch	rouler	-1	1	y	0.6647500000000001
576.1351	0.0	+	61	verb	list	3	11	nomatch	rouler	-1	1	y	0.6647500000000001
576.5349	0.0	+	61	verb	list	3	12	nomatch	rouler	-1	1	y	0.6647500000000001
578.534	0.0	ROULER	61	verb	list	3	13	nomatch	rouler	-1	1	y	0.6647500000000001
579.2503	0.0	+	61	verb	list	3	14	nomatch	rouler	-1	1	y	0.6647500000000001
579.1988	0.0	[response]	61	verb	list	3	15	nomatch	rouler	-1	1	y	0.6647500000000001
580.9496	0.0	+	62	verb	list	3	1	match	leur	3	1	p	0.68147
581.4993000000001	0.2	ltqjzw	62	verb	list	3	2	match	leur	3	1	p	0.68147
581.6993	0.0	+	62	verb	list	3	3	match	leur	3	1	p	0.68147
582.0991	0.2	nlxv	62	verb	list	3	4	match	leur	3	1	p	0.68147
582.299	0.0	+	62	verb	list	3	5	match	leur	3	1	p	0.68147
582.6988	0.2	leur	62	verb	list	3	6	match	leur	3	1	p	0.68147
582.8987	0.0	+	62	verb	list	3	7	match	leur	3	1	p	0.68147
583.2985	0.2	danser	62	verb	list	3	8	match	leur	3	1	p	0.68147
583.4984000000001	0.0	+	62	verb	list	3	9	match	leur	3	1	p	0.68147
583.8983000000001	0.2	blanc	62	verb	list	3	10	match	leur	3	1	p	0.68147
584.0982	0.0	+	62	verb	list	3	11	match	leur	3	1	p	0.68147
584.498	0.0	+	62	verb	list	3	12	match	leur	3	1	p	0.68147
586.4971	0.0	LEUR	62	verb	list	3	13	match	leur	3	1	p	0.68147
587.2301	0.0	+	62	verb	list	3	14	match	leur	3	1	p	0.68147
587.1786000000001	0.0	[response]	62	verb	list	3	15	match	leur	3	1	p	0.68147
604.8889	0.0	+	63	verb	list	3	1	match	vieux	4	1	p	0.5534200000000001
605.4387	0.2	zdkh	63	verb	list	3	2	match	vieux	4	1	p	0.5534200000000001
605.6386	0.0	+	63	verb	list	3	3	match	vieux	4	1	p	0.5534200000000001
606.0384	0.2	dgph	63	verb	list	3	4	match	vieux	4	1	p	0.5534200000000001
606.2383	0.0	+	63	verb	list	3	5	match	vieux	4	1	p	0.5534200000000001
606.6381	0.2	va	63	verb	list	3	6	match	vieux	4	1	p	0.5534200000000001
606.838	0.0	+	63	verb	list	3	7	match	vieux	4	1	p	0.5534200000000001
607.2378	0.2	vieux	63	verb	list	3	8	match	vieux	4	1	p	0.5534200000000001
607.4378	0.0	+	63	verb	list	3	9	match	vieux	4	1	p	0.5534200000000001
607.8376000000001	0.2	nager	63	verb	list	3	10	match	vieux	4	1	p	0.5534200000000001
608.0375	0.0	+	63	verb	list	3	11	match	vieux	4	1	p	0.5534200000000001
608.4373	0.0	+	63	verb	list	3	12	match	vieux	4	1	p	0.5534200000000001
610.4364	0.0	VIEUX	63	verb	list	3	13	match	vieux	4	1	p	0.5534200000000001
611.0528	0.0	+	63	verb	list	3	14	match	vieux	4	1	p	0.5534200000000001
610.9898000000002	0.0	[response]	63	verb	list	3	15	match	vieux	4	1	p	0.5534200000000001
612.8353000000001	0.0	+	64	verb	phrase	2	1	nomatch	paul	-1	1	y	0.5953100000000001
613.3851	0.2	ckmdljr	64	verb	phrase	2	2	nomatch	paul	-1	1	y	0.5953100000000001
613.585	0.0	+	64	verb	phrase	2	3	nomatch	paul	-1	1	y	0.5953100000000001
613.9848000000001	0.2	dkcf	64	verb	phrase	2	4	nomatch	paul	-1	1	y	0.5953100000000001
614.1847	0.0	+	64	verb	phrase	2	5	nomatch	paul	-1	1	y	0.5953100000000001
614.5846	0.2	th	64	verb	phrase	2	6	nomatch	paul	-1	1	y	0.5953100000000001
614.7845	0.0	+	64	verb	phrase	2	7	nomatch	paul	-1	1	y	0.5953100000000001
615.1843	0.2	plus	64	verb	phrase	2	8	nomatch	paul	-1	1	y	0.5953100000000001
615.3842	0.0	+	64	verb	phrase	2	9	nomatch	paul	-1	1	y	0.5953100000000001
615.784	0.2	danser	64	verb	phrase	2	10	nomatch	paul	-1	1	y	0.5953100000000001
615.9839000000001	0.0	+	64	verb	phrase	2	11	nomatch	paul	-1	1	y	0.5953100000000001
616.3838000000001	0.0	+	64	verb	phrase	2	12	nomatch	paul	-1	1	y	0.5953100000000001
618.3995	0.0	PAUL	64	verb	phrase	2	13	nomatch	paul	-1	1	y	0.5953100000000001
619.0492	0.0	+	64	verb	phrase	2	14	nomatch	paul	-1	1	y	0.5953100000000001
618.9948000000002	0.0	[response]	64	verb	phrase	2	15	nomatch	paul	-1	1	y	0.5953100000000001
620.7985	0.0	+	65	verb	phrase	1	1	nomatch	jade	-1	1	y	0.94237
621.3482	0.2	bsjf	65	verb	phrase	1	2	nomatch	jade	-1	1	y	0.94237
621.5481	0.0	+	65	verb	phrase	1	3	nomatch	jade	-1	1	y	0.94237
621.9479	0.2	nlxv	65	verb	phrase	1	4	nomatch	jade	-1	1	y	0.94237
622.1479	0.0	+	65	verb	phrase	1	5	nomatch	jade	-1	1	y	0.94237
622.5477	0.2	fhjp	65	verb	phrase	1	6	nomatch	jade	-1	1	y	0.94237
622.7476	0.0	+	65	verb	phrase	1	7	nomatch	jade	-1	1	y	0.94237
623.1474000000001	0.2	pwz	65	verb	phrase	1	8	nomatch	jade	-1	1	y	0.94237
623.3473	0.0	+	65	verb	phrase	1	9	nomatch	jade	-1	1	y	0.94237
623.7471	0.2	chasser	65	verb	phrase	1	10	nomatch	jade	-1	1	y	0.94237
623.947	0.0	+	65	verb	phrase	1	11	nomatch	jade	-1	1	y	0.94237
624.3469	0.0	+	65	verb	phrase	1	12	nomatch	jade	-1	1	y	0.94237
626.346	0.0	JADE	65	verb	phrase	1	13	nomatch	jade	-1	1	y	0.94237
627.3455	0.0	+	65	verb	phrase	1	14	nomatch	jade	-1	1	y	0.94237
627.2883	0.0	[response]	65	verb	phrase	1	15	nomatch	jade	-1	1	y	0.94237
628.7449	0.0	+	66	noun	list	1	1	nomatch	yves	-1	1	y	0.57412
629.2947	0.2	vzd	66	noun	list	1	2	nomatch	yves	-1	1	y	0.57412
629.4946	0.0	+	66	noun	list	1	3	nomatch	yves	-1	1	y	0.57412
629.8944	0.2	jsgh	66	noun	list	1	4	nomatch	yves	-1	1	y	0.57412
630.0943	0.0	+	66	noun	list	1	5	nomatch	yves	-1	1	y	0.57412
630.4941	0.2	th	66	noun	list	1	6	nomatch	yves	-1	1	y	0.57412
630.6940000000001	0.0	+	66	noun	list	1	7	nomatch	yves	-1	1	y	0.57412
631.0939	0.2	zxhg	66	noun	list	1	8	nomatch	yves	-1	1	y	0.57412
631.2938	0.0	+	66	noun	list	1	9	nomatch	yves	-1	1	y	0.57412
631.6936000000001	0.2	rocher	66	noun	list	1	10	nomatch	yves	-1	1	y	0.57412
631.8935	0.0	+	66	noun	list	1	11	nomatch	yves	-1	1	y	0.57412
632.2933	0.0	+	66	noun	list	1	12	nomatch	yves	-1	1	y	0.57412
634.2924	0.0	YVES	66	noun	list	1	13	nomatch	yves	-1	1	y	0.57412
634.9255	0.0	+	66	noun	list	1	14	nomatch	yves	-1	1	y	0.57412
634.8665	0.0	[response]	66	noun	list	1	15	nomatch	yves	-1	1	y	0.57412
636.6914	0.0	+	67	verb	list	4	1	nomatch	bleu	-1	1	y	0.65327
637.2411000000001	0.2	nwxjr	67	verb	list	4	2	nomatch	bleu	-1	1	y	0.65327
637.441	0.0	+	67	verb	list	4	3	nomatch	bleu	-1	1	y	0.65327
637.8408000000001	0.2	paul	67	verb	list	4	4	nomatch	bleu	-1	1	y	0.65327
638.0408	0.0	+	67	verb	list	4	5	nomatch	bleu	-1	1	y	0.65327
638.4406	0.2	leur	67	verb	list	4	6	nomatch	bleu	-1	1	y	0.65327
638.6405	0.0	+	67	verb	list	4	7	nomatch	bleu	-1	1	y	0.65327
639.0403	0.2	jongler	67	verb	list	4	8	nomatch	bleu	-1	1	y	0.65327
639.2402000000001	0.0	+	67	verb	list	4	9	nomatch	bleu	-1	1	y	0.65327
639.64	0.2	noir	67	verb	list	4	10	nomatch	bleu	-1	1	y	0.65327
639.8399000000001	0.0	+	67	verb	list	4	11	nomatch	bleu	-1	1	y	0.65327
640.2398000000001	0.0	+	67	verb	list	4	12	nomatch	bleu	-1	1	y	0.65327
642.2389000000001	0.0	BLEU	67	verb	list	4	13	nomatch	bleu	-1	1	y	0.65327
642.9552	0.0	+	67	verb	list	4	14	nomatch	bleu	-1	1	y	0.65327
642.8922	0.0	[response]	67	verb	list	4	15	nomatch	bleu	-1	1	y	0.65327
644.6378	0.0	+	68	verb	phrase	1	1	match	ainsi	5	1	p	0.42608000000000007
645.1877000000001	0.2	lqz	68	verb	phrase	1	2	match	ainsi	5	1	p	0.42608000000000007
645.3875	0.0	+	68	verb	phrase	1	3	match	ainsi	5	1	p	0.42608000000000007
645.7873000000001	0.2	lnqh	68	verb	phrase	1	4	match	ainsi	5	1	p	0.42608000000000007
645.9872	0.0	+	68	verb	phrase	1	5	match	ainsi	5	1	p	0.42608000000000007
646.3870000000001	0.2	fhjp	68	verb	phrase	1	6	match	ainsi	5	1	p	0.42608000000000007
646.5869	0.0	+	68	verb	phrase	1	7	match	ainsi	5	1	p	0.42608000000000007
646.9868	0.2	cjbrlnz	68	verb	phrase	1	8	match	ainsi	5	1	p	0.42608000000000007
647.1867	0.0	+	68	verb	phrase	1	9	match	ainsi	5	1	p	0.42608000000000007
647.5865	0.2	ainsi	68	verb	phrase	1	10	match	ainsi	5	1	p	0.42608000000000007
647.7864000000001	0.0	+	68	verb	phrase	1	11	match	ainsi	5	1	p	0.42608000000000007
648.1862	0.0	+	68	verb	phrase	1	12	match	ainsi	5	1	p	0.42608000000000007
650.1853	0.0	AINSI	68	verb	phrase	1	13	match	ainsi	5	1	p	0.42608000000000007
650.6685	0.0	+	68	verb	phrase	1	14	match	ainsi	5	1	p	0.42608000000000007
650.6114	0.0	[response]	68	verb	phrase	1	15	match	ainsi	5	1	p	0.42608000000000007
652.5843	0.0	+	69	noun	list	2	1	nomatch	vite	-1	1	y	0.8232
653.134	0.2	qgnz	69	noun	list	2	2	nomatch	vite	-1	1	y	0.8232
653.3339	0.0	+	69	noun	list	2	3	nomatch	vite	-1	1	y	0.8232
653.7338	0.2	jsgh	69	noun	list	2	4	nomatch	vite	-1	1	y	0.8232
653.9337	0.0	+	69	noun	list	2	5	nomatch	vite	-1	1	y	0.8232
654.3501	0.2	vcpx	69	noun	list	2	6	nomatch	vite	-1	1	y	0.8232
654.5500000000001	0.0	+	69	noun	list	2	7	nomatch	vite	-1	1	y	0.8232
654.9499000000001	0.2	casier	69	noun	list	2	8	nomatch	vite	-1	1	y	0.8232
655.1498	0.0	+	69	noun	list	2	9	nomatch	vite	-1	1	y	0.8232
655.5496	0.2	tard	69	noun	list	2	10	nomatch	vite	-1	1	y	0.8232
655.7495	0.0	+	69	noun	list	2	11	nomatch	vite	-1	1	y	0.8232
656.1493	0.0	+	69	noun	list	2	12	nomatch	vite	-1	1	y	0.8232
658.1484	0.0	VITE	69	noun	list	2	13	nomatch	vite	-1	1	y	0.8232
659.0314	0.0	+	69	noun	list	2	14	nomatch	vite	-1	1	y	0.8232
658.9716	0.0	[response]	69	noun	list	2	15	nomatch	vite	-1	1	y	0.8232
660.5474	0.0	+	70	verb	list	1	1	nomatch	plonger	-1	1	y	0.58653
661.0971000000001	0.2	kbfdljc	70	verb	list	1	2	nomatch	plonger	-1	1	y	0.58653
661.297	0.0	+	70	verb	list	1	3	nomatch	plonger	-1	1	y	0.58653
661.6969	0.2	rjbt	70	verb	list	1	4	nomatch	plonger	-1	1	y	0.58653
661.8968	0.0	+	70	verb	list	1	5	nomatch	plonger	-1	1	y	0.58653
662.2966	0.2	hjw	70	verb	list	1	6	nomatch	plonger	-1	1	y	0.58653
662.4965	0.0	+	70	verb	list	1	7	nomatch	plonger	-1	1	y	0.58653
662.8963	0.2	qbcd	70	verb	list	1	8	nomatch	plonger	-1	1	y	0.58653
663.0962000000001	0.0	+	70	verb	list	1	9	nomatch	plonger	-1	1	y	0.58653
663.4961000000001	0.2	patiner	70	verb	list	1	10	nomatch	plonger	-1	1	y	0.58653
663.696	0.0	+	70	verb	list	1	11	nomatch	plonger	-1	1	y	0.58653
664.0958	0.0	+	70	verb	list	1	12	nomatch	plonger	-1	1	y	0.58653
666.0949	0.0	PLONGER	70	verb	list	1	13	nomatch	plonger	-1	1	y	0.58653
666.7446	0.0	+	70	verb	list	1	14	nomatch	plonger	-1	1	y	0.58653
666.6814	0.0	[response]	70	verb	list	1	15	nomatch	plonger	-1	1	y	0.58653
668.4938	0.0	+	71	noun	list	1	1	match	vite	5	1	p	0.52155
669.0436	0.2	gxjc	71	noun	list	1	2	match	vite	5	1	p	0.52155
669.2435	0.0	+	71	noun	list	1	3	match	vite	5	1	p	0.52155
669.6433000000001	0.2	jsgh	71	noun	list	1	4	match	vite	5	1	p	0.52155
669.8432	0.0	+	71	noun	list	1	5	match	vite	5	1	p	0.52155
670.243	0.2	vcpx	71	noun	list	1	6	match	vite	5	1	p	0.52155
670.443	0.0	+	71	noun	list	1	7	match	vite	5	1	p	0.52155
670.8428	0.2	mthzjxq	71	noun	list	1	8	match	vite	5	1	p	0.52155
671.0427	0.0	+	71	noun	list	1	9	match	vite	5	1	p	0.52155
671.4425	0.2	vite	71	noun	list	1	10	match	vite	5	1	p	0.52155
671.6424000000001	0.0	+	71	noun	list	1	11	match	vite	5	1	p	0.52155
672.0422	0.0	+	71	noun	list	1	12	match	vite	5	1	p	0.52155
674.0414000000001	0.0	VITE	71	noun	list	1	13	match	vite	5	1	p	0.52155
674.6244	0.0	+	71	noun	list	1	14	match	vite	5	1	p	0.52155
674.5629	0.0	[response]	71	noun	list	1	15	match	vite	5	1	p	0.52155
676.4403	0.0	+	72	verb	phrase	1	1	match	moins	5	1	p	0.40344
676.99	0.2	fzdtgjp	72	verb	phrase	1	2	match	moins	5	1	p	0.40344
677.1899	0.0	+	72	verb	phrase	1	3	match	moins	5	1	p	0.40344
677.5898	0.2	lnqh	72	verb	phrase	1	4	match	moins	5	1	p	0.40344
677.7897	0.0	+	72	verb	phrase	1	5	match	moins	5	1	p	0.40344
678.1895000000001	0.2	fhjp	72	verb	phrase	1	6	match	moins	5	1	p	0.40344
678.3894	0.0	+	72	verb	phrase	1	7	match	moins	5	1	p	0.40344
678.7892	0.2	jfxdtrp	72	verb	phrase	1	8	match	moins	5	1	p	0.40344
678.9891	0.0	+	72	verb	phrase	1	9	match	moins	5	1	p	0.40344
679.389	0.2	moins	72	verb	phrase	1	10	match	moins	5	1	p	0.40344
679.5889	0.0	+	72	verb	phrase	1	11	match	moins	5	1	p	0.40344
679.9887	0.0	+	72	verb	phrase	1	12	match	moins	5	1	p	0.40344
681.9878	0.0	MOINS	72	verb	phrase	1	13	match	moins	5	1	p	0.40344
682.4543	0.0	+	72	verb	phrase	1	14	match	moins	5	1	p	0.40344
682.3912	0.0	[response]	72	verb	phrase	1	15	match	moins	5	1	p	0.40344
692.3998	0.0	+	73	verb	list	2	1	match	petit	4	1	p	0.58712
692.9496	0.2	dnbrq	73	verb	list	2	2	match	petit	4	1	p	0.58712
693.1495	0.0	+	73	verb	list	2	3	match	petit	4	1	p	0.58712
693.5493	0.2	qrdf	73	verb	list	2	4	match	petit	4	1	p	0.58712
693.7492	0.0	+	73	verb	list	2	5	match	petit	4	1	p	0.58712
694.149	0.2	th	73	verb	list	2	6	match	petit	4	1	p	0.58712
694.3489000000001	0.0	+	73	verb	list	2	7	match	petit	4	1	p	0.58712
694.7488000000001	0.2	petit	73	verb	list	2	8	match	petit	4	1	p	0.58712
694.9487	0.0	+	73	verb	list	2	9	match	petit	4	1	p	0.58712
695.3485000000001	0.2	nager	73	verb	list	2	10	match	petit	4	1	p	0.58712
695.5484	0.0	+	73	verb	list	2	11	match	petit	4	1	p	0.58712
695.9482	0.0	+	73	verb	list	2	12	match	petit	4	1	p	0.58712
697.9473	0.0	PETIT	73	verb	list	2	13	match	petit	4	1	p	0.58712
698.5971000000001	0.0	+	73	verb	list	2	14	match	petit	4	1	p	0.58712
698.5345	0.0	[response]	73	verb	list	2	15	match	petit	4	1	p	0.58712
700.3463	0.0	+	74	verb	list	2	1	match	voyager	4	1	p	0.38689
700.8960000000001	0.2	njdgb	74	verb	list	2	2	match	voyager	4	1	p	0.38689
701.0959	0.0	+	74	verb	list	2	3	match	voyager	4	1	p	0.38689
701.4958	0.2	nlxv	74	verb	list	2	4	match	voyager	4	1	p	0.38689
701.6957	0.0	+	74	verb	list	2	5	match	voyager	4	1	p	0.38689
702.0955	0.2	smdc	74	verb	list	2	6	match	voyager	4	1	p	0.38689
702.2954	0.0	+	74	verb	list	2	7	match	voyager	4	1	p	0.38689
702.6952	0.2	voyager	74	verb	list	2	8	match	voyager	4	1	p	0.38689
702.8951000000001	0.0	+	74	verb	list	2	9	match	voyager	4	1	p	0.38689
703.2950000000001	0.2	blanc	74	verb	list	2	10	match	voyager	4	1	p	0.38689
703.4949	0.0	+	74	verb	list	2	11	match	voyager	4	1	p	0.38689
703.8947000000001	0.0	+	74	verb	list	2	12	match	voyager	4	1	p	0.38689
705.8938	0.0	VOYAGER	74	verb	list	2	13	match	voyager	4	1	p	0.38689
706.3436	0.0	+	74	verb	list	2	14	match	voyager	4	1	p	0.38689
706.2807	0.0	[response]	74	verb	list	2	15	match	voyager	4	1	p	0.38689
708.2927	0.0	+	75	verb	list	4	1	match	danser	4	1	p	0.47184
708.8425	0.2	mkt	75	verb	list	4	2	match	danser	4	1	p	0.47184
709.0424	0.0	+	75	verb	list	4	3	match	danser	4	1	p	0.47184
709.4422000000001	0.2	adam	75	verb	list	4	4	match	danser	4	1	p	0.47184
709.6421	0.0	+	75	verb	list	4	5	match	danser	4	1	p	0.47184
710.0419	0.2	son	75	verb	list	4	6	match	danser	4	1	p	0.47184
710.2418	0.0	+	75	verb	list	4	7	match	danser	4	1	p	0.47184
710.6417	0.2	danser	75	verb	list	4	8	match	danser	4	1	p	0.47184
710.8416	0.0	+	75	verb	list	4	9	match	danser	4	1	p	0.47184
711.2414	0.2	vert	75	verb	list	4	10	match	danser	4	1	p	0.47184
711.4413000000001	0.0	+	75	verb	list	4	11	match	danser	4	1	p	0.47184
711.8411	0.0	+	75	verb	list	4	12	match	danser	4	1	p	0.47184
713.8402	0.0	DANSER	75	verb	list	4	13	match	danser	4	1	p	0.47184
714.3733	0.0	+	75	verb	list	4	14	match	danser	4	1	p	0.47184
714.3121000000001	0.0	[response]	75	verb	list	4	15	match	danser	4	1	p	0.47184
716.2392	0.0	+	76	verb	phrase	1	1	nomatch	rouler	-1	1	y	0.69225
716.7889	0.2	jhsv	76	verb	phrase	1	2	nomatch	rouler	-1	1	y	0.69225
716.9888	0.0	+	76	verb	phrase	1	3	nomatch	rouler	-1	1	y	0.69225
717.3887	0.2	nlxv	76	verb	phrase	1	4	nomatch	rouler	-1	1	y	0.69225
717.5886	0.0	+	76	verb	phrase	1	5	nomatch	rouler	-1	1	y	0.69225
717.9884000000001	0.2	vcpx	76	verb	phrase	1	6	nomatch	rouler	-1	1	y	0.69225
718.1883	0.0	+	76	verb	phrase	1	7	nomatch	rouler	-1	1	y	0.69225
718.5881	0.2	lwhd	76	verb	phrase	1	8	nomatch	rouler	-1	1	y	0.69225
718.788	0.0	+	76	verb	phrase	1	9	nomatch	rouler	-1	1	y	0.69225
719.1879	0.2	patiner	76	verb	phrase	1	10	nomatch	rouler	-1	1	y	0.69225
719.3878	0.0	+	76	verb	phrase	1	11	nomatch	rouler	-1	1	y	0.69225
719.7876	0.0	+	76	verb	phrase	1	12	nomatch	rouler	-1	1	y	0.69225
721.7867	0.0	ROULER	76	verb	phrase	1	13	nomatch	rouler	-1	1	y	0.69225
722.5364000000001	0.0	+	76	verb	phrase	1	14	nomatch	rouler	-1	1	y	0.69225
722.4789000000001	0.0	[response]	76	verb	phrase	1	15	nomatch	rouler	-1	1	y	0.69225
724.1856	0.0	+	77	noun	list	3	1	match	moins	4	1	p	0.58975
724.7354	0.2	gnzxcr	77	noun	list	3	2	match	moins	4	1	p	0.58975
724.9353	0.0	+	77	noun	list	3	3	match	moins	4	1	p	0.58975
725.3351	0.2	cqx	77	noun	list	3	4	match	moins	4	1	p	0.58975
725.535	0.0	+	77	noun	list	3	5	match	moins	4	1	p	0.58975
725.9348	0.2	mon	77	noun	list	3	6	match	moins	4	1	p	0.58975
726.1347000000001	0.0	+	77	noun	list	3	7	match	moins	4	1	p	0.58975
726.5346000000001	0.2	moins	77	noun	list	3	8	match	moins	4	1	p	0.58975
726.7345	0.0	+	77	noun	list	3	9	match	moins	4	1	p	0.58975
727.1343	0.2	cendrier	77	noun	list	3	10	match	moins	4	1	p	0.58975
727.3342	0.0	+	77	noun	list	3	11	match	moins	4	1	p	0.58975
727.734	0.0	+	77	noun	list	3	12	match	moins	4	1	p	0.58975
729.7498	0.0	MOINS	77	noun	list	3	13	match	moins	4	1	p	0.58975
730.3995	0.0	+	77	noun	list	3	14	match	moins	4	1	p	0.58975
730.3396	0.0	[response]	77	noun	list	3	15	match	moins	4	1	p	0.58975
732.1487	0.0	+	78	verb	list	2	1	match	nouveau	4	1	p	0.70937
732.6985	0.2	wsz	78	verb	list	2	2	match	nouveau	4	1	p	0.70937
732.8984	0.0	+	78	verb	list	2	3	match	nouveau	4	1	p	0.70937
733.2982000000001	0.2	dkjf	78	verb	list	2	4	match	nouveau	4	1	p	0.70937
733.4981	0.0	+	78	verb	list	2	5	match	nouveau	4	1	p	0.70937
733.898	0.2	vcpx	78	verb	list	2	6	match	nouveau	4	1	p	0.70937
734.0979	0.0	+	78	verb	list	2	7	match	nouveau	4	1	p	0.70937
734.4977	0.2	nouveau	78	verb	list	2	8	match	nouveau	4	1	p	0.70937
734.6976	0.0	+	78	verb	list	2	9	match	nouveau	4	1	p	0.70937
735.0974	0.2	plonger	78	verb	list	2	10	match	nouveau	4	1	p	0.70937
735.2973000000001	0.0	+	78	verb	list	2	11	match	nouveau	4	1	p	0.70937
735.6971	0.0	+	78	verb	list	2	12	match	nouveau	4	1	p	0.70937
737.6963000000001	0.0	NOUVEAU	78	verb	list	2	13	match	nouveau	4	1	p	0.70937
738.4626000000001	0.0	+	78	verb	list	2	14	match	nouveau	4	1	p	0.70937
738.4056	0.0	[response]	78	verb	list	2	15	match	nouveau	4	1	p	0.70937
748.0916	0.0	+	79	noun	phrase	1	1	nomatch	vite	-1	1	y	0.6070700000000001
748.6414	0.2	fkgwj	79	noun	phrase	1	2	nomatch	vite	-1	1	y	0.6070700000000001
748.8413	0.0	+	79	noun	phrase	1	3	nomatch	vite	-1	1	y	0.6070700000000001
749.2411000000001	0.2	jsgh	79	noun	phrase	1	4	nomatch	vite	-1	1	y	0.6070700000000001
749.441	0.0	+	79	noun	phrase	1	5	nomatch	vite	-1	1	y	0.6070700000000001
749.8408000000001	0.2	wbn	79	noun	phrase	1	6	nomatch	vite	-1	1	y	0.6070700000000001
750.0408	0.0	+	79	noun	phrase	1	7	nomatch	vite	-1	1	y	0.6070700000000001
750.4406	0.2	grlcd	79	noun	phrase	1	8	nomatch	vite	-1	1	y	0.6070700000000001
750.6405	0.0	+	79	noun	phrase	1	9	nomatch	vite	-1	1	y	0.6070700000000001
751.0403	0.2	tablier	79	noun	phrase	1	10	nomatch	vite	-1	1	y	0.6070700000000001
751.2402000000001	0.0	+	79	noun	phrase	1	11	nomatch	vite	-1	1	y	0.6070700000000001
751.64	0.0	+	79	noun	phrase	1	12	nomatch	vite	-1	1	y	0.6070700000000001
753.6391	0.0	VITE	79	noun	phrase	1	13	nomatch	vite	-1	1	y	0.6070700000000001
754.3055	0.0	+	79	noun	phrase	1	14	nomatch	vite	-1	1	y	0.6070700000000001
754.2462	0.0	[response]	79	noun	phrase	1	15	nomatch	vite	-1	1	y	0.6070700000000001
756.0381	0.0	+	80	verb	list	2	1	match	chasser	5	1	p	0.55452
756.5878	0.2	vnlj	80	verb	list	2	2	match	chasser	5	1	p	0.55452
756.7877	0.0	+	80	verb	list	2	3	match	chasser	5	1	p	0.55452
757.1876	0.2	grd	80	verb	list	2	4	match	chasser	5	1	p	0.55452
757.3875	0.0	+	80	verb	list	2	5	match	chasser	5	1	p	0.55452
757.7873000000001	0.2	fhjp	80	verb	list	2	6	match	chasser	5	1	p	0.55452
757.9872	0.0	+	80	verb	list	2	7	match	chasser	5	1	p	0.55452
758.3870000000001	0.2	beau	80	verb	list	2	8	match	chasser	5	1	p	0.55452
758.5869	0.0	+	80	verb	list	2	9	match	chasser	5	1	p	0.55452
758.9867	0.2	chasser	80	verb	list	2	10	match	chasser	5	1	p	0.55452
759.1867	0.0	+	80	verb	list	2	11	match	chasser	5	1	p	0.55452
759.5865	0.0	+	80	verb	list	2	12	match	chasser	5	1	p	0.55452
761.5856	0.0	CHASSER	80	verb	list	2	13	match	chasser	5	1	p	0.55452
762.202	0.0	+	80	verb	list	2	14	match	chasser	5	1	p	0.55452
763.9845	0.0	+	80	verb	list	2	15	match	chasser	5	1	p	0.55452
783.1093000000001	0.0	+	80	verb	list	2	16	match	chasser	5	1	p	0.55452
762.1401000000001	0.0	[response]	80	verb	list	2	17	match	chasser	5	1	p	0.55452
