onset	duration	stim	trial_number	trial_type	trial_structure	trial_length	sequential_position	probe_type	probe	probe_position	response_correct	response_key	response_time
0.06690000000000396	0.0	+	1	noun	list	3	1	nomatch	noir	-1	1	y	1.5302
0.5501000000000005	0.2	kgx	1	noun	list	3	2	nomatch	noir	-1	1	y	1.5302
0.75	0.0	+	1	noun	list	3	3	nomatch	noir	-1	1	y	1.5302
1.1498000000000133	0.2	rjbt	1	noun	list	3	4	nomatch	noir	-1	1	y	1.5302
1.3497000000000128	0.0	+	1	noun	list	3	5	nomatch	noir	-1	1	y	1.5302
1.7495000000000118	0.2	mon	1	noun	list	3	6	nomatch	noir	-1	1	y	1.5302
1.9494000000000113	0.0	+	1	noun	list	3	7	nomatch	noir	-1	1	y	1.5302
2.3492000000000104	0.2	plus	1	noun	list	3	8	nomatch	noir	-1	1	y	1.5302
2.5492000000000132	0.0	+	1	noun	list	3	9	nomatch	noir	-1	1	y	1.5302
2.9490000000000123	0.2	rocher	1	noun	list	3	10	nomatch	noir	-1	1	y	1.5302
3.148900000000012	0.0	+	1	noun	list	3	11	nomatch	noir	-1	1	y	1.5302
3.548700000000011	0.0	+	1	noun	list	3	12	nomatch	noir	-1	1	y	1.5302
5.547800000000009	0.0	NOIR	1	noun	list	3	13	nomatch	noir	-1	1	y	1.5302
7.130400000000009	0.0	+	1	noun	list	3	14	nomatch	noir	-1	1	y	1.5302
7.078100000000006	0.0	[response]	1	noun	list	3	15	nomatch	noir	-1	1	y	1.5302
7.94680000000001	0.0	+	2	noun	phrase	3	1	nomatch	adam	-1	1	y	0.84553
8.496500000000012	0.2	rtxs	2	noun	phrase	3	2	nomatch	adam	-1	1	y	0.84553
8.696400000000011	0.0	+	2	noun	phrase	3	3	nomatch	adam	-1	1	y	0.84553
9.09620000000001	0.2	dkjf	2	noun	phrase	3	4	nomatch	adam	-1	1	y	0.84553
9.29610000000001	0.0	+	2	noun	phrase	3	5	nomatch	adam	-1	1	y	0.84553
9.696000000000012	0.2	son	2	noun	phrase	3	6	nomatch	adam	-1	1	y	0.84553
9.895900000000012	0.0	+	2	noun	phrase	3	7	nomatch	adam	-1	1	y	0.84553
10.29570000000001	0.2	clavier	2	noun	phrase	3	8	nomatch	adam	-1	1	y	0.84553
10.49560000000001	0.0	+	2	noun	phrase	3	9	nomatch	adam	-1	1	y	0.84553
10.89540000000001	0.2	blanc	2	noun	phrase	3	10	nomatch	adam	-1	1	y	0.84553
11.095300000000009	0.0	+	2	noun	phrase	3	11	nomatch	adam	-1	1	y	0.84553
11.495200000000011	0.0	+	2	noun	phrase	3	12	nomatch	adam	-1	1	y	0.84553
13.49430000000001	0.0	ADAM	2	noun	phrase	3	13	nomatch	adam	-1	1	y	0.84553
14.393900000000002	0.0	+	2	noun	phrase	3	14	nomatch	adam	-1	1	y	0.84553
14.339800000000011	0.0	[response]	2	noun	phrase	3	15	nomatch	adam	-1	1	y	0.84553
15.893200000000007	0.0	+	3	verb	phrase	1	1	nomatch	leur	-1	1	y	0.83246
16.4435	0.2	cmswvlz	3	verb	phrase	1	2	nomatch	leur	-1	1	y	0.83246
16.64290000000001	0.0	+	3	verb	phrase	1	3	nomatch	leur	-1	1	y	0.83246
17.04270000000001	0.2	lnqh	3	verb	phrase	1	4	nomatch	leur	-1	1	y	0.83246
17.24260000000001	0.0	+	3	verb	phrase	1	5	nomatch	leur	-1	1	y	0.83246
17.64240000000001	0.2	th	3	verb	phrase	1	6	nomatch	leur	-1	1	y	0.83246
17.84230000000001	0.0	+	3	verb	phrase	1	7	nomatch	leur	-1	1	y	0.83246
18.24220000000001	0.2	zxhg	3	verb	phrase	1	8	nomatch	leur	-1	1	y	0.83246
18.442400000000006	0.0	+	3	verb	phrase	1	9	nomatch	leur	-1	1	y	0.83246
18.84190000000001	0.2	plonger	3	verb	phrase	1	10	nomatch	leur	-1	1	y	0.83246
19.04180000000001	0.0	+	3	verb	phrase	1	11	nomatch	leur	-1	1	y	0.83246
19.441600000000008	0.0	+	3	verb	phrase	1	12	nomatch	leur	-1	1	y	0.83246
21.440700000000007	0.0	LEUR	3	verb	phrase	1	13	nomatch	leur	-1	1	y	0.83246
22.340300000000013	0.0	+	3	verb	phrase	1	14	nomatch	leur	-1	1	y	0.83246
22.273200000000003	0.0	[response]	3	verb	phrase	1	15	nomatch	leur	-1	1	y	0.83246
23.839600000000004	0.0	+	4	noun	phrase	2	1	match	bleu	5	1	p	0.76594
24.38940000000001	0.2	rvh	4	noun	phrase	2	2	match	bleu	5	1	p	0.76594
24.58930000000001	0.0	+	4	noun	phrase	2	3	match	bleu	5	1	p	0.76594
24.989100000000008	0.2	grd	4	noun	phrase	2	4	match	bleu	5	1	p	0.76594
25.189000000000007	0.0	+	4	noun	phrase	2	5	match	bleu	5	1	p	0.76594
25.58890000000001	0.2	wbn	4	noun	phrase	2	6	match	bleu	5	1	p	0.76594
25.78880000000001	0.0	+	4	noun	phrase	2	7	match	bleu	5	1	p	0.76594
26.188600000000008	0.2	grenier	4	noun	phrase	2	8	match	bleu	5	1	p	0.76594
26.388500000000008	0.0	+	4	noun	phrase	2	9	match	bleu	5	1	p	0.76594
26.788300000000007	0.2	bleu	4	noun	phrase	2	10	match	bleu	5	1	p	0.76594
26.98830000000001	0.0	+	4	noun	phrase	2	11	match	bleu	5	1	p	0.76594
27.38810000000001	0.0	+	4	noun	phrase	2	12	match	bleu	5	1	p	0.76594
29.387200000000007	0.0	BLEU	4	noun	phrase	2	13	match	bleu	5	1	p	0.76594
30.220100000000002	0.0	+	4	noun	phrase	2	14	match	bleu	5	1	p	0.76594
30.15310000000001	0.0	[response]	4	noun	phrase	2	15	match	bleu	5	1	p	0.76594
31.786100000000005	0.0	+	5	noun	list	1	1	nomatch	beaucoup	-1	1	y	0.77794
32.33590000000001	0.2	lrq	5	noun	list	1	2	nomatch	beaucoup	-1	1	y	0.77794
32.53580000000001	0.0	+	5	noun	list	1	3	nomatch	beaucoup	-1	1	y	0.77794
32.93560000000001	0.2	lnqh	5	noun	list	1	4	nomatch	beaucoup	-1	1	y	0.77794
33.13550000000001	0.0	+	5	noun	list	1	5	nomatch	beaucoup	-1	1	y	0.77794
33.53530000000001	0.2	hjw	5	noun	list	1	6	nomatch	beaucoup	-1	1	y	0.77794
33.735200000000006	0.0	+	5	noun	list	1	7	nomatch	beaucoup	-1	1	y	0.77794
34.13510000000001	0.2	gktvfz	5	noun	list	1	8	nomatch	beaucoup	-1	1	y	0.77794
34.33500000000001	0.0	+	5	noun	list	1	9	nomatch	beaucoup	-1	1	y	0.77794
34.73480000000001	0.2	plus	5	noun	list	1	10	nomatch	beaucoup	-1	1	y	0.77794
34.93470000000001	0.0	+	5	noun	list	1	11	nomatch	beaucoup	-1	1	y	0.77794
35.334500000000006	0.0	+	5	noun	list	1	12	nomatch	beaucoup	-1	1	y	0.77794
37.333600000000004	0.0	BEAUCOUP	5	noun	list	1	13	nomatch	beaucoup	-1	1	y	0.77794
38.1666	0.0	+	5	noun	list	1	14	nomatch	beaucoup	-1	1	y	0.77794
38.11160000000001	0.0	[response]	5	noun	list	1	15	nomatch	beaucoup	-1	1	y	0.77794
39.7492	0.0	+	6	noun	list	3	1	match	doit	3	1	p	1.6799
40.29900000000001	0.2	lmvfzj	6	noun	list	3	2	match	doit	3	1	p	1.6799
40.498900000000006	0.0	+	6	noun	list	3	3	match	doit	3	1	p	1.6799
40.898700000000005	0.2	qrdf	6	noun	list	3	4	match	doit	3	1	p	1.6799
41.098600000000005	0.0	+	6	noun	list	3	5	match	doit	3	1	p	1.6799
41.498400000000004	0.2	doit	6	noun	list	3	6	match	doit	3	1	p	1.6799
41.6983	0.0	+	6	noun	list	3	7	match	doit	3	1	p	1.6799
42.098200000000006	0.2	grenier	6	noun	list	3	8	match	doit	3	1	p	1.6799
42.29830000000001	0.0	+	6	noun	list	3	9	match	doit	3	1	p	1.6799
42.697900000000004	0.2	vite	6	noun	list	3	10	match	doit	3	1	p	1.6799
42.897800000000004	0.0	+	6	noun	list	3	11	match	doit	3	1	p	1.6799
43.2976	0.0	+	6	noun	list	3	12	match	doit	3	1	p	1.6799
45.2967	0.0	DOIT	6	noun	list	3	13	match	doit	3	1	p	1.6799
47.029300000000006	0.0	+	6	noun	list	3	14	match	doit	3	1	p	1.6799
46.97670000000001	0.0	[response]	6	noun	list	3	15	match	doit	3	1	p	1.6799
63.688500000000005	0.0	+	7	verb	phrase	2	1	nomatch	jongler	-1	1	y	0.8170900000000001
64.23830000000001	0.2	fqztdk	7	verb	phrase	2	2	nomatch	jongler	-1	1	y	0.8170900000000001
64.4382	0.0	+	7	verb	phrase	2	3	nomatch	jongler	-1	1	y	0.8170900000000001
64.838	0.2	nfzp	7	verb	phrase	2	4	nomatch	jongler	-1	1	y	0.8170900000000001
65.03790000000001	0.0	+	7	verb	phrase	2	5	nomatch	jongler	-1	1	y	0.8170900000000001
65.4377	0.2	vcpx	7	verb	phrase	2	6	nomatch	jongler	-1	1	y	0.8170900000000001
65.6377	0.0	+	7	verb	phrase	2	7	nomatch	jongler	-1	1	y	0.8170900000000001
66.0375	0.2	rouler	7	verb	phrase	2	8	nomatch	jongler	-1	1	y	0.8170900000000001
66.23740000000001	0.0	+	7	verb	phrase	2	9	nomatch	jongler	-1	1	y	0.8170900000000001
66.6372	0.2	tôt	7	verb	phrase	2	10	nomatch	jongler	-1	1	y	0.8170900000000001
66.83710000000002	0.0	+	7	verb	phrase	2	11	nomatch	jongler	-1	1	y	0.8170900000000001
67.23690000000002	0.0	+	7	verb	phrase	2	12	nomatch	jongler	-1	1	y	0.8170900000000001
69.2361	0.0	JONGLER	7	verb	phrase	2	13	nomatch	jongler	-1	1	y	0.8170900000000001
70.119	0.0	+	7	verb	phrase	2	14	nomatch	jongler	-1	1	y	0.8170900000000001
70.0531	0.0	[response]	7	verb	phrase	2	15	nomatch	jongler	-1	1	y	0.8170900000000001
71.63500000000002	0.0	+	8	noun	list	3	1	match	leur	3	1	p	0.56499
72.18470000000002	0.2	tnjkdh	8	noun	list	3	2	match	leur	3	1	p	0.56499
72.3846	0.0	+	8	noun	list	3	3	match	leur	3	1	p	0.56499
72.78450000000001	0.2	cqx	8	noun	list	3	4	match	leur	3	1	p	0.56499
72.9844	0.0	+	8	noun	list	3	5	match	leur	3	1	p	0.56499
73.38419999999999	0.2	leur	8	noun	list	3	6	match	leur	3	1	p	0.56499
73.5841	0.0	+	8	noun	list	3	7	match	leur	3	1	p	0.56499
73.9839	0.2	trop	8	noun	list	3	8	match	leur	3	1	p	0.56499
74.18380000000002	0.0	+	8	noun	list	3	9	match	leur	3	1	p	0.56499
74.5837	0.2	grenier	8	noun	list	3	10	match	leur	3	1	p	0.56499
74.7836	0.0	+	8	noun	list	3	11	match	leur	3	1	p	0.56499
75.20000000000002	0.0	+	8	noun	list	3	12	match	leur	3	1	p	0.56499
77.19920000000002	0.0	LEUR	8	noun	list	3	13	match	leur	3	1	p	0.56499
77.81560000000002	0.0	+	8	noun	list	3	14	match	leur	3	1	p	0.56499
77.76410000000001	0.0	[response]	8	noun	list	3	15	match	leur	3	1	p	0.56499
87.59450000000001	0.0	+	9	noun	phrase	4	1	nomatch	petit	-1	1	y	0.84872
88.14430000000002	0.2	xkh	9	noun	phrase	4	2	nomatch	petit	-1	1	y	0.84872
88.3442	0.0	+	9	noun	phrase	4	3	nomatch	petit	-1	1	y	0.84872
88.744	0.2	avec	9	noun	phrase	4	4	nomatch	petit	-1	1	y	0.84872
88.94390000000001	0.0	+	9	noun	phrase	4	5	nomatch	petit	-1	1	y	0.84872
89.34370000000001	0.2	son	9	noun	phrase	4	6	nomatch	petit	-1	1	y	0.84872
89.5436	0.0	+	9	noun	phrase	4	7	nomatch	petit	-1	1	y	0.84872
89.9435	0.2	rocher	9	noun	phrase	4	8	nomatch	petit	-1	1	y	0.84872
90.14340000000001	0.0	+	9	noun	phrase	4	9	nomatch	petit	-1	1	y	0.84872
90.54320000000001	0.2	blanc	9	noun	phrase	4	10	nomatch	petit	-1	1	y	0.84872
90.7431	0.0	+	9	noun	phrase	4	11	nomatch	petit	-1	1	y	0.84872
91.1429	0.0	+	9	noun	phrase	4	12	nomatch	petit	-1	1	y	0.84872
93.1421	0.0	PETIT	9	noun	phrase	4	13	nomatch	petit	-1	1	y	0.84872
94.0583	0.0	+	9	noun	phrase	4	14	nomatch	petit	-1	1	y	0.84872
93.99080000000004	0.0	[response]	9	noun	phrase	4	15	nomatch	petit	-1	1	y	0.84872
95.541	0.0	+	10	noun	phrase	1	1	nomatch	yves	-1	1	y	0.73745
96.0907	0.2	wpbkrs	10	noun	phrase	1	2	nomatch	yves	-1	1	y	0.73745
96.29060000000001	0.0	+	10	noun	phrase	1	3	nomatch	yves	-1	1	y	0.73745
96.69050000000001	0.2	jqzp	10	noun	phrase	1	4	nomatch	yves	-1	1	y	0.73745
96.8904	0.0	+	10	noun	phrase	1	5	nomatch	yves	-1	1	y	0.73745
97.2902	0.2	wbn	10	noun	phrase	1	6	nomatch	yves	-1	1	y	0.73745
97.49010000000001	0.0	+	10	noun	phrase	1	7	nomatch	yves	-1	1	y	0.73745
97.88990000000001	0.2	njchwpdb	10	noun	phrase	1	8	nomatch	yves	-1	1	y	0.73745
98.0898	0.0	+	10	noun	phrase	1	9	nomatch	yves	-1	1	y	0.73745
98.4897	0.2	vieux	10	noun	phrase	1	10	nomatch	yves	-1	1	y	0.73745
98.68960000000001	0.0	+	10	noun	phrase	1	11	nomatch	yves	-1	1	y	0.73745
99.08940000000001	0.0	+	10	noun	phrase	1	12	nomatch	yves	-1	1	y	0.73745
101.08850000000001	0.0	YVES	10	noun	phrase	1	13	nomatch	yves	-1	1	y	0.73745
101.88810000000001	0.0	+	10	noun	phrase	1	14	nomatch	yves	-1	1	y	0.73745
101.82590000000002	0.0	[response]	10	noun	phrase	1	15	nomatch	yves	-1	1	y	0.73745
103.48740000000001	0.0	+	11	noun	list	2	1	match	loin	5	1	p	0.7225
104.03720000000001	0.2	cnqmldt	11	noun	list	2	2	match	loin	5	1	p	0.7225
104.2371	0.0	+	11	noun	list	2	3	match	loin	5	1	p	0.7225
104.6369	0.2	dkjf	11	noun	list	2	4	match	loin	5	1	p	0.7225
104.83680000000001	0.0	+	11	noun	list	2	5	match	loin	5	1	p	0.7225
105.23660000000001	0.2	fhjp	11	noun	list	2	6	match	loin	5	1	p	0.7225
105.4366	0.0	+	11	noun	list	2	7	match	loin	5	1	p	0.7225
105.8364	0.2	voilier	11	noun	list	2	8	match	loin	5	1	p	0.7225
106.03630000000001	0.0	+	11	noun	list	2	9	match	loin	5	1	p	0.7225
106.43610000000001	0.2	loin	11	noun	list	2	10	match	loin	5	1	p	0.7225
106.636	0.0	+	11	noun	list	2	11	match	loin	5	1	p	0.7225
107.0358	0.0	+	11	noun	list	2	12	match	loin	5	1	p	0.7225
109.0349	0.0	LOIN	11	noun	list	2	13	match	loin	5	1	p	0.7225
109.81790000000001	0.0	+	11	noun	list	2	14	match	loin	5	1	p	0.7225
109.75740000000002	0.0	[response]	11	noun	list	2	15	match	loin	5	1	p	0.7225
111.4339	0.0	+	12	noun	list	1	1	match	vite	5	1	p	0.4177600000000001
111.9838	0.2	zqmgpv	12	noun	list	1	2	match	vite	5	1	p	0.4177600000000001
112.18360000000001	0.0	+	12	noun	list	1	3	match	vite	5	1	p	0.4177600000000001
112.6	0.2	grd	12	noun	list	1	4	match	vite	5	1	p	0.4177600000000001
112.79990000000001	0.0	+	12	noun	list	1	5	match	vite	5	1	p	0.4177600000000001
113.19980000000001	0.2	vcpx	12	noun	list	1	6	match	vite	5	1	p	0.4177600000000001
113.3997	0.0	+	12	noun	list	1	7	match	vite	5	1	p	0.4177600000000001
113.7995	0.2	vndzgqs	12	noun	list	1	8	match	vite	5	1	p	0.4177600000000001
113.99940000000001	0.0	+	12	noun	list	1	9	match	vite	5	1	p	0.4177600000000001
114.39920000000001	0.2	vite	12	noun	list	1	10	match	vite	5	1	p	0.4177600000000001
114.59909999999999	0.0	+	12	noun	list	1	11	match	vite	5	1	p	0.4177600000000001
114.999	0.0	+	12	noun	list	1	12	match	vite	5	1	p	0.4177600000000001
116.9981	0.0	VITE	12	noun	list	1	13	match	vite	5	1	p	0.4177600000000001
117.4812	0.0	+	12	noun	list	1	14	match	vite	5	1	p	0.4177600000000001
117.41580000000002	0.0	[response]	12	noun	list	1	15	match	vite	5	1	p	0.4177600000000001
119.39700000000002	0.0	+	13	noun	phrase	4	1	nomatch	mon	-1	1	y	0.73245
119.94669999999999	0.2	hzbvqgc	13	noun	phrase	4	2	nomatch	mon	-1	1	y	0.73245
120.14670000000001	0.0	+	13	noun	phrase	4	3	nomatch	mon	-1	1	y	0.73245
120.54650000000001	0.2	sous	13	noun	phrase	4	4	nomatch	mon	-1	1	y	0.73245
120.7464	0.0	+	13	noun	phrase	4	5	nomatch	mon	-1	1	y	0.73245
121.1462	0.2	leur	13	noun	phrase	4	6	nomatch	mon	-1	1	y	0.73245
121.3461	0.0	+	13	noun	phrase	4	7	nomatch	mon	-1	1	y	0.73245
121.7459	0.2	casier	13	noun	phrase	4	8	nomatch	mon	-1	1	y	0.73245
121.94580000000002	0.0	+	13	noun	phrase	4	9	nomatch	mon	-1	1	y	0.73245
122.3457	0.2	rouge	13	noun	phrase	4	10	nomatch	mon	-1	1	y	0.73245
122.54560000000001	0.0	+	13	noun	phrase	4	11	nomatch	mon	-1	1	y	0.73245
122.9454	0.0	+	13	noun	phrase	4	12	nomatch	mon	-1	1	y	0.73245
124.9452	0.0	MON	13	noun	phrase	4	13	nomatch	mon	-1	1	y	0.73245
125.7441	0.0	+	13	noun	phrase	4	14	nomatch	mon	-1	1	y	0.73245
125.67760000000001	0.0	[response]	13	noun	phrase	4	15	nomatch	mon	-1	1	y	0.73245
127.3434	0.0	+	14	noun	list	4	1	match	loin	5	1	p	0.4423
127.89320000000001	0.2	nzbtgx	14	noun	list	4	2	match	loin	5	1	p	0.4423
128.0931	0.0	+	14	noun	list	4	3	match	loin	5	1	p	0.4423
128.49290000000002	0.2	sans	14	noun	list	4	4	match	loin	5	1	p	0.4423
128.6928	0.0	+	14	noun	list	4	5	match	loin	5	1	p	0.4423
129.0926	0.2	peut	14	noun	list	4	6	match	loin	5	1	p	0.4423
129.2926	0.0	+	14	noun	list	4	7	match	loin	5	1	p	0.4423
129.69240000000002	0.2	grenier	14	noun	list	4	8	match	loin	5	1	p	0.4423
129.8923	0.0	+	14	noun	list	4	9	match	loin	5	1	p	0.4423
130.2921	0.2	loin	14	noun	list	4	10	match	loin	5	1	p	0.4423
130.49200000000002	0.0	+	14	noun	list	4	11	match	loin	5	1	p	0.4423
130.8919	0.0	+	14	noun	list	4	12	match	loin	5	1	p	0.4423
132.89100000000002	0.0	LOIN	14	noun	list	4	13	match	loin	5	1	p	0.4423
133.3907	0.0	+	14	noun	list	4	14	match	loin	5	1	p	0.4423
133.33330000000004	0.0	[response]	14	noun	list	4	15	match	loin	5	1	p	0.4423
143.2863	0.0	+	15	noun	list	4	1	match	voilier	4	1	p	0.5773
143.83610000000002	0.2	xqzkgn	15	noun	list	4	2	match	voilier	4	1	p	0.5773
144.036	0.0	+	15	noun	list	4	3	match	voilier	4	1	p	0.5773
144.4358	0.2	sur	15	noun	list	4	4	match	voilier	4	1	p	0.5773
144.6357	0.0	+	15	noun	list	4	5	match	voilier	4	1	p	0.5773
145.0355	0.2	doit	15	noun	list	4	6	match	voilier	4	1	p	0.5773
145.2354	0.0	+	15	noun	list	4	7	match	voilier	4	1	p	0.5773
145.6353	0.2	voilier	15	noun	list	4	8	match	voilier	4	1	p	0.5773
145.83520000000001	0.0	+	15	noun	list	4	9	match	voilier	4	1	p	0.5773
146.235	0.2	ainsi	15	noun	list	4	10	match	voilier	4	1	p	0.5773
146.4349	0.0	+	15	noun	list	4	11	match	voilier	4	1	p	0.5773
146.8347	0.0	+	15	noun	list	4	12	match	voilier	4	1	p	0.5773
148.8338	0.0	VOILIER	15	noun	list	4	13	match	voilier	4	1	p	0.5773
149.4669	0.0	+	15	noun	list	4	14	match	voilier	4	1	p	0.5773
149.4111	0.0	[response]	15	noun	list	4	15	match	voilier	4	1	p	0.5773
151.2494	0.0	+	16	noun	phrase	2	1	nomatch	son	-1	1	y	0.66815
151.7992	0.2	lhxct	16	noun	phrase	2	2	nomatch	son	-1	1	y	0.66815
151.9991	0.0	+	16	noun	phrase	2	3	nomatch	son	-1	1	y	0.66815
152.3989	0.2	qrdf	16	noun	phrase	2	4	nomatch	son	-1	1	y	0.66815
152.5988	0.0	+	16	noun	phrase	2	5	nomatch	son	-1	1	y	0.66815
152.9987	0.2	smdc	16	noun	phrase	2	6	nomatch	son	-1	1	y	0.66815
153.1986	0.0	+	16	noun	phrase	2	7	nomatch	son	-1	1	y	0.66815
153.5984	0.2	vieux	16	noun	phrase	2	8	nomatch	son	-1	1	y	0.66815
153.7983	0.0	+	16	noun	phrase	2	9	nomatch	son	-1	1	y	0.66815
154.1981	0.2	clavier	16	noun	phrase	2	10	nomatch	son	-1	1	y	0.66815
154.398	0.0	+	16	noun	phrase	2	11	nomatch	son	-1	1	y	0.66815
154.7979	0.0	+	16	noun	phrase	2	12	nomatch	son	-1	1	y	0.66815
156.797	0.0	SON	16	noun	phrase	2	13	nomatch	son	-1	1	y	0.66815
157.53	0.0	+	16	noun	phrase	2	14	nomatch	son	-1	1	y	0.66815
157.4651	0.0	[response]	16	noun	phrase	2	15	nomatch	son	-1	1	y	0.66815
159.1959	0.0	+	17	verb	phrase	2	1	match	vite	5	1	p	0.6294700000000001
159.7456	0.2	nch	17	verb	phrase	2	2	match	vite	5	1	p	0.6294700000000001
159.9456	0.0	+	17	verb	phrase	2	3	match	vite	5	1	p	0.6294700000000001
160.3454	0.2	cqx	17	verb	phrase	2	4	match	vite	5	1	p	0.6294700000000001
160.5453	0.0	+	17	verb	phrase	2	5	match	vite	5	1	p	0.6294700000000001
160.9451	0.2	vcpx	17	verb	phrase	2	6	match	vite	5	1	p	0.6294700000000001
161.145	0.0	+	17	verb	phrase	2	7	match	vite	5	1	p	0.6294700000000001
161.5448	0.2	nager	17	verb	phrase	2	8	match	vite	5	1	p	0.6294700000000001
161.7447	0.0	+	17	verb	phrase	2	9	match	vite	5	1	p	0.6294700000000001
162.1446	0.2	vite	17	verb	phrase	2	10	match	vite	5	1	p	0.6294700000000001
162.3445	0.0	+	17	verb	phrase	2	11	match	vite	5	1	p	0.6294700000000001
162.7443	0.0	+	17	verb	phrase	2	12	match	vite	5	1	p	0.6294700000000001
164.7434	0.0	VITE	17	verb	phrase	2	13	match	vite	5	1	p	0.6294700000000001
165.4264	0.0	+	17	verb	phrase	2	14	match	vite	5	1	p	0.6294700000000001
165.37290000000002	0.0	[response]	17	verb	phrase	2	15	match	vite	5	1	p	0.6294700000000001
175.1388	0.0	+	18	verb	list	1	1	nomatch	plus	-1	1	y	0.58903
175.6885	0.2	qjbwt	18	verb	list	1	2	nomatch	plus	-1	1	y	0.58903
175.88840000000002	0.0	+	18	verb	list	1	3	nomatch	plus	-1	1	y	0.58903
176.28820000000002	0.2	lnqh	18	verb	list	1	4	nomatch	plus	-1	1	y	0.58903
176.4882	0.0	+	18	verb	list	1	5	nomatch	plus	-1	1	y	0.58903
176.888	0.2	wbn	18	verb	list	1	6	nomatch	plus	-1	1	y	0.58903
177.08790000000002	0.0	+	18	verb	list	1	7	nomatch	plus	-1	1	y	0.58903
177.48770000000002	0.2	grlcd	18	verb	list	1	8	nomatch	plus	-1	1	y	0.58903
177.6876	0.0	+	18	verb	list	1	9	nomatch	plus	-1	1	y	0.58903
178.0875	0.2	chasser	18	verb	list	1	10	nomatch	plus	-1	1	y	0.58903
178.28740000000002	0.0	+	18	verb	list	1	11	nomatch	plus	-1	1	y	0.58903
178.68720000000002	0.0	+	18	verb	list	1	12	nomatch	plus	-1	1	y	0.58903
180.68630000000002	0.0	PLUS	18	verb	list	1	13	nomatch	plus	-1	1	y	0.58903
181.336	0.0	+	18	verb	list	1	14	nomatch	plus	-1	1	y	0.58903
181.27530000000002	0.0	[response]	18	verb	list	1	15	nomatch	plus	-1	1	y	0.58903
183.0852	0.0	+	19	noun	list	1	1	nomatch	cendrier	-1	1	y	0.68565
183.635	0.2	wctmpzd	19	noun	list	1	2	nomatch	cendrier	-1	1	y	0.68565
183.8349	0.0	+	19	noun	list	1	3	nomatch	cendrier	-1	1	y	0.68565
184.23470000000003	0.2	dkjf	19	noun	list	1	4	nomatch	cendrier	-1	1	y	0.68565
184.4346	0.0	+	19	noun	list	1	5	nomatch	cendrier	-1	1	y	0.68565
184.83440000000002	0.2	vcpx	19	noun	list	1	6	nomatch	cendrier	-1	1	y	0.68565
185.03430000000003	0.0	+	19	noun	list	1	7	nomatch	cendrier	-1	1	y	0.68565
185.43420000000003	0.2	wxtfj	19	noun	list	1	8	nomatch	cendrier	-1	1	y	0.68565
185.6341	0.0	+	19	noun	list	1	9	nomatch	cendrier	-1	1	y	0.68565
186.03390000000002	0.2	grenier	19	noun	list	1	10	nomatch	cendrier	-1	1	y	0.68565
186.23380000000003	0.0	+	19	noun	list	1	11	nomatch	cendrier	-1	1	y	0.68565
186.6336	0.0	+	19	noun	list	1	12	nomatch	cendrier	-1	1	y	0.68565
188.6494	0.0	CENDRIER	19	noun	list	1	13	nomatch	cendrier	-1	1	y	0.68565
189.39910000000003	0.0	+	19	noun	list	1	14	nomatch	cendrier	-1	1	y	0.68565
189.3351	0.0	[response]	19	noun	list	1	15	nomatch	cendrier	-1	1	y	0.68565
191.04829999999998	0.0	+	20	noun	list	2	1	nomatch	peut	-1	1	y	0.58096
191.5981	0.2	zbx	20	noun	list	2	2	nomatch	peut	-1	1	y	0.58096
191.798	0.0	+	20	noun	list	2	3	nomatch	peut	-1	1	y	0.58096
192.19780000000003	0.2	rjbt	20	noun	list	2	4	nomatch	peut	-1	1	y	0.58096
192.3977	0.0	+	20	noun	list	2	5	nomatch	peut	-1	1	y	0.58096
192.7975	0.2	hjw	20	noun	list	2	6	nomatch	peut	-1	1	y	0.58096
192.9975	0.0	+	20	noun	list	2	7	nomatch	peut	-1	1	y	0.58096
193.39730000000003	0.2	trop	20	noun	list	2	8	nomatch	peut	-1	1	y	0.58096
193.5972	0.0	+	20	noun	list	2	9	nomatch	peut	-1	1	y	0.58096
193.997	0.2	tablier	20	noun	list	2	10	nomatch	peut	-1	1	y	0.58096
194.19690000000003	0.0	+	20	noun	list	2	11	nomatch	peut	-1	1	y	0.58096
194.59680000000003	0.0	+	20	noun	list	2	12	nomatch	peut	-1	1	y	0.58096
196.59590000000003	0.0	PEUT	20	noun	list	2	13	nomatch	peut	-1	1	y	0.58096
197.2289	0.0	+	20	noun	list	2	14	nomatch	peut	-1	1	y	0.58096
197.17680000000001	0.0	[response]	20	noun	list	2	15	nomatch	peut	-1	1	y	0.58096
206.9912	0.0	+	21	noun	phrase	1	1	match	grenier	5	1	p	0.42897
207.541	0.2	glr	21	noun	phrase	1	2	match	grenier	5	1	p	0.42897
207.7409	0.0	+	21	noun	phrase	1	3	match	grenier	5	1	p	0.42897
208.14069999999998	0.2	grd	21	noun	phrase	1	4	match	grenier	5	1	p	0.42897
208.3406	0.0	+	21	noun	phrase	1	5	match	grenier	5	1	p	0.42897
208.74040000000002	0.2	smdc	21	noun	phrase	1	6	match	grenier	5	1	p	0.42897
208.94029999999998	0.0	+	21	noun	phrase	1	7	match	grenier	5	1	p	0.42897
209.34019999999998	0.2	qbcd	21	noun	phrase	1	8	match	grenier	5	1	p	0.42897
209.5401	0.0	+	21	noun	phrase	1	9	match	grenier	5	1	p	0.42897
209.94	0.2	grenier	21	noun	phrase	1	10	match	grenier	5	1	p	0.42897
210.13979999999998	0.0	+	21	noun	phrase	1	11	match	grenier	5	1	p	0.42897
210.5396	0.0	+	21	noun	phrase	1	12	match	grenier	5	1	p	0.42897
212.5387	0.0	GRENIER	21	noun	phrase	1	13	match	grenier	5	1	p	0.42897
213.02179999999998	0.0	+	21	noun	phrase	1	14	match	grenier	5	1	p	0.42897
212.96769999999998	0.0	[response]	21	noun	phrase	1	15	match	grenier	5	1	p	0.42897
222.9341	0.0	+	22	noun	phrase	4	1	nomatch	trop	-1	1	y	0.672
223.48380000000003	0.2	fhwzj	22	noun	phrase	4	2	nomatch	trop	-1	1	y	0.672
223.68380000000002	0.0	+	22	noun	phrase	4	3	nomatch	trop	-1	1	y	0.672
224.0836	0.2	sur	22	noun	phrase	4	4	nomatch	trop	-1	1	y	0.672
224.28359999999998	0.0	+	22	noun	phrase	4	5	nomatch	trop	-1	1	y	0.672
224.7	0.2	mon	22	noun	phrase	4	6	nomatch	trop	-1	1	y	0.672
224.8999	0.0	+	22	noun	phrase	4	7	nomatch	trop	-1	1	y	0.672
225.29970000000003	0.2	vieux	22	noun	phrase	4	8	nomatch	trop	-1	1	y	0.672
225.4996	0.0	+	22	noun	phrase	4	9	nomatch	trop	-1	1	y	0.672
225.8994	0.2	tablier	22	noun	phrase	4	10	nomatch	trop	-1	1	y	0.672
226.0994	0.0	+	22	noun	phrase	4	11	nomatch	trop	-1	1	y	0.672
226.49920000000003	0.0	+	22	noun	phrase	4	12	nomatch	trop	-1	1	y	0.672
228.49830000000003	0.0	TROP	22	noun	phrase	4	13	nomatch	trop	-1	1	y	0.672
229.23130000000003	0.0	+	22	noun	phrase	4	14	nomatch	trop	-1	1	y	0.672
229.1703	0.0	[response]	22	noun	phrase	4	15	nomatch	trop	-1	1	y	0.672
230.8972	0.0	+	23	noun	list	2	1	nomatch	sans	-1	1	y	0.57953
231.447	0.2	chpkbd	23	noun	list	2	2	nomatch	sans	-1	1	y	0.57953
231.64690000000002	0.0	+	23	noun	list	2	3	nomatch	sans	-1	1	y	0.57953
232.0467	0.2	cqx	23	noun	list	2	4	nomatch	sans	-1	1	y	0.57953
232.2466	0.0	+	23	noun	list	2	5	nomatch	sans	-1	1	y	0.57953
232.64640000000003	0.2	hjw	23	noun	list	2	6	nomatch	sans	-1	1	y	0.57953
232.84629999999999	0.0	+	23	noun	list	2	7	nomatch	sans	-1	1	y	0.57953
233.2462	0.2	moins	23	noun	list	2	8	nomatch	sans	-1	1	y	0.57953
233.4461	0.0	+	23	noun	list	2	9	nomatch	sans	-1	1	y	0.57953
233.84590000000003	0.2	clavier	23	noun	list	2	10	nomatch	sans	-1	1	y	0.57953
234.04579999999999	0.0	+	23	noun	list	2	11	nomatch	sans	-1	1	y	0.57953
234.4463	0.0	+	23	noun	list	2	12	nomatch	sans	-1	1	y	0.57953
236.4447	0.0	SANS	23	noun	list	2	13	nomatch	sans	-1	1	y	0.57953
237.07780000000002	0.0	+	23	noun	list	2	14	nomatch	sans	-1	1	y	0.57953
237.02429999999998	0.0	[response]	23	noun	list	2	15	nomatch	sans	-1	1	y	0.57953
238.8437	0.0	+	24	noun	list	1	1	match	casier	5	1	p	0.45392000000000005
239.39339999999999	0.2	vsmpk	24	noun	list	1	2	match	casier	5	1	p	0.45392000000000005
239.5933	0.0	+	24	noun	list	1	3	match	casier	5	1	p	0.45392000000000005
239.99310000000003	0.2	skml	24	noun	list	1	4	match	casier	5	1	p	0.45392000000000005
240.19310000000002	0.0	+	24	noun	list	1	5	match	casier	5	1	p	0.45392000000000005
240.5929	0.2	th	24	noun	list	1	6	match	casier	5	1	p	0.45392000000000005
240.7928	0.0	+	24	noun	list	1	7	match	casier	5	1	p	0.45392000000000005
241.19260000000003	0.2	lwhd	24	noun	list	1	8	match	casier	5	1	p	0.45392000000000005
241.39249999999998	0.0	+	24	noun	list	1	9	match	casier	5	1	p	0.45392000000000005
241.7924	0.2	casier	24	noun	list	1	10	match	casier	5	1	p	0.45392000000000005
241.99220000000003	0.0	+	24	noun	list	1	11	match	casier	5	1	p	0.45392000000000005
242.39210000000003	0.0	+	24	noun	list	1	12	match	casier	5	1	p	0.45392000000000005
244.39120000000003	0.0	CASIER	24	noun	list	1	13	match	casier	5	1	p	0.45392000000000005
244.9076	0.0	+	24	noun	list	1	14	match	casier	5	1	p	0.45392000000000005
244.8451	0.0	[response]	24	noun	list	1	15	match	casier	5	1	p	0.45392000000000005
254.7865	0.0	+	25	noun	list	1	1	nomatch	vieux	-1	1	y	0.536
255.3363	0.2	xnzhrq	25	noun	list	1	2	nomatch	vieux	-1	1	y	0.536
255.5362	0.0	+	25	noun	list	1	3	nomatch	vieux	-1	1	y	0.536
255.93599999999998	0.2	qrkg	25	noun	list	1	4	nomatch	vieux	-1	1	y	0.536
256.1359	0.0	+	25	noun	list	1	5	nomatch	vieux	-1	1	y	0.536
256.5358	0.2	hjw	25	noun	list	1	6	nomatch	vieux	-1	1	y	0.536
256.7357	0.0	+	25	noun	list	1	7	nomatch	vieux	-1	1	y	0.536
257.1355	0.2	nthrd	25	noun	list	1	8	nomatch	vieux	-1	1	y	0.536
257.3354	0.0	+	25	noun	list	1	9	nomatch	vieux	-1	1	y	0.536
257.7352	0.2	grenier	25	noun	list	1	10	nomatch	vieux	-1	1	y	0.536
257.93510000000003	0.0	+	25	noun	list	1	11	nomatch	vieux	-1	1	y	0.536
258.335	0.0	+	25	noun	list	1	12	nomatch	vieux	-1	1	y	0.536
260.33410000000003	0.0	VIEUX	25	noun	list	1	13	nomatch	vieux	-1	1	y	0.536
260.9338	0.0	+	25	noun	list	1	14	nomatch	vieux	-1	1	y	0.536
260.87010000000004	0.0	[response]	25	noun	list	1	15	nomatch	vieux	-1	1	y	0.536
262.7497	0.0	+	26	verb	phrase	1	1	nomatch	vite	-1	1	y	1.1022
263.2994	0.2	jwxk	26	verb	phrase	1	2	nomatch	vite	-1	1	y	1.1022
263.4993	0.0	+	26	verb	phrase	1	3	nomatch	vite	-1	1	y	1.1022
263.89910000000003	0.2	lnqh	26	verb	phrase	1	4	nomatch	vite	-1	1	y	1.1022
264.099	0.0	+	26	verb	phrase	1	5	nomatch	vite	-1	1	y	1.1022
264.4989	0.2	vcpx	26	verb	phrase	1	6	nomatch	vite	-1	1	y	1.1022
264.6988	0.0	+	26	verb	phrase	1	7	nomatch	vite	-1	1	y	1.1022
265.09860000000003	0.2	mgspkcf	26	verb	phrase	1	8	nomatch	vite	-1	1	y	1.1022
265.2985	0.0	+	26	verb	phrase	1	9	nomatch	vite	-1	1	y	1.1022
265.6983	0.2	loin	26	verb	phrase	1	10	nomatch	vite	-1	1	y	1.1022
265.89820000000003	0.0	+	26	verb	phrase	1	11	nomatch	vite	-1	1	y	1.1022
266.2983	0.0	+	26	verb	phrase	1	12	nomatch	vite	-1	1	y	1.1022
268.29720000000003	0.0	VITE	26	verb	phrase	1	13	nomatch	vite	-1	1	y	1.1022
269.4633	0.0	+	26	verb	phrase	1	14	nomatch	vite	-1	1	y	1.1022
269.3994	0.0	[response]	26	verb	phrase	1	15	nomatch	vite	-1	1	y	1.1022
270.6961	0.0	+	27	noun	list	2	1	nomatch	moins	-1	1	y	0.49799000000000004
271.2459	0.2	bvdxspg	27	noun	list	2	2	nomatch	moins	-1	1	y	0.49799000000000004
271.4458	0.0	+	27	noun	list	2	3	nomatch	moins	-1	1	y	0.49799000000000004
271.8456	0.2	qrkg	27	noun	list	2	4	nomatch	moins	-1	1	y	0.49799000000000004
272.0455	0.0	+	27	noun	list	2	5	nomatch	moins	-1	1	y	0.49799000000000004
272.446	0.2	smdc	27	noun	list	2	6	nomatch	moins	-1	1	y	0.49799000000000004
272.6452	0.0	+	27	noun	list	2	7	nomatch	moins	-1	1	y	0.49799000000000004
273.0451	0.2	plus	27	noun	list	2	8	nomatch	moins	-1	1	y	0.49799000000000004
273.245	0.0	+	27	noun	list	2	9	nomatch	moins	-1	1	y	0.49799000000000004
273.64480000000003	0.2	grenier	27	noun	list	2	10	nomatch	moins	-1	1	y	0.49799000000000004
273.8447	0.0	+	27	noun	list	2	11	nomatch	moins	-1	1	y	0.49799000000000004
274.2445	0.0	+	27	noun	list	2	12	nomatch	moins	-1	1	y	0.49799000000000004
276.2436	0.0	MOINS	27	noun	list	2	13	nomatch	moins	-1	1	y	0.49799000000000004
276.7934	0.0	+	27	noun	list	2	14	nomatch	moins	-1	1	y	0.49799000000000004
276.7416	0.0	[response]	27	noun	list	2	15	nomatch	moins	-1	1	y	0.49799000000000004
278.6426	0.0	+	28	noun	list	3	1	nomatch	voilier	-1	1	y	0.60517
279.1923	0.2	mqx	28	noun	list	3	2	nomatch	voilier	-1	1	y	0.60517
279.3922	0.0	+	28	noun	list	3	3	nomatch	voilier	-1	1	y	0.60517
279.7921	0.2	dkjf	28	noun	list	3	4	nomatch	voilier	-1	1	y	0.60517
279.992	0.0	+	28	noun	list	3	5	nomatch	voilier	-1	1	y	0.60517
280.3918	0.2	doit	28	noun	list	3	6	nomatch	voilier	-1	1	y	0.60517
280.5917	0.0	+	28	noun	list	3	7	nomatch	voilier	-1	1	y	0.60517
280.99150000000003	0.2	boîtier	28	noun	list	3	8	nomatch	voilier	-1	1	y	0.60517
281.1914	0.0	+	28	noun	list	3	9	nomatch	voilier	-1	1	y	0.60517
281.5912	0.2	loin	28	noun	list	3	10	nomatch	voilier	-1	1	y	0.60517
281.79110000000003	0.0	+	28	noun	list	3	11	nomatch	voilier	-1	1	y	0.60517
282.19100000000003	0.0	+	28	noun	list	3	12	nomatch	voilier	-1	1	y	0.60517
284.19010000000003	0.0	VOILIER	28	noun	list	3	13	nomatch	voilier	-1	1	y	0.60517
284.8565	0.0	+	28	noun	list	3	14	nomatch	voilier	-1	1	y	0.60517
284.7953	0.0	[response]	28	noun	list	3	15	nomatch	voilier	-1	1	y	0.60517
286.589	0.0	+	29	verb	phrase	2	1	match	nager	5	1	p	0.49433
287.1388	0.2	mgc	29	verb	phrase	2	2	match	nager	5	1	p	0.49433
287.3387	0.0	+	29	verb	phrase	2	3	match	nager	5	1	p	0.49433
287.7385	0.2	cqx	29	verb	phrase	2	4	match	nager	5	1	p	0.49433
287.9384	0.0	+	29	verb	phrase	2	5	match	nager	5	1	p	0.49433
288.33820000000003	0.2	fhjp	29	verb	phrase	2	6	match	nager	5	1	p	0.49433
288.5381	0.0	+	29	verb	phrase	2	7	match	nager	5	1	p	0.49433
288.938	0.2	trop	29	verb	phrase	2	8	match	nager	5	1	p	0.49433
289.1379	0.0	+	29	verb	phrase	2	9	match	nager	5	1	p	0.49433
289.53770000000003	0.2	nager	29	verb	phrase	2	10	match	nager	5	1	p	0.49433
289.7376	0.0	+	29	verb	phrase	2	11	match	nager	5	1	p	0.49433
290.1374	0.0	+	29	verb	phrase	2	12	match	nager	5	1	p	0.49433
292.1365	0.0	NAGER	29	verb	phrase	2	13	match	nager	5	1	p	0.49433
292.6863	0.0	+	29	verb	phrase	2	14	match	nager	5	1	p	0.49433
292.6309	0.0	[response]	29	verb	phrase	2	15	match	nager	5	1	p	0.49433
294.5355	0.0	+	30	noun	list	1	1	match	rocher	5	1	p	0.4587
295.0852	0.2	qrkgm	30	noun	list	1	2	match	rocher	5	1	p	0.4587
295.2851	0.0	+	30	noun	list	1	3	match	rocher	5	1	p	0.4587
295.685	0.2	dkcf	30	noun	list	1	4	match	rocher	5	1	p	0.4587
295.8849	0.0	+	30	noun	list	1	5	match	rocher	5	1	p	0.4587
296.2847	0.2	smdc	30	noun	list	1	6	match	rocher	5	1	p	0.4587
296.4846	0.0	+	30	noun	list	1	7	match	rocher	5	1	p	0.4587
296.8844	0.2	xsnvl	30	noun	list	1	8	match	rocher	5	1	p	0.4587
297.0843	0.0	+	30	noun	list	1	9	match	rocher	5	1	p	0.4587
297.4841	0.2	rocher	30	noun	list	1	10	match	rocher	5	1	p	0.4587
297.6841	0.0	+	30	noun	list	1	11	match	rocher	5	1	p	0.4587
298.0839	0.0	+	30	noun	list	1	12	match	rocher	5	1	p	0.4587
300.0997	0.0	ROCHER	30	noun	list	1	13	match	rocher	5	1	p	0.4587
300.6161	0.0	+	30	noun	list	1	14	match	rocher	5	1	p	0.4587
300.5584	0.0	[response]	30	noun	list	1	15	match	rocher	5	1	p	0.4587
302.4986	0.0	+	31	verb	list	2	1	nomatch	blanc	-1	1	y	0.60876
303.0483	0.2	jsw	31	verb	list	2	2	nomatch	blanc	-1	1	y	0.60876
303.2482	0.0	+	31	verb	list	2	3	nomatch	blanc	-1	1	y	0.60876
303.6481	0.2	lnqh	31	verb	list	2	4	nomatch	blanc	-1	1	y	0.60876
303.848	0.0	+	31	verb	list	2	5	nomatch	blanc	-1	1	y	0.60876
304.2478	0.2	hjw	31	verb	list	2	6	nomatch	blanc	-1	1	y	0.60876
304.4477	0.0	+	31	verb	list	2	7	nomatch	blanc	-1	1	y	0.60876
304.8475	0.2	chasser	31	verb	list	2	8	nomatch	blanc	-1	1	y	0.60876
305.0474	0.0	+	31	verb	list	2	9	nomatch	blanc	-1	1	y	0.60876
305.4475	0.2	bleu	31	verb	list	2	10	nomatch	blanc	-1	1	y	0.60876
305.6472	0.0	+	31	verb	list	2	11	nomatch	blanc	-1	1	y	0.60876
306.047	0.0	+	31	verb	list	2	12	nomatch	blanc	-1	1	y	0.60876
308.0461	0.0	BLANC	31	verb	list	2	13	nomatch	blanc	-1	1	y	0.60876
308.71250000000003	0.0	+	31	verb	list	2	14	nomatch	blanc	-1	1	y	0.60876
308.6549	0.0	[response]	31	verb	list	2	15	nomatch	blanc	-1	1	y	0.60876
310.4457	0.0	+	32	verb	phrase	4	1	nomatch	leur	-1	1	y	0.53865
310.9948	0.2	dcxn	32	verb	phrase	4	2	nomatch	leur	-1	1	y	0.53865
311.1947	0.0	+	32	verb	phrase	4	3	nomatch	leur	-1	1	y	0.53865
311.5945	0.2	adam	32	verb	phrase	4	4	nomatch	leur	-1	1	y	0.53865
311.7944	0.0	+	32	verb	phrase	4	5	nomatch	leur	-1	1	y	0.53865
312.1942	0.2	va	32	verb	phrase	4	6	nomatch	leur	-1	1	y	0.53865
312.3941	0.0	+	32	verb	phrase	4	7	nomatch	leur	-1	1	y	0.53865
312.794	0.2	jongler	32	verb	phrase	4	8	nomatch	leur	-1	1	y	0.53865
312.9939	0.0	+	32	verb	phrase	4	9	nomatch	leur	-1	1	y	0.53865
313.3937	0.2	vite	32	verb	phrase	4	10	nomatch	leur	-1	1	y	0.53865
313.5936	0.0	+	32	verb	phrase	4	11	nomatch	leur	-1	1	y	0.53865
313.9934	0.0	+	32	verb	phrase	4	12	nomatch	leur	-1	1	y	0.53865
315.9926	0.0	LEUR	32	verb	phrase	4	13	nomatch	leur	-1	1	y	0.53865
316.5923	0.0	+	32	verb	phrase	4	14	nomatch	leur	-1	1	y	0.53865
316.5312	0.0	[response]	32	verb	phrase	4	15	nomatch	leur	-1	1	y	0.53865
318.3915	0.0	+	33	noun	phrase	1	1	match	grenier	5	1	p	0.39880000000000004
318.9412	0.2	wdfmb	33	noun	phrase	1	2	match	grenier	5	1	p	0.39880000000000004
319.1411	0.0	+	33	noun	phrase	1	3	match	grenier	5	1	p	0.39880000000000004
319.541	0.2	skml	33	noun	phrase	1	4	match	grenier	5	1	p	0.39880000000000004
319.7409	0.0	+	33	noun	phrase	1	5	match	grenier	5	1	p	0.39880000000000004
320.1407	0.2	hjw	33	noun	phrase	1	6	match	grenier	5	1	p	0.39880000000000004
320.3406	0.0	+	33	noun	phrase	1	7	match	grenier	5	1	p	0.39880000000000004
320.7404	0.2	rwhjncq	33	noun	phrase	1	8	match	grenier	5	1	p	0.39880000000000004
320.9403	0.0	+	33	noun	phrase	1	9	match	grenier	5	1	p	0.39880000000000004
321.3402	0.2	grenier	33	noun	phrase	1	10	match	grenier	5	1	p	0.39880000000000004
321.5401	0.0	+	33	noun	phrase	1	11	match	grenier	5	1	p	0.39880000000000004
321.9399	0.0	+	33	noun	phrase	1	12	match	grenier	5	1	p	0.39880000000000004
323.9396	0.0	GRENIER	33	noun	phrase	1	13	match	grenier	5	1	p	0.39880000000000004
324.4055	0.0	+	33	noun	phrase	1	14	match	grenier	5	1	p	0.39880000000000004
324.3385	0.0	[response]	33	noun	phrase	1	15	match	grenier	5	1	p	0.39880000000000004
326.3379	0.0	+	34	noun	phrase	3	1	nomatch	tôt	-1	1	y	0.55381
326.8877	0.2	jhd	34	noun	phrase	3	2	nomatch	tôt	-1	1	y	0.55381
327.0876	0.0	+	34	noun	phrase	3	3	nomatch	tôt	-1	1	y	0.55381
327.4874	0.2	jsgh	34	noun	phrase	3	4	nomatch	tôt	-1	1	y	0.55381
327.6873	0.0	+	34	noun	phrase	3	5	nomatch	tôt	-1	1	y	0.55381
328.0871	0.2	leur	34	noun	phrase	3	6	nomatch	tôt	-1	1	y	0.55381
328.28700000000003	0.0	+	34	noun	phrase	3	7	nomatch	tôt	-1	1	y	0.55381
328.6869	0.2	nouveau	34	noun	phrase	3	8	nomatch	tôt	-1	1	y	0.55381
328.8868	0.0	+	34	noun	phrase	3	9	nomatch	tôt	-1	1	y	0.55381
329.2866	0.2	cendrier	34	noun	phrase	3	10	nomatch	tôt	-1	1	y	0.55381
329.48650000000004	0.0	+	34	noun	phrase	3	11	nomatch	tôt	-1	1	y	0.55381
329.8863	0.0	+	34	noun	phrase	3	12	nomatch	tôt	-1	1	y	0.55381
331.8855	0.0	TÔT	34	noun	phrase	3	13	nomatch	tôt	-1	1	y	0.55381
332.5018	0.0	+	34	noun	phrase	3	14	nomatch	tôt	-1	1	y	0.55381
332.4393	0.0	[response]	34	noun	phrase	3	15	nomatch	tôt	-1	1	y	0.55381
334.2844	0.0	+	35	noun	list	1	1	nomatch	vite	-1	1	y	0.57639
334.83410000000003	0.2	blzxrpn	35	noun	list	1	2	nomatch	vite	-1	1	y	0.57639
335.0341	0.0	+	35	noun	list	1	3	nomatch	vite	-1	1	y	0.57639
335.4339	0.2	qrdf	35	noun	list	1	4	nomatch	vite	-1	1	y	0.57639
335.6338	0.0	+	35	noun	list	1	5	nomatch	vite	-1	1	y	0.57639
336.0336	0.2	th	35	noun	list	1	6	nomatch	vite	-1	1	y	0.57639
336.2336	0.0	+	35	noun	list	1	7	nomatch	vite	-1	1	y	0.57639
336.65000000000003	0.2	tbmdjvk	35	noun	list	1	8	nomatch	vite	-1	1	y	0.57639
336.8499	0.0	+	35	noun	list	1	9	nomatch	vite	-1	1	y	0.57639
337.2497	0.2	loin	35	noun	list	1	10	nomatch	vite	-1	1	y	0.57639
337.44960000000003	0.0	+	35	noun	list	1	11	nomatch	vite	-1	1	y	0.57639
337.84950000000003	0.0	+	35	noun	list	1	12	nomatch	vite	-1	1	y	0.57639
339.84860000000003	0.0	VITE	35	noun	list	1	13	nomatch	vite	-1	1	y	0.57639
340.4816	0.0	+	35	noun	list	1	14	nomatch	vite	-1	1	y	0.57639
340.425	0.0	[response]	35	noun	list	1	15	nomatch	vite	-1	1	y	0.57639
342.2475	0.0	+	36	verb	phrase	3	1	nomatch	moins	-1	1	y	0.5837300000000001
342.79720000000003	0.2	ngzx	36	verb	phrase	3	2	nomatch	moins	-1	1	y	0.5837300000000001
342.9971	0.0	+	36	verb	phrase	3	3	nomatch	moins	-1	1	y	0.5837300000000001
343.397	0.2	nlxv	36	verb	phrase	3	4	nomatch	moins	-1	1	y	0.5837300000000001
343.5969	0.0	+	36	verb	phrase	3	5	nomatch	moins	-1	1	y	0.5837300000000001
343.99670000000003	0.2	peut	36	verb	phrase	3	6	nomatch	moins	-1	1	y	0.5837300000000001
344.1966	0.0	+	36	verb	phrase	3	7	nomatch	moins	-1	1	y	0.5837300000000001
344.5964	0.2	beaucoup	36	verb	phrase	3	8	nomatch	moins	-1	1	y	0.5837300000000001
344.7964	0.0	+	36	verb	phrase	3	9	nomatch	moins	-1	1	y	0.5837300000000001
345.19620000000003	0.2	jongler	36	verb	phrase	3	10	nomatch	moins	-1	1	y	0.5837300000000001
345.3961	0.0	+	36	verb	phrase	3	11	nomatch	moins	-1	1	y	0.5837300000000001
345.7959	0.0	+	36	verb	phrase	3	12	nomatch	moins	-1	1	y	0.5837300000000001
347.795	0.0	MOINS	36	verb	phrase	3	13	nomatch	moins	-1	1	y	0.5837300000000001
348.4447	0.0	+	36	verb	phrase	3	14	nomatch	moins	-1	1	y	0.5837300000000001
348.3787	0.0	[response]	36	verb	phrase	3	15	nomatch	moins	-1	1	y	0.5837300000000001
350.194	0.0	+	37	verb	list	3	1	nomatch	mon	-1	1	y	0.55738
350.7437	0.2	mwp	37	verb	list	3	2	nomatch	mon	-1	1	y	0.55738
350.9436	0.0	+	37	verb	list	3	3	nomatch	mon	-1	1	y	0.55738
351.34340000000003	0.2	rjbt	37	verb	list	3	4	nomatch	mon	-1	1	y	0.55738
351.5433	0.0	+	37	verb	list	3	5	nomatch	mon	-1	1	y	0.55738
351.9433	0.2	leur	37	verb	list	3	6	nomatch	mon	-1	1	y	0.55738
352.1431	0.0	+	37	verb	list	3	7	nomatch	mon	-1	1	y	0.55738
352.54290000000003	0.2	plonger	37	verb	list	3	8	nomatch	mon	-1	1	y	0.55738
352.7428	0.0	+	37	verb	list	3	9	nomatch	mon	-1	1	y	0.55738
353.1426	0.2	vert	37	verb	list	3	10	nomatch	mon	-1	1	y	0.55738
353.34250000000003	0.0	+	37	verb	list	3	11	nomatch	mon	-1	1	y	0.55738
353.74240000000003	0.0	+	37	verb	list	3	12	nomatch	mon	-1	1	y	0.55738
355.74150000000003	0.0	MON	37	verb	list	3	13	nomatch	mon	-1	1	y	0.55738
356.35790000000003	0.0	+	37	verb	list	3	14	nomatch	mon	-1	1	y	0.55738
356.2989	0.0	[response]	37	verb	list	3	15	nomatch	mon	-1	1	y	0.55738
358.1404	0.0	+	38	verb	phrase	4	1	match	jade	2	1	p	0.52181
358.69010000000003	0.2	kfj	38	verb	phrase	4	2	match	jade	2	1	p	0.52181
358.8901	0.0	+	38	verb	phrase	4	3	match	jade	2	1	p	0.52181
359.2899	0.2	jade	38	verb	phrase	4	4	match	jade	2	1	p	0.52181
359.4898	0.0	+	38	verb	phrase	4	5	match	jade	2	1	p	0.52181
359.88960000000003	0.2	peut	38	verb	phrase	4	6	match	jade	2	1	p	0.52181
360.0895	0.0	+	38	verb	phrase	4	7	match	jade	2	1	p	0.52181
360.4893	0.2	trop	38	verb	phrase	4	8	match	jade	2	1	p	0.52181
360.6893	0.0	+	38	verb	phrase	4	9	match	jade	2	1	p	0.52181
361.08910000000003	0.2	patiner	38	verb	phrase	4	10	match	jade	2	1	p	0.52181
361.289	0.0	+	38	verb	phrase	4	11	match	jade	2	1	p	0.52181
361.6888	0.0	+	38	verb	phrase	4	12	match	jade	2	1	p	0.52181
363.6879	0.0	JADE	38	verb	phrase	4	13	match	jade	2	1	p	0.52181
364.271	0.0	+	38	verb	phrase	4	14	match	jade	2	1	p	0.52181
364.2097	0.0	[response]	38	verb	phrase	4	15	match	jade	2	1	p	0.52181
366.0868	0.0	+	39	verb	list	1	1	match	jongler	5	1	p	0.48947
366.6366	0.2	xsf	39	verb	list	1	2	match	jongler	5	1	p	0.48947
366.8365	0.0	+	39	verb	list	1	3	match	jongler	5	1	p	0.48947
367.2363	0.2	dgph	39	verb	list	1	4	match	jongler	5	1	p	0.48947
367.4362	0.0	+	39	verb	list	1	5	match	jongler	5	1	p	0.48947
367.8361	0.2	fhjp	39	verb	list	1	6	match	jongler	5	1	p	0.48947
368.036	0.0	+	39	verb	list	1	7	match	jongler	5	1	p	0.48947
368.43580000000003	0.2	mktpd	39	verb	list	1	8	match	jongler	5	1	p	0.48947
368.6357	0.0	+	39	verb	list	1	9	match	jongler	5	1	p	0.48947
369.0355	0.2	jongler	39	verb	list	1	10	match	jongler	5	1	p	0.48947
369.2354	0.0	+	39	verb	list	1	11	match	jongler	5	1	p	0.48947
369.63530000000003	0.0	+	39	verb	list	1	12	match	jongler	5	1	p	0.48947
371.6344	0.0	JONGLER	39	verb	list	1	13	match	jongler	5	1	p	0.48947
372.1841	0.0	+	39	verb	list	1	14	match	jongler	5	1	p	0.48947
372.1238	0.0	[response]	39	verb	list	1	15	match	jongler	5	1	p	0.48947
374.05	0.0	+	40	noun	phrase	2	1	nomatch	grand	-1	1	y	0.49572
374.5997	0.2	vbq	40	noun	phrase	2	2	nomatch	grand	-1	1	y	0.49572
374.7996	0.0	+	40	noun	phrase	2	3	nomatch	grand	-1	1	y	0.49572
375.1994	0.2	jsgh	40	noun	phrase	2	4	nomatch	grand	-1	1	y	0.49572
375.3994	0.0	+	40	noun	phrase	2	5	nomatch	grand	-1	1	y	0.49572
375.7992	0.2	hjw	40	noun	phrase	2	6	nomatch	grand	-1	1	y	0.49572
375.9991	0.0	+	40	noun	phrase	2	7	nomatch	grand	-1	1	y	0.49572
376.3989	0.2	beau	40	noun	phrase	2	8	nomatch	grand	-1	1	y	0.49572
376.5988	0.0	+	40	noun	phrase	2	9	nomatch	grand	-1	1	y	0.49572
376.9986	0.2	rocher	40	noun	phrase	2	10	nomatch	grand	-1	1	y	0.49572
377.1986	0.0	+	40	noun	phrase	2	11	nomatch	grand	-1	1	y	0.49572
377.5984	0.0	+	40	noun	phrase	2	12	nomatch	grand	-1	1	y	0.49572
379.5975	0.0	GRAND	40	noun	phrase	2	13	nomatch	grand	-1	1	y	0.49572
380.1472	0.0	+	40	noun	phrase	2	14	nomatch	grand	-1	1	y	0.49572
380.0932	0.0	[response]	40	noun	phrase	2	15	nomatch	grand	-1	1	y	0.49572
381.9964	0.0	+	41	noun	phrase	1	1	nomatch	rouge	-1	1	y	0.55018
382.5462	0.2	lvkjbx	41	noun	phrase	1	2	nomatch	rouge	-1	1	y	0.55018
382.7461	0.0	+	41	noun	phrase	1	3	nomatch	rouge	-1	1	y	0.55018
383.1459	0.2	qrdf	41	noun	phrase	1	4	nomatch	rouge	-1	1	y	0.55018
383.3458	0.0	+	41	noun	phrase	1	5	nomatch	rouge	-1	1	y	0.55018
383.7456	0.2	wbn	41	noun	phrase	1	6	nomatch	rouge	-1	1	y	0.55018
383.9455	0.0	+	41	noun	phrase	1	7	nomatch	rouge	-1	1	y	0.55018
384.3454	0.2	wfjcnhm	41	noun	phrase	1	8	nomatch	rouge	-1	1	y	0.55018
384.5453	0.0	+	41	noun	phrase	1	9	nomatch	rouge	-1	1	y	0.55018
384.9451	0.2	bleu	41	noun	phrase	1	10	nomatch	rouge	-1	1	y	0.55018
385.145	0.0	+	41	noun	phrase	1	11	nomatch	rouge	-1	1	y	0.55018
385.5448	0.0	+	41	noun	phrase	1	12	nomatch	rouge	-1	1	y	0.55018
387.5439	0.0	ROUGE	41	noun	phrase	1	13	nomatch	rouge	-1	1	y	0.55018
388.1603	0.0	+	41	noun	phrase	1	14	nomatch	rouge	-1	1	y	0.55018
388.0941	0.0	[response]	41	noun	phrase	1	15	nomatch	rouge	-1	1	y	0.55018
389.9429	0.0	+	42	verb	list	3	1	nomatch	mon	-1	1	y	0.65766
390.4926	0.2	zwplbqr	42	verb	list	3	2	nomatch	mon	-1	1	y	0.65766
390.6925	0.0	+	42	verb	list	3	3	nomatch	mon	-1	1	y	0.65766
391.0924	0.2	jsgh	42	verb	list	3	4	nomatch	mon	-1	1	y	0.65766
391.2923	0.0	+	42	verb	list	3	5	nomatch	mon	-1	1	y	0.65766
391.6921	0.2	va	42	verb	list	3	6	nomatch	mon	-1	1	y	0.65766
391.892	0.0	+	42	verb	list	3	7	nomatch	mon	-1	1	y	0.65766
392.2918	0.2	grand	42	verb	list	3	8	nomatch	mon	-1	1	y	0.65766
392.4917	0.0	+	42	verb	list	3	9	nomatch	mon	-1	1	y	0.65766
392.8916	0.2	danser	42	verb	list	3	10	nomatch	mon	-1	1	y	0.65766
393.0915	0.0	+	42	verb	list	3	11	nomatch	mon	-1	1	y	0.65766
393.4913	0.0	+	42	verb	list	3	12	nomatch	mon	-1	1	y	0.65766
395.4904	0.0	MON	42	verb	list	3	13	nomatch	mon	-1	1	y	0.65766
396.2067	0.0	+	42	verb	list	3	14	nomatch	mon	-1	1	y	0.65766
396.148	0.0	[response]	42	verb	list	3	15	nomatch	mon	-1	1	y	0.65766
397.8893	0.0	+	43	noun	phrase	1	1	match	boîtier	5	1	p	0.47591000000000006
398.4391	0.2	ghcbtfs	43	noun	phrase	1	2	match	boîtier	5	1	p	0.47591000000000006
398.639	0.0	+	43	noun	phrase	1	3	match	boîtier	5	1	p	0.47591000000000006
399.0388	0.2	qrdf	43	noun	phrase	1	4	match	boîtier	5	1	p	0.47591000000000006
399.2387	0.0	+	43	noun	phrase	1	5	match	boîtier	5	1	p	0.47591000000000006
399.6385	0.2	hjw	43	noun	phrase	1	6	match	boîtier	5	1	p	0.47591000000000006
399.8384	0.0	+	43	noun	phrase	1	7	match	boîtier	5	1	p	0.47591000000000006
400.2383	0.2	qlwv	43	noun	phrase	1	8	match	boîtier	5	1	p	0.47591000000000006
400.4382	0.0	+	43	noun	phrase	1	9	match	boîtier	5	1	p	0.47591000000000006
400.838	0.2	boîtier	43	noun	phrase	1	10	match	boîtier	5	1	p	0.47591000000000006
401.0379	0.0	+	43	noun	phrase	1	11	match	boîtier	5	1	p	0.47591000000000006
401.4377	0.0	+	43	noun	phrase	1	12	match	boîtier	5	1	p	0.47591000000000006
403.4368	0.0	BOÎTIER	43	noun	phrase	1	13	match	boîtier	5	1	p	0.47591000000000006
403.9699	0.0	+	43	noun	phrase	1	14	match	boîtier	5	1	p	0.47591000000000006
403.91270000000003	0.0	[response]	43	noun	phrase	1	15	match	boîtier	5	1	p	0.47591000000000006
405.8358	0.0	+	44	verb	list	1	1	nomatch	rouge	-1	1	y	0.43374
406.3855	0.2	fbwpvlr	44	verb	list	1	2	nomatch	rouge	-1	1	y	0.43374
406.5854	0.0	+	44	verb	list	1	3	nomatch	rouge	-1	1	y	0.43374
406.9853	0.2	rjbt	44	verb	list	1	4	nomatch	rouge	-1	1	y	0.43374
407.1852	0.0	+	44	verb	list	1	5	nomatch	rouge	-1	1	y	0.43374
407.585	0.2	wbn	44	verb	list	1	6	nomatch	rouge	-1	1	y	0.43374
407.7849	0.0	+	44	verb	list	1	7	nomatch	rouge	-1	1	y	0.43374
408.1847	0.2	kdljsv	44	verb	list	1	8	nomatch	rouge	-1	1	y	0.43374
408.38460000000003	0.0	+	44	verb	list	1	9	nomatch	rouge	-1	1	y	0.43374
408.7845	0.2	blanc	44	verb	list	1	10	nomatch	rouge	-1	1	y	0.43374
408.9844	0.0	+	44	verb	list	1	11	nomatch	rouge	-1	1	y	0.43374
409.3842	0.0	+	44	verb	list	1	12	nomatch	rouge	-1	1	y	0.43374
411.40000000000003	0.0	ROUGE	44	verb	list	1	13	nomatch	rouge	-1	1	y	0.43374
411.8997	0.0	+	44	verb	list	1	14	nomatch	rouge	-1	1	y	0.43374
411.8337000000001	0.0	[response]	44	verb	list	1	15	nomatch	rouge	-1	1	y	0.43374
421.7953	0.0	+	45	verb	list	1	1	nomatch	nager	-1	1	y	0.56228
422.3451	0.2	ztr	45	verb	list	1	2	nomatch	nager	-1	1	y	0.56228
422.545	0.0	+	45	verb	list	1	3	nomatch	nager	-1	1	y	0.56228
422.9448	0.2	dkcf	45	verb	list	1	4	nomatch	nager	-1	1	y	0.56228
423.1447	0.0	+	45	verb	list	1	5	nomatch	nager	-1	1	y	0.56228
423.5445	0.2	smdc	45	verb	list	1	6	nomatch	nager	-1	1	y	0.56228
423.7444	0.0	+	45	verb	list	1	7	nomatch	nager	-1	1	y	0.56228
424.1443	0.2	jxbp	45	verb	list	1	8	nomatch	nager	-1	1	y	0.56228
424.3442	0.0	+	45	verb	list	1	9	nomatch	nager	-1	1	y	0.56228
424.744	0.2	danser	45	verb	list	1	10	nomatch	nager	-1	1	y	0.56228
424.9439	0.0	+	45	verb	list	1	11	nomatch	nager	-1	1	y	0.56228
425.3437	0.0	+	45	verb	list	1	12	nomatch	nager	-1	1	y	0.56228
427.3428	0.0	NAGER	45	verb	list	1	13	nomatch	nager	-1	1	y	0.56228
427.9592	0.0	+	45	verb	list	1	14	nomatch	nager	-1	1	y	0.56228
427.9051	0.0	[response]	45	verb	list	1	15	nomatch	nager	-1	1	y	0.56228
429.7418	0.0	+	46	noun	phrase	3	1	nomatch	mon	-1	1	y	0.6864
430.2915	0.2	bphglqt	46	noun	phrase	3	2	nomatch	mon	-1	1	y	0.6864
430.4914	0.0	+	46	noun	phrase	3	3	nomatch	mon	-1	1	y	0.6864
430.8912	0.2	jsgh	46	noun	phrase	3	4	nomatch	mon	-1	1	y	0.6864
431.0912	0.0	+	46	noun	phrase	3	5	nomatch	mon	-1	1	y	0.6864
431.491	0.2	son	46	noun	phrase	3	6	nomatch	mon	-1	1	y	0.6864
431.6909	0.0	+	46	noun	phrase	3	7	nomatch	mon	-1	1	y	0.6864
432.0907	0.2	voilier	46	noun	phrase	3	8	nomatch	mon	-1	1	y	0.6864
432.2906	0.0	+	46	noun	phrase	3	9	nomatch	mon	-1	1	y	0.6864
432.6904	0.2	bleu	46	noun	phrase	3	10	nomatch	mon	-1	1	y	0.6864
432.8904	0.0	+	46	noun	phrase	3	11	nomatch	mon	-1	1	y	0.6864
433.2902	0.0	+	46	noun	phrase	3	12	nomatch	mon	-1	1	y	0.6864
435.2893	0.0	MON	46	noun	phrase	3	13	nomatch	mon	-1	1	y	0.6864
436.0389	0.0	+	46	noun	phrase	3	14	nomatch	mon	-1	1	y	0.6864
435.9757000000001	0.0	[response]	46	noun	phrase	3	15	nomatch	mon	-1	1	y	0.6864
445.68460000000005	0.0	+	47	verb	phrase	2	1	match	patiner	5	1	p	0.43714
446.23440000000005	0.2	dxpb	47	verb	phrase	2	2	match	patiner	5	1	p	0.43714
446.4343	0.0	+	47	verb	phrase	2	3	match	patiner	5	1	p	0.43714
446.83410000000003	0.2	nlxv	47	verb	phrase	2	4	match	patiner	5	1	p	0.43714
447.034	0.0	+	47	verb	phrase	2	5	match	patiner	5	1	p	0.43714
447.4339	0.2	fhjp	47	verb	phrase	2	6	match	patiner	5	1	p	0.43714
447.63379999999995	0.0	+	47	verb	phrase	2	7	match	patiner	5	1	p	0.43714
448.0336	0.2	trop	47	verb	phrase	2	8	match	patiner	5	1	p	0.43714
448.2336	0.0	+	47	verb	phrase	2	9	match	patiner	5	1	p	0.43714
448.65	0.2	patiner	47	verb	phrase	2	10	match	patiner	5	1	p	0.43714
448.84990000000005	0.0	+	47	verb	phrase	2	11	match	patiner	5	1	p	0.43714
449.24969999999996	0.0	+	47	verb	phrase	2	12	match	patiner	5	1	p	0.43714
451.24879999999996	0.0	PATINER	47	verb	phrase	2	13	match	patiner	5	1	p	0.43714
451.7486	0.0	+	47	verb	phrase	2	14	match	patiner	5	1	p	0.43714
451.68600000000004	0.0	[response]	47	verb	phrase	2	15	match	patiner	5	1	p	0.43714
469.64060000000006	0.0	+	48	verb	list	3	1	nomatch	leur	-1	1	y	0.57811
470.19039999999995	0.2	wtqpzn	48	verb	list	3	2	nomatch	leur	-1	1	y	0.57811
470.3903	0.0	+	48	verb	list	3	3	nomatch	leur	-1	1	y	0.57811
470.79010000000005	0.2	dkcf	48	verb	list	3	4	nomatch	leur	-1	1	y	0.57811
470.99	0.0	+	48	verb	list	3	5	nomatch	leur	-1	1	y	0.57811
471.38980000000004	0.2	son	48	verb	list	3	6	nomatch	leur	-1	1	y	0.57811
471.5897	0.0	+	48	verb	list	3	7	nomatch	leur	-1	1	y	0.57811
471.9896	0.2	chasser	48	verb	list	3	8	nomatch	leur	-1	1	y	0.57811
472.18949999999995	0.0	+	48	verb	list	3	9	nomatch	leur	-1	1	y	0.57811
472.5893	0.2	rouge	48	verb	list	3	10	nomatch	leur	-1	1	y	0.57811
472.78920000000005	0.0	+	48	verb	list	3	11	nomatch	leur	-1	1	y	0.57811
473.18899999999996	0.0	+	48	verb	list	3	12	nomatch	leur	-1	1	y	0.57811
475.18809999999996	0.0	LEUR	48	verb	list	3	13	nomatch	leur	-1	1	y	0.57811
475.8212	0.0	+	48	verb	list	3	14	nomatch	leur	-1	1	y	0.57811
475.7663	0.0	[response]	48	verb	list	3	15	nomatch	leur	-1	1	y	0.57811
477.58709999999996	0.0	+	49	verb	list	3	1	match	grand	4	1	p	0.53929
478.1368	0.2	pmjrsk	49	verb	list	3	2	match	grand	4	1	p	0.53929
478.33669999999995	0.0	+	49	verb	list	3	3	match	grand	4	1	p	0.53929
478.73659999999995	0.2	dkjf	49	verb	list	3	4	match	grand	4	1	p	0.53929
478.9365	0.0	+	49	verb	list	3	5	match	grand	4	1	p	0.53929
479.33630000000005	0.2	va	49	verb	list	3	6	match	grand	4	1	p	0.53929
479.5362	0.0	+	49	verb	list	3	7	match	grand	4	1	p	0.53929
479.93600000000004	0.2	grand	49	verb	list	3	8	match	grand	4	1	p	0.53929
480.1359	0.0	+	49	verb	list	3	9	match	grand	4	1	p	0.53929
480.5358	0.2	rouler	49	verb	list	3	10	match	grand	4	1	p	0.53929
480.73569999999995	0.0	+	49	verb	list	3	11	match	grand	4	1	p	0.53929
481.1355	0.0	+	49	verb	list	3	12	match	grand	4	1	p	0.53929
483.1346	0.0	GRAND	49	verb	list	3	13	match	grand	4	1	p	0.53929
483.73429999999996	0.0	+	49	verb	list	3	14	match	grand	4	1	p	0.53929
483.6739000000001	0.0	[response]	49	verb	list	3	15	match	grand	4	1	p	0.53929
485.5335	0.0	+	50	verb	list	4	1	nomatch	patiner	-1	1	y	0.76255
486.09990000000005	0.2	tjgmq	50	verb	list	4	2	nomatch	patiner	-1	1	y	0.76255
486.2999	0.0	+	50	verb	list	4	3	nomatch	patiner	-1	1	y	0.76255
486.6997	0.2	yves	50	verb	list	4	4	nomatch	patiner	-1	1	y	0.76255
486.89959999999996	0.0	+	50	verb	list	4	5	nomatch	patiner	-1	1	y	0.76255
487.2994	0.2	leur	50	verb	list	4	6	nomatch	patiner	-1	1	y	0.76255
487.49930000000006	0.0	+	50	verb	list	4	7	nomatch	patiner	-1	1	y	0.76255
487.8991	0.2	nager	50	verb	list	4	8	nomatch	patiner	-1	1	y	0.76255
488.09900000000005	0.0	+	50	verb	list	4	9	nomatch	patiner	-1	1	y	0.76255
488.49890000000005	0.2	rouge	50	verb	list	4	10	nomatch	patiner	-1	1	y	0.76255
488.6988	0.0	+	50	verb	list	4	11	nomatch	patiner	-1	1	y	0.76255
489.09860000000003	0.0	+	50	verb	list	4	12	nomatch	patiner	-1	1	y	0.76255
491.09770000000003	0.0	PATINER	50	verb	list	4	13	nomatch	patiner	-1	1	y	0.76255
491.914	0.0	+	50	verb	list	4	14	nomatch	patiner	-1	1	y	0.76255
491.86019999999996	0.0	[response]	50	verb	list	4	15	nomatch	patiner	-1	1	y	0.76255
493.49660000000006	0.0	+	51	verb	list	1	1	match	blanc	5	1	p	0.44919000000000003
494.04640000000006	0.2	gct	51	verb	list	1	2	match	blanc	5	1	p	0.44919000000000003
494.2463	0.0	+	51	verb	list	1	3	match	blanc	5	1	p	0.44919000000000003
494.64610000000005	0.2	qrkg	51	verb	list	1	4	match	blanc	5	1	p	0.44919000000000003
494.846	0.0	+	51	verb	list	1	5	match	blanc	5	1	p	0.44919000000000003
495.2459	0.2	hjw	51	verb	list	1	6	match	blanc	5	1	p	0.44919000000000003
495.44579999999996	0.0	+	51	verb	list	1	7	match	blanc	5	1	p	0.44919000000000003
495.8456	0.2	sbldhkp	51	verb	list	1	8	match	blanc	5	1	p	0.44919000000000003
496.04550000000006	0.0	+	51	verb	list	1	9	match	blanc	5	1	p	0.44919000000000003
496.4453	0.2	blanc	51	verb	list	1	10	match	blanc	5	1	p	0.44919000000000003
496.64520000000005	0.0	+	51	verb	list	1	11	match	blanc	5	1	p	0.44919000000000003
497.04510000000005	0.0	+	51	verb	list	1	12	match	blanc	5	1	p	0.44919000000000003
499.04420000000005	0.0	BLANC	51	verb	list	1	13	match	blanc	5	1	p	0.44919000000000003
499.5606	0.0	+	51	verb	list	1	14	match	blanc	5	1	p	0.44919000000000003
499.4933	0.0	[response]	51	verb	list	1	15	match	blanc	5	1	p	0.44919000000000003
501.4434	0.0	+	52	verb	phrase	1	1	match	mieux	5	1	p	0.4571
501.9928	0.2	wjftnv	52	verb	phrase	1	2	match	mieux	5	1	p	0.4571
502.19280000000003	0.0	+	52	verb	phrase	1	3	match	mieux	5	1	p	0.4571
502.59260000000006	0.2	cqx	52	verb	phrase	1	4	match	mieux	5	1	p	0.4571
502.7925	0.0	+	52	verb	phrase	1	5	match	mieux	5	1	p	0.4571
503.19230000000005	0.2	th	52	verb	phrase	1	6	match	mieux	5	1	p	0.4571
503.3922	0.0	+	52	verb	phrase	1	7	match	mieux	5	1	p	0.4571
503.79200000000003	0.2	mgspkcf	52	verb	phrase	1	8	match	mieux	5	1	p	0.4571
503.9919	0.0	+	52	verb	phrase	1	9	match	mieux	5	1	p	0.4571
504.3918	0.2	mieux	52	verb	phrase	1	10	match	mieux	5	1	p	0.4571
504.59170000000006	0.0	+	52	verb	phrase	1	11	match	mieux	5	1	p	0.4571
504.9915	0.0	+	52	verb	phrase	1	12	match	mieux	5	1	p	0.4571
506.9906	0.0	MIEUX	52	verb	phrase	1	13	match	mieux	5	1	p	0.4571
507.50700000000006	0.0	+	52	verb	phrase	1	14	match	mieux	5	1	p	0.4571
507.44770000000017	0.0	[response]	52	verb	phrase	1	15	match	mieux	5	1	p	0.4571
509.3895	0.0	+	53	verb	phrase	3	1	match	tôt	5	1	p	0.39308
509.9393	0.2	bsg	53	verb	phrase	3	2	match	tôt	5	1	p	0.39308
510.13919999999996	0.0	+	53	verb	phrase	3	3	match	tôt	5	1	p	0.39308
510.539	0.2	dkcf	53	verb	phrase	3	4	match	tôt	5	1	p	0.39308
510.73890000000006	0.0	+	53	verb	phrase	3	5	match	tôt	5	1	p	0.39308
511.1387	0.2	va	53	verb	phrase	3	6	match	tôt	5	1	p	0.39308
511.3387	0.0	+	53	verb	phrase	3	7	match	tôt	5	1	p	0.39308
511.73850000000004	0.2	danser	53	verb	phrase	3	8	match	tôt	5	1	p	0.39308
511.9384	0.0	+	53	verb	phrase	3	9	match	tôt	5	1	p	0.39308
512.3382	0.2	tôt	53	verb	phrase	3	10	match	tôt	5	1	p	0.39308
512.5381	0.0	+	53	verb	phrase	3	11	match	tôt	5	1	p	0.39308
512.9379	0.0	+	53	verb	phrase	3	12	match	tôt	5	1	p	0.39308
514.9371	0.0	TÔT	53	verb	phrase	3	13	match	tôt	5	1	p	0.39308
515.3869	0.0	+	53	verb	phrase	3	14	match	tôt	5	1	p	0.39308
515.3301	0.0	[response]	53	verb	phrase	3	15	match	tôt	5	1	p	0.39308
533.3455	0.0	+	54	verb	phrase	1	1	match	voyager	5	1	p	0.40818000000000004
533.8953	0.2	nvmfh	54	verb	phrase	1	2	match	voyager	5	1	p	0.40818000000000004
534.0952	0.0	+	54	verb	phrase	1	3	match	voyager	5	1	p	0.40818000000000004
534.495	0.2	qrkg	54	verb	phrase	1	4	match	voyager	5	1	p	0.40818000000000004
534.6949	0.0	+	54	verb	phrase	1	5	match	voyager	5	1	p	0.40818000000000004
535.0947	0.2	vcpx	54	verb	phrase	1	6	match	voyager	5	1	p	0.40818000000000004
535.2946000000001	0.0	+	54	verb	phrase	1	7	match	voyager	5	1	p	0.40818000000000004
535.6945000000001	0.2	zxhg	54	verb	phrase	1	8	match	voyager	5	1	p	0.40818000000000004
535.8944	0.0	+	54	verb	phrase	1	9	match	voyager	5	1	p	0.40818000000000004
536.2942	0.2	voyager	54	verb	phrase	1	10	match	voyager	5	1	p	0.40818000000000004
536.4941	0.0	+	54	verb	phrase	1	11	match	voyager	5	1	p	0.40818000000000004
536.8939	0.0	+	54	verb	phrase	1	12	match	voyager	5	1	p	0.40818000000000004
538.893	0.0	VOYAGER	54	verb	phrase	1	13	match	voyager	5	1	p	0.40818000000000004
539.3595	0.0	+	54	verb	phrase	1	14	match	voyager	5	1	p	0.40818000000000004
539.3012	0.0	[response]	54	verb	phrase	1	15	match	voyager	5	1	p	0.40818000000000004
541.2919	0.0	+	55	noun	phrase	4	1	nomatch	jade	-1	1	y	0.95787
541.8417000000001	0.2	hlbcwr	55	noun	phrase	4	2	nomatch	jade	-1	1	y	0.95787
542.0416	0.0	+	55	noun	phrase	4	3	nomatch	jade	-1	1	y	0.95787
542.4414	0.2	vers	55	noun	phrase	4	4	nomatch	jade	-1	1	y	0.95787
542.6414	0.0	+	55	noun	phrase	4	5	nomatch	jade	-1	1	y	0.95787
543.0412	0.2	leur	55	noun	phrase	4	6	nomatch	jade	-1	1	y	0.95787
543.2411	0.0	+	55	noun	phrase	4	7	nomatch	jade	-1	1	y	0.95787
543.6409	0.2	nouveau	55	noun	phrase	4	8	nomatch	jade	-1	1	y	0.95787
543.8408000000001	0.0	+	55	noun	phrase	4	9	nomatch	jade	-1	1	y	0.95787
544.2406	0.2	grenier	55	noun	phrase	4	10	nomatch	jade	-1	1	y	0.95787
544.4405	0.0	+	55	noun	phrase	4	11	nomatch	jade	-1	1	y	0.95787
544.8404	0.0	+	55	noun	phrase	4	12	nomatch	jade	-1	1	y	0.95787
546.8395	0.0	JADE	55	noun	phrase	4	13	nomatch	jade	-1	1	y	0.95787
547.8557	0.0	+	55	noun	phrase	4	14	nomatch	jade	-1	1	y	0.95787
547.7974	0.0	[response]	55	noun	phrase	4	15	nomatch	jade	-1	1	y	0.95787
549.2384	0.0	+	56	noun	phrase	2	1	match	grand	4	1	p	0.59508
549.7882	0.2	jmcxp	56	noun	phrase	2	2	match	grand	4	1	p	0.59508
549.9881	0.0	+	56	noun	phrase	2	3	match	grand	4	1	p	0.59508
550.3879000000001	0.2	dgph	56	noun	phrase	2	4	match	grand	4	1	p	0.59508
550.5878	0.0	+	56	noun	phrase	2	5	match	grand	4	1	p	0.59508
550.9876	0.2	smdc	56	noun	phrase	2	6	match	grand	4	1	p	0.59508
551.1875	0.0	+	56	noun	phrase	2	7	match	grand	4	1	p	0.59508
551.5874	0.2	grand	56	noun	phrase	2	8	match	grand	4	1	p	0.59508
551.7873	0.0	+	56	noun	phrase	2	9	match	grand	4	1	p	0.59508
552.1871	0.2	boîtier	56	noun	phrase	2	10	match	grand	4	1	p	0.59508
552.3870000000001	0.0	+	56	noun	phrase	2	11	match	grand	4	1	p	0.59508
552.7868	0.0	+	56	noun	phrase	2	12	match	grand	4	1	p	0.59508
554.7859	0.0	GRAND	56	noun	phrase	2	13	match	grand	4	1	p	0.59508
555.4356	0.0	+	56	noun	phrase	2	14	match	grand	4	1	p	0.59508
555.381	0.0	[response]	56	noun	phrase	2	15	match	grand	4	1	p	0.59508
557.1849	0.0	+	57	verb	phrase	4	1	match	voyager	5	1	p	0.56757
557.7346	0.2	nzdm	57	verb	phrase	4	2	match	voyager	5	1	p	0.56757
557.9345	0.0	+	57	verb	phrase	4	3	match	voyager	5	1	p	0.56757
558.3343	0.2	yves	57	verb	phrase	4	4	match	voyager	5	1	p	0.56757
558.5343	0.0	+	57	verb	phrase	4	5	match	voyager	5	1	p	0.56757
558.9341000000001	0.2	doit	57	verb	phrase	4	6	match	voyager	5	1	p	0.56757
559.134	0.0	+	57	verb	phrase	4	7	match	voyager	5	1	p	0.56757
559.5338	0.2	trop	57	verb	phrase	4	8	match	voyager	5	1	p	0.56757
559.7337	0.0	+	57	verb	phrase	4	9	match	voyager	5	1	p	0.56757
560.1338	0.2	voyager	57	verb	phrase	4	10	match	voyager	5	1	p	0.56757
560.3501	0.0	+	57	verb	phrase	4	11	match	voyager	5	1	p	0.56757
560.75	0.0	+	57	verb	phrase	4	12	match	voyager	5	1	p	0.56757
562.749	0.0	VOYAGER	57	verb	phrase	4	13	match	voyager	5	1	p	0.56757
563.3821	0.0	+	57	verb	phrase	4	14	match	voyager	5	1	p	0.56757
563.3166	0.0	[response]	57	verb	phrase	4	15	match	voyager	5	1	p	0.56757
565.148	0.0	+	58	verb	phrase	4	1	nomatch	tard	-1	1	y	0.60602
565.6977	0.2	bhf	58	verb	phrase	4	2	nomatch	tard	-1	1	y	0.60602
565.8976	0.0	+	58	verb	phrase	4	3	nomatch	tard	-1	1	y	0.60602
566.2975	0.2	jean	58	verb	phrase	4	4	nomatch	tard	-1	1	y	0.60602
566.4974	0.0	+	58	verb	phrase	4	5	nomatch	tard	-1	1	y	0.60602
566.8972	0.2	va	58	verb	phrase	4	6	nomatch	tard	-1	1	y	0.60602
567.0971	0.0	+	58	verb	phrase	4	7	nomatch	tard	-1	1	y	0.60602
567.4969	0.2	patiner	58	verb	phrase	4	8	nomatch	tard	-1	1	y	0.60602
567.6968	0.0	+	58	verb	phrase	4	9	nomatch	tard	-1	1	y	0.60602
568.0967	0.2	loin	58	verb	phrase	4	10	nomatch	tard	-1	1	y	0.60602
568.2966	0.0	+	58	verb	phrase	4	11	nomatch	tard	-1	1	y	0.60602
568.6964	0.0	+	58	verb	phrase	4	12	nomatch	tard	-1	1	y	0.60602
570.6955	0.0	TARD	58	verb	phrase	4	13	nomatch	tard	-1	1	y	0.60602
571.3619	0.0	+	58	verb	phrase	4	14	nomatch	tard	-1	1	y	0.60602
571.3015	0.0	[response]	58	verb	phrase	4	15	nomatch	tard	-1	1	y	0.60602
573.0944	0.0	+	59	verb	phrase	3	1	match	jongler	4	1	p	0.75857
573.6442	0.2	jzngqrm	59	verb	phrase	3	2	match	jongler	4	1	p	0.75857
573.8441	0.0	+	59	verb	phrase	3	3	match	jongler	4	1	p	0.75857
574.2439	0.2	lnqh	59	verb	phrase	3	4	match	jongler	4	1	p	0.75857
574.4438	0.0	+	59	verb	phrase	3	5	match	jongler	4	1	p	0.75857
574.8436	0.2	doit	59	verb	phrase	3	6	match	jongler	4	1	p	0.75857
575.0436	0.0	+	59	verb	phrase	3	7	match	jongler	4	1	p	0.75857
575.4436000000001	0.2	jongler	59	verb	phrase	3	8	match	jongler	4	1	p	0.75857
575.6433	0.0	+	59	verb	phrase	3	9	match	jongler	4	1	p	0.75857
576.0431	0.2	vite	59	verb	phrase	3	10	match	jongler	4	1	p	0.75857
576.243	0.0	+	59	verb	phrase	3	11	match	jongler	4	1	p	0.75857
576.6428	0.0	+	59	verb	phrase	3	12	match	jongler	4	1	p	0.75857
578.642	0.0	JONGLER	59	verb	phrase	3	13	match	jongler	4	1	p	0.75857
579.4583	0.0	+	59	verb	phrase	3	14	match	jongler	4	1	p	0.75857
579.4005	0.0	[response]	59	verb	phrase	3	15	match	jongler	4	1	p	0.75857
581.0409	0.0	+	60	noun	list	1	1	match	trop	5	1	p	0.66195
581.5906	0.2	vls	60	noun	list	1	2	match	trop	5	1	p	0.66195
581.7906	0.0	+	60	noun	list	1	3	match	trop	5	1	p	0.66195
582.1904	0.2	nfzp	60	noun	list	1	4	match	trop	5	1	p	0.66195
582.3903	0.0	+	60	noun	list	1	5	match	trop	5	1	p	0.66195
582.7901	0.2	wbn	60	noun	list	1	6	match	trop	5	1	p	0.66195
582.99	0.0	+	60	noun	list	1	7	match	trop	5	1	p	0.66195
583.3898	0.2	wghxfn	60	noun	list	1	8	match	trop	5	1	p	0.66195
583.5897	0.0	+	60	noun	list	1	9	match	trop	5	1	p	0.66195
583.9896	0.2	trop	60	noun	list	1	10	match	trop	5	1	p	0.66195
584.1895	0.0	+	60	noun	list	1	11	match	trop	5	1	p	0.66195
584.5893	0.0	+	60	noun	list	1	12	match	trop	5	1	p	0.66195
586.5884	0.0	TROP	60	noun	list	1	13	match	trop	5	1	p	0.66195
587.3047	0.0	+	60	noun	list	1	14	match	trop	5	1	p	0.66195
587.2503	0.0	[response]	60	noun	list	1	15	match	trop	5	1	p	0.66195
588.9873	0.0	+	61	verb	list	1	1	match	danser	5	1	p	0.59964
589.5371	0.2	rvj	61	verb	list	1	2	match	danser	5	1	p	0.59964
589.737	0.0	+	61	verb	list	1	3	match	danser	5	1	p	0.59964
590.1368	0.2	jsgh	61	verb	list	1	4	match	danser	5	1	p	0.59964
590.3367	0.0	+	61	verb	list	1	5	match	danser	5	1	p	0.59964
590.7366	0.2	vcpx	61	verb	list	1	6	match	danser	5	1	p	0.59964
590.9365	0.0	+	61	verb	list	1	7	match	danser	5	1	p	0.59964
591.3363	0.2	rwhjncq	61	verb	list	1	8	match	danser	5	1	p	0.59964
591.5362	0.0	+	61	verb	list	1	9	match	danser	5	1	p	0.59964
591.936	0.2	danser	61	verb	list	1	10	match	danser	5	1	p	0.59964
592.1359	0.0	+	61	verb	list	1	11	match	danser	5	1	p	0.59964
592.5357	0.0	+	61	verb	list	1	12	match	danser	5	1	p	0.59964
594.5349	0.0	DANSER	61	verb	list	1	13	match	danser	5	1	p	0.59964
595.2012	0.0	+	61	verb	list	1	14	match	danser	5	1	p	0.59964
595.1345	0.0	[response]	61	verb	list	1	15	match	danser	5	1	p	0.59964
596.9338	0.0	+	62	noun	list	4	1	match	va	3	1	p	0.75623
597.4838	0.2	mwczk	62	noun	list	4	2	match	va	3	1	p	0.75623
597.7001	0.0	+	62	noun	list	4	3	match	va	3	1	p	0.75623
598.0999	0.2	vers	62	noun	list	4	4	match	va	3	1	p	0.75623
598.2998	0.0	+	62	noun	list	4	5	match	va	3	1	p	0.75623
598.6997	0.2	va	62	noun	list	4	6	match	va	3	1	p	0.75623
598.8996	0.0	+	62	noun	list	4	7	match	va	3	1	p	0.75623
599.2994	0.2	rocher	62	noun	list	4	8	match	va	3	1	p	0.75623
599.4993000000001	0.0	+	62	noun	list	4	9	match	va	3	1	p	0.75623
599.8991	0.2	vite	62	noun	list	4	10	match	va	3	1	p	0.75623
600.099	0.0	+	62	noun	list	4	11	match	va	3	1	p	0.75623
600.4989	0.0	+	62	noun	list	4	12	match	va	3	1	p	0.75623
602.498	0.0	VA	62	noun	list	4	13	match	va	3	1	p	0.75623
603.3143	0.0	+	62	noun	list	4	14	match	va	3	1	p	0.75623
603.2542	0.0	[response]	62	noun	list	4	15	match	va	3	1	p	0.75623
604.8969	0.0	+	63	noun	list	4	1	nomatch	grand	-1	1	y	0.69186
605.4472	0.2	hjq	63	noun	list	4	2	nomatch	grand	-1	1	y	0.69186
605.6466	0.0	+	63	noun	list	4	3	nomatch	grand	-1	1	y	0.69186
606.0464000000001	0.2	marc	63	noun	list	4	4	nomatch	grand	-1	1	y	0.69186
606.2463	0.0	+	63	noun	list	4	5	nomatch	grand	-1	1	y	0.69186
606.6461	0.2	leur	63	noun	list	4	6	nomatch	grand	-1	1	y	0.69186
606.846	0.0	+	63	noun	list	4	7	nomatch	grand	-1	1	y	0.69186
607.2459	0.2	beaucoup	63	noun	list	4	8	nomatch	grand	-1	1	y	0.69186
607.4458	0.0	+	63	noun	list	4	9	nomatch	grand	-1	1	y	0.69186
607.8456	0.2	clavier	63	noun	list	4	10	nomatch	grand	-1	1	y	0.69186
608.0455000000001	0.0	+	63	noun	list	4	11	nomatch	grand	-1	1	y	0.69186
608.4456	0.0	+	63	noun	list	4	12	nomatch	grand	-1	1	y	0.69186
610.4444	0.0	GRAND	63	noun	list	4	13	nomatch	grand	-1	1	y	0.69186
611.1941	0.0	+	63	noun	list	4	14	nomatch	grand	-1	1	y	0.69186
611.1363	0.0	[response]	63	noun	list	4	15	nomatch	grand	-1	1	y	0.69186
612.8433	0.0	+	64	verb	list	2	1	match	jongler	5	1	p	0.66073
613.3931	0.2	gdlz	64	verb	list	2	2	match	jongler	5	1	p	0.66073
613.593	0.0	+	64	verb	list	2	3	match	jongler	5	1	p	0.66073
613.9928	0.2	jsgh	64	verb	list	2	4	match	jongler	5	1	p	0.66073
614.1927000000001	0.0	+	64	verb	list	2	5	match	jongler	5	1	p	0.66073
614.5926000000001	0.2	vcpx	64	verb	list	2	6	match	jongler	5	1	p	0.66073
614.7925	0.0	+	64	verb	list	2	7	match	jongler	5	1	p	0.66073
615.1923	0.2	beau	64	verb	list	2	8	match	jongler	5	1	p	0.66073
615.3922	0.0	+	64	verb	list	2	9	match	jongler	5	1	p	0.66073
615.792	0.2	jongler	64	verb	list	2	10	match	jongler	5	1	p	0.66073
615.9919	0.0	+	64	verb	list	2	11	match	jongler	5	1	p	0.66073
616.3918	0.0	+	64	verb	list	2	12	match	jongler	5	1	p	0.66073
618.3909	0.0	JONGLER	64	verb	list	2	13	match	jongler	5	1	p	0.66073
619.1072	0.0	+	64	verb	list	2	14	match	jongler	5	1	p	0.66073
619.0516	0.0	[response]	64	verb	list	2	15	match	jongler	5	1	p	0.66073
620.7898	0.0	+	65	noun	phrase	1	1	match	boîtier	5	1	p	0.63606
621.3395	0.2	dwpq	65	noun	phrase	1	2	match	boîtier	5	1	p	0.63606
621.5395	0.0	+	65	noun	phrase	1	3	match	boîtier	5	1	p	0.63606
621.9393	0.2	grd	65	noun	phrase	1	4	match	boîtier	5	1	p	0.63606
622.1392	0.0	+	65	noun	phrase	1	5	match	boîtier	5	1	p	0.63606
622.539	0.2	hjw	65	noun	phrase	1	6	match	boîtier	5	1	p	0.63606
622.7389000000001	0.0	+	65	noun	phrase	1	7	match	boîtier	5	1	p	0.63606
623.1387	0.2	prczn	65	noun	phrase	1	8	match	boîtier	5	1	p	0.63606
623.3387	0.0	+	65	noun	phrase	1	9	match	boîtier	5	1	p	0.63606
623.7385	0.2	boîtier	65	noun	phrase	1	10	match	boîtier	5	1	p	0.63606
623.9384	0.0	+	65	noun	phrase	1	11	match	boîtier	5	1	p	0.63606
624.3382	0.0	+	65	noun	phrase	1	12	match	boîtier	5	1	p	0.63606
626.3373	0.0	BOÎTIER	65	noun	phrase	1	13	match	boîtier	5	1	p	0.63606
627.037	0.0	+	65	noun	phrase	1	14	match	boîtier	5	1	p	0.63606
626.9734	0.0	[response]	65	noun	phrase	1	15	match	boîtier	5	1	p	0.63606
628.7362	0.0	+	66	verb	phrase	1	1	match	tard	5	1	p	0.4832000000000001
629.2860000000001	0.2	vxq	66	verb	phrase	1	2	match	tard	5	1	p	0.4832000000000001
629.4859	0.0	+	66	verb	phrase	1	3	match	tard	5	1	p	0.4832000000000001
629.8857	0.2	nlxv	66	verb	phrase	1	4	match	tard	5	1	p	0.4832000000000001
630.0856	0.0	+	66	verb	phrase	1	5	match	tard	5	1	p	0.4832000000000001
630.4855	0.2	fhjp	66	verb	phrase	1	6	match	tard	5	1	p	0.4832000000000001
630.6854	0.0	+	66	verb	phrase	1	7	match	tard	5	1	p	0.4832000000000001
631.0852	0.2	tsqpr	66	verb	phrase	1	8	match	tard	5	1	p	0.4832000000000001
631.2851	0.0	+	66	verb	phrase	1	9	match	tard	5	1	p	0.4832000000000001
631.6849	0.2	tard	66	verb	phrase	1	10	match	tard	5	1	p	0.4832000000000001
631.8848	0.0	+	66	verb	phrase	1	11	match	tard	5	1	p	0.4832000000000001
632.2847	0.0	+	66	verb	phrase	1	12	match	tard	5	1	p	0.4832000000000001
634.2838	0.0	TARD	66	verb	phrase	1	13	match	tard	5	1	p	0.4832000000000001
634.8335	0.0	+	66	verb	phrase	1	14	match	tard	5	1	p	0.4832000000000001
634.767	0.0	[response]	66	verb	phrase	1	15	match	tard	5	1	p	0.4832000000000001
644.6958	0.0	+	67	verb	phrase	1	1	match	patiner	5	1	p	0.52966
645.2455	0.2	cgxknr	67	verb	phrase	1	2	match	patiner	5	1	p	0.52966
645.4455	0.0	+	67	verb	phrase	1	3	match	patiner	5	1	p	0.52966
645.8453	0.2	qrkg	67	verb	phrase	1	4	match	patiner	5	1	p	0.52966
646.0452	0.0	+	67	verb	phrase	1	5	match	patiner	5	1	p	0.52966
646.445	0.2	vcpx	67	verb	phrase	1	6	match	patiner	5	1	p	0.52966
646.6449	0.0	+	67	verb	phrase	1	7	match	patiner	5	1	p	0.52966
647.0447	0.2	xsnvl	67	verb	phrase	1	8	match	patiner	5	1	p	0.52966
647.2446	0.0	+	67	verb	phrase	1	9	match	patiner	5	1	p	0.52966
647.6445	0.2	patiner	67	verb	phrase	1	10	match	patiner	5	1	p	0.52966
647.8444	0.0	+	67	verb	phrase	1	11	match	patiner	5	1	p	0.52966
648.2442	0.0	+	67	verb	phrase	1	12	match	patiner	5	1	p	0.52966
650.2433	0.0	PATINER	67	verb	phrase	1	13	match	patiner	5	1	p	0.52966
650.8264	0.0	+	67	verb	phrase	1	14	match	patiner	5	1	p	0.52966
650.773	0.0	[response]	67	verb	phrase	1	15	match	patiner	5	1	p	0.52966
652.6422	0.0	+	68	verb	list	1	1	nomatch	grand	-1	1	y	0.70805
653.192	0.2	gndbcz	68	verb	list	1	2	nomatch	grand	-1	1	y	0.70805
653.3919	0.0	+	68	verb	list	1	3	nomatch	grand	-1	1	y	0.70805
653.7917	0.2	lnqh	68	verb	list	1	4	nomatch	grand	-1	1	y	0.70805
653.9916000000001	0.0	+	68	verb	list	1	5	nomatch	grand	-1	1	y	0.70805
654.3915	0.2	wbn	68	verb	list	1	6	nomatch	grand	-1	1	y	0.70805
654.5914	0.0	+	68	verb	list	1	7	nomatch	grand	-1	1	y	0.70805
654.9912	0.2	qlwv	68	verb	list	1	8	nomatch	grand	-1	1	y	0.70805
655.1911	0.0	+	68	verb	list	1	9	nomatch	grand	-1	1	y	0.70805
655.5909	0.2	voyager	68	verb	list	1	10	nomatch	grand	-1	1	y	0.70805
655.7908	0.0	+	68	verb	list	1	11	nomatch	grand	-1	1	y	0.70805
656.1907	0.0	+	68	verb	list	1	12	nomatch	grand	-1	1	y	0.70805
658.1898	0.0	GRAND	68	verb	list	1	13	nomatch	grand	-1	1	y	0.70805
658.9561	0.0	+	68	verb	list	1	14	nomatch	grand	-1	1	y	0.70805
658.8978	0.0	[response]	68	verb	list	1	15	nomatch	grand	-1	1	y	0.70805
660.5887	0.0	+	69	noun	phrase	1	1	match	rouge	5	1	p	0.67707
661.1385	0.2	pvk	69	noun	phrase	1	2	match	rouge	5	1	p	0.67707
661.3384	0.0	+	69	noun	phrase	1	3	match	rouge	5	1	p	0.67707
661.7382	0.2	dkjf	69	noun	phrase	1	4	match	rouge	5	1	p	0.67707
661.9381	0.0	+	69	noun	phrase	1	5	match	rouge	5	1	p	0.67707
662.3379	0.2	hjw	69	noun	phrase	1	6	match	rouge	5	1	p	0.67707
662.5378000000001	0.0	+	69	noun	phrase	1	7	match	rouge	5	1	p	0.67707
662.9376	0.2	mthzjxq	69	noun	phrase	1	8	match	rouge	5	1	p	0.67707
663.1376	0.0	+	69	noun	phrase	1	9	match	rouge	5	1	p	0.67707
663.5374	0.2	rouge	69	noun	phrase	1	10	match	rouge	5	1	p	0.67707
663.7373	0.0	+	69	noun	phrase	1	11	match	rouge	5	1	p	0.67707
664.1371	0.0	+	69	noun	phrase	1	12	match	rouge	5	1	p	0.67707
666.1362	0.0	ROUGE	69	noun	phrase	1	13	match	rouge	5	1	p	0.67707
666.8692	0.0	+	69	noun	phrase	1	14	match	rouge	5	1	p	0.67707
666.8133000000001	0.0	[response]	69	noun	phrase	1	15	match	rouge	5	1	p	0.67707
668.5352	0.0	+	70	verb	phrase	1	1	match	trop	5	1	p	0.51145
669.0849000000001	0.2	sfwj	70	verb	phrase	1	2	match	trop	5	1	p	0.51145
669.2848	0.0	+	70	verb	phrase	1	3	match	trop	5	1	p	0.51145
669.6846	0.2	nfzp	70	verb	phrase	1	4	match	trop	5	1	p	0.51145
669.8845	0.0	+	70	verb	phrase	1	5	match	trop	5	1	p	0.51145
670.2844	0.2	th	70	verb	phrase	1	6	match	trop	5	1	p	0.51145
670.4843	0.0	+	70	verb	phrase	1	7	match	trop	5	1	p	0.51145
670.8841	0.2	kdljsv	70	verb	phrase	1	8	match	trop	5	1	p	0.51145
671.0840000000001	0.0	+	70	verb	phrase	1	9	match	trop	5	1	p	0.51145
671.4838	0.2	trop	70	verb	phrase	1	10	match	trop	5	1	p	0.51145
671.6837	0.0	+	70	verb	phrase	1	11	match	trop	5	1	p	0.51145
672.0836	0.0	+	70	verb	phrase	1	12	match	trop	5	1	p	0.51145
674.0993	0.0	TROP	70	verb	phrase	1	13	match	trop	5	1	p	0.51145
674.6657	0.0	+	70	verb	phrase	1	14	match	trop	5	1	p	0.51145
674.6108	0.0	[response]	70	verb	phrase	1	15	match	trop	5	1	p	0.51145
676.4983	0.0	+	71	noun	phrase	1	1	nomatch	cendrier	-1	1	y	0.62803
677.048	0.2	qgt	71	noun	phrase	1	2	nomatch	cendrier	-1	1	y	0.62803
677.2479	0.0	+	71	noun	phrase	1	3	nomatch	cendrier	-1	1	y	0.62803
677.6478	0.2	dkjf	71	noun	phrase	1	4	nomatch	cendrier	-1	1	y	0.62803
677.8477	0.0	+	71	noun	phrase	1	5	nomatch	cendrier	-1	1	y	0.62803
678.2475000000001	0.2	smdc	71	noun	phrase	1	6	nomatch	cendrier	-1	1	y	0.62803
678.4474	0.0	+	71	noun	phrase	1	7	nomatch	cendrier	-1	1	y	0.62803
678.8472	0.2	jxbp	71	noun	phrase	1	8	nomatch	cendrier	-1	1	y	0.62803
679.0471	0.0	+	71	noun	phrase	1	9	nomatch	cendrier	-1	1	y	0.62803
679.4476	0.2	clavier	71	noun	phrase	1	10	nomatch	cendrier	-1	1	y	0.62803
679.6468	0.0	+	71	noun	phrase	1	11	nomatch	cendrier	-1	1	y	0.62803
680.0467	0.0	+	71	noun	phrase	1	12	nomatch	cendrier	-1	1	y	0.62803
682.0458	0.0	CENDRIER	71	noun	phrase	1	13	nomatch	cendrier	-1	1	y	0.62803
682.7288	0.0	+	71	noun	phrase	1	14	nomatch	cendrier	-1	1	y	0.62803
682.6738000000001	0.0	[response]	71	noun	phrase	1	15	nomatch	cendrier	-1	1	y	0.62803
684.4447	0.0	+	72	verb	phrase	1	1	nomatch	plonger	-1	1	y	1.5768
684.9945	0.2	rwqbg	72	verb	phrase	1	2	nomatch	plonger	-1	1	y	1.5768
685.1944	0.0	+	72	verb	phrase	1	3	nomatch	plonger	-1	1	y	1.5768
685.5942	0.2	cqx	72	verb	phrase	1	4	nomatch	plonger	-1	1	y	1.5768
685.7941	0.0	+	72	verb	phrase	1	5	nomatch	plonger	-1	1	y	1.5768
686.1939	0.2	fhjp	72	verb	phrase	1	6	nomatch	plonger	-1	1	y	1.5768
686.3938	0.0	+	72	verb	phrase	1	7	nomatch	plonger	-1	1	y	1.5768
686.7937000000001	0.2	rkvz	72	verb	phrase	1	8	nomatch	plonger	-1	1	y	1.5768
686.9936	0.0	+	72	verb	phrase	1	9	nomatch	plonger	-1	1	y	1.5768
687.3934	0.2	danser	72	verb	phrase	1	10	nomatch	plonger	-1	1	y	1.5768
687.5933	0.0	+	72	verb	phrase	1	11	nomatch	plonger	-1	1	y	1.5768
687.9931	0.0	+	72	verb	phrase	1	12	nomatch	plonger	-1	1	y	1.5768
689.9922	0.0	PLONGER	72	verb	phrase	1	13	nomatch	plonger	-1	1	y	1.5768
691.6248	0.0	+	72	verb	phrase	1	14	nomatch	plonger	-1	1	y	1.5768
691.569	0.0	[response]	72	verb	phrase	1	15	nomatch	plonger	-1	1	y	1.5768
692.3912	0.0	+	73	verb	list	4	1	match	dans	2	1	p	0.44431000000000004
692.9409	0.2	mfxc	73	verb	list	4	2	match	dans	2	1	p	0.44431000000000004
693.1408	0.0	+	73	verb	list	4	3	match	dans	2	1	p	0.44431000000000004
693.5406	0.2	dans	73	verb	list	4	4	match	dans	2	1	p	0.44431000000000004
693.7406	0.0	+	73	verb	list	4	5	match	dans	2	1	p	0.44431000000000004
694.1404	0.2	peut	73	verb	list	4	6	match	dans	2	1	p	0.44431000000000004
694.3403	0.0	+	73	verb	list	4	7	match	dans	2	1	p	0.44431000000000004
694.7401	0.2	beau	73	verb	list	4	8	match	dans	2	1	p	0.44431000000000004
694.94	0.0	+	73	verb	list	4	9	match	dans	2	1	p	0.44431000000000004
695.3399000000001	0.2	rouler	73	verb	list	4	10	match	dans	2	1	p	0.44431000000000004
695.5398	0.0	+	73	verb	list	4	11	match	dans	2	1	p	0.44431000000000004
695.9396	0.0	+	73	verb	list	4	12	match	dans	2	1	p	0.44431000000000004
697.9387	0.0	DANS	73	verb	list	4	13	match	dans	2	1	p	0.44431000000000004
698.4385	0.0	+	73	verb	list	4	14	match	dans	2	1	p	0.44431000000000004
698.383	0.0	[response]	73	verb	list	4	15	match	dans	2	1	p	0.44431000000000004
700.3376	0.0	+	74	noun	phrase	3	1	match	vieux	4	1	p	0.68103
700.8874	0.2	dvgrmt	74	noun	phrase	3	2	match	vieux	4	1	p	0.68103
701.0873	0.0	+	74	noun	phrase	3	3	match	vieux	4	1	p	0.68103
701.4871	0.2	qrdf	74	noun	phrase	3	4	match	vieux	4	1	p	0.68103
701.687	0.0	+	74	noun	phrase	3	5	match	vieux	4	1	p	0.68103
702.0868	0.2	leur	74	noun	phrase	3	6	match	vieux	4	1	p	0.68103
702.2867	0.0	+	74	noun	phrase	3	7	match	vieux	4	1	p	0.68103
702.6866	0.2	vieux	74	noun	phrase	3	8	match	vieux	4	1	p	0.68103
702.8865	0.0	+	74	noun	phrase	3	9	match	vieux	4	1	p	0.68103
703.2863	0.2	voilier	74	noun	phrase	3	10	match	vieux	4	1	p	0.68103
703.4862	0.0	+	74	noun	phrase	3	11	match	vieux	4	1	p	0.68103
703.886	0.0	+	74	noun	phrase	3	12	match	vieux	4	1	p	0.68103
705.8851	0.0	VIEUX	74	noun	phrase	3	13	match	vieux	4	1	p	0.68103
706.6181	0.0	+	74	noun	phrase	3	14	match	vieux	4	1	p	0.68103
706.5662	0.0	[response]	74	noun	phrase	3	15	match	vieux	4	1	p	0.68103
708.2841	0.0	+	75	verb	list	4	1	nomatch	plus	-1	1	y	0.6384400000000001
708.8338	0.2	jghqr	75	verb	list	4	2	nomatch	plus	-1	1	y	0.6384400000000001
709.0337	0.0	+	75	verb	list	4	3	nomatch	plus	-1	1	y	0.6384400000000001
709.4336	0.2	jade	75	verb	list	4	4	nomatch	plus	-1	1	y	0.6384400000000001
709.6501	0.0	+	75	verb	list	4	5	nomatch	plus	-1	1	y	0.6384400000000001
710.05	0.2	son	75	verb	list	4	6	nomatch	plus	-1	1	y	0.6384400000000001
710.2499	0.0	+	75	verb	list	4	7	nomatch	plus	-1	1	y	0.6384400000000001
710.6497	0.2	chasser	75	verb	list	4	8	nomatch	plus	-1	1	y	0.6384400000000001
710.8496	0.0	+	75	verb	list	4	9	nomatch	plus	-1	1	y	0.6384400000000001
711.2494	0.2	blanc	75	verb	list	4	10	nomatch	plus	-1	1	y	0.6384400000000001
711.4493	0.0	+	75	verb	list	4	11	nomatch	plus	-1	1	y	0.6384400000000001
711.8491	0.0	+	75	verb	list	4	12	nomatch	plus	-1	1	y	0.6384400000000001
713.8482	0.0	PLUS	75	verb	list	4	13	nomatch	plus	-1	1	y	0.6384400000000001
714.5479	0.0	+	75	verb	list	4	14	nomatch	plus	-1	1	y	0.6384400000000001
714.4867000000002	0.0	[response]	75	verb	list	4	15	nomatch	plus	-1	1	y	0.6384400000000001
716.2472	0.0	+	76	verb	list	1	1	nomatch	rouler	-1	1	y	0.62423
716.7969	0.2	jts	76	verb	list	1	2	nomatch	rouler	-1	1	y	0.62423
716.9968	0.0	+	76	verb	list	1	3	nomatch	rouler	-1	1	y	0.62423
717.3967	0.2	qrdf	76	verb	list	1	4	nomatch	rouler	-1	1	y	0.62423
717.5966	0.0	+	76	verb	list	1	5	nomatch	rouler	-1	1	y	0.62423
717.9964	0.2	fhjp	76	verb	list	1	6	nomatch	rouler	-1	1	y	0.62423
718.1963	0.0	+	76	verb	list	1	7	nomatch	rouler	-1	1	y	0.62423
718.5961	0.2	zlnqhjt	76	verb	list	1	8	nomatch	rouler	-1	1	y	0.62423
718.796	0.0	+	76	verb	list	1	9	nomatch	rouler	-1	1	y	0.62423
719.1959	0.2	beau	76	verb	list	1	10	nomatch	rouler	-1	1	y	0.62423
719.3958	0.0	+	76	verb	list	1	11	nomatch	rouler	-1	1	y	0.62423
719.7956	0.0	+	76	verb	list	1	12	nomatch	rouler	-1	1	y	0.62423
721.7947	0.0	ROULER	76	verb	list	1	13	nomatch	rouler	-1	1	y	0.62423
722.4777	0.0	+	76	verb	list	1	14	nomatch	rouler	-1	1	y	0.62423
722.4189000000001	0.0	[response]	76	verb	list	1	15	nomatch	rouler	-1	1	y	0.62423
732.1901	0.0	+	77	verb	list	2	1	nomatch	jongler	-1	1	y	0.63325
732.7398000000001	0.2	dblw	77	verb	list	2	2	nomatch	jongler	-1	1	y	0.63325
732.9397	0.0	+	77	verb	list	2	3	nomatch	jongler	-1	1	y	0.63325
733.3395	0.2	jqzp	77	verb	list	2	4	nomatch	jongler	-1	1	y	0.63325
733.5395	0.0	+	77	verb	list	2	5	nomatch	jongler	-1	1	y	0.63325
733.9393	0.2	th	77	verb	list	2	6	nomatch	jongler	-1	1	y	0.63325
734.1392	0.0	+	77	verb	list	2	7	nomatch	jongler	-1	1	y	0.63325
734.539	0.2	nouveau	77	verb	list	2	8	nomatch	jongler	-1	1	y	0.63325
734.7389000000001	0.0	+	77	verb	list	2	9	nomatch	jongler	-1	1	y	0.63325
735.1387	0.2	patiner	77	verb	list	2	10	nomatch	jongler	-1	1	y	0.63325
735.3386	0.0	+	77	verb	list	2	11	nomatch	jongler	-1	1	y	0.63325
735.7385	0.0	+	77	verb	list	2	12	nomatch	jongler	-1	1	y	0.63325
737.7376	0.0	JONGLER	77	verb	list	2	13	nomatch	jongler	-1	1	y	0.63325
738.4373	0.0	+	77	verb	list	2	14	nomatch	jongler	-1	1	y	0.63325
738.3708000000001	0.0	[response]	77	verb	list	2	15	nomatch	jongler	-1	1	y	0.63325
740.1365	0.0	+	78	verb	phrase	3	1	nomatch	marc	-1	1	y	0.79037
740.6863	0.2	vfp	78	verb	phrase	3	2	nomatch	marc	-1	1	y	0.79037
740.8862	0.0	+	78	verb	phrase	3	3	nomatch	marc	-1	1	y	0.79037
741.2860000000001	0.2	nfzp	78	verb	phrase	3	4	nomatch	marc	-1	1	y	0.79037
741.4859	0.0	+	78	verb	phrase	3	5	nomatch	marc	-1	1	y	0.79037
741.8857	0.2	peut	78	verb	phrase	3	6	nomatch	marc	-1	1	y	0.79037
742.0856	0.0	+	78	verb	phrase	3	7	nomatch	marc	-1	1	y	0.79037
742.4855	0.2	chasser	78	verb	phrase	3	8	nomatch	marc	-1	1	y	0.79037
742.6854	0.0	+	78	verb	phrase	3	9	nomatch	marc	-1	1	y	0.79037
743.0852	0.2	vite	78	verb	phrase	3	10	nomatch	marc	-1	1	y	0.79037
743.2851	0.0	+	78	verb	phrase	3	11	nomatch	marc	-1	1	y	0.79037
743.6849	0.0	+	78	verb	phrase	3	12	nomatch	marc	-1	1	y	0.79037
745.684	0.0	MARC	78	verb	phrase	3	13	nomatch	marc	-1	1	y	0.79037
746.5336	0.0	+	78	verb	phrase	3	14	nomatch	marc	-1	1	y	0.79037
746.4744000000001	0.0	[response]	78	verb	phrase	3	15	nomatch	marc	-1	1	y	0.79037
748.0996	0.0	+	79	verb	list	2	1	match	rouler	5	1	p	0.54872
748.6494	0.2	hwdr	79	verb	list	2	2	match	rouler	5	1	p	0.54872
748.8493	0.0	+	79	verb	list	2	3	match	rouler	5	1	p	0.54872
749.2491	0.2	skml	79	verb	list	2	4	match	rouler	5	1	p	0.54872
749.449	0.0	+	79	verb	list	2	5	match	rouler	5	1	p	0.54872
749.8489	0.2	fhjp	79	verb	list	2	6	match	rouler	5	1	p	0.54872
750.0487	0.0	+	79	verb	list	2	7	match	rouler	5	1	p	0.54872
750.4493	0.2	grand	79	verb	list	2	8	match	rouler	5	1	p	0.54872
750.6485	0.0	+	79	verb	list	2	9	match	rouler	5	1	p	0.54872
751.0483	0.2	rouler	79	verb	list	2	10	match	rouler	5	1	p	0.54872
751.2482	0.0	+	79	verb	list	2	11	match	rouler	5	1	p	0.54872
751.648	0.0	+	79	verb	list	2	12	match	rouler	5	1	p	0.54872
753.6472	0.0	ROULER	79	verb	list	2	13	match	rouler	5	1	p	0.54872
754.2635	0.0	+	79	verb	list	2	14	match	rouler	5	1	p	0.54872
754.1959	0.0	[response]	79	verb	list	2	15	match	rouler	5	1	p	0.54872
756.0461	0.0	+	80	verb	list	4	1	nomatch	mon	-1	1	y	0.57293
756.5958	0.2	clbpt	80	verb	list	4	2	nomatch	mon	-1	1	y	0.57293
756.7957	0.0	+	80	verb	list	4	3	nomatch	mon	-1	1	y	0.57293
757.1956	0.2	yves	80	verb	list	4	4	nomatch	mon	-1	1	y	0.57293
757.3955	0.0	+	80	verb	list	4	5	nomatch	mon	-1	1	y	0.57293
757.7953	0.2	leur	80	verb	list	4	6	nomatch	mon	-1	1	y	0.57293
757.9952	0.0	+	80	verb	list	4	7	nomatch	mon	-1	1	y	0.57293
758.395	0.2	patiner	80	verb	list	4	8	nomatch	mon	-1	1	y	0.57293
758.5949	0.0	+	80	verb	list	4	9	nomatch	mon	-1	1	y	0.57293
758.9948	0.2	rouge	80	verb	list	4	10	nomatch	mon	-1	1	y	0.57293
759.1947	0.0	+	80	verb	list	4	11	nomatch	mon	-1	1	y	0.57293
759.5945	0.0	+	80	verb	list	4	12	nomatch	mon	-1	1	y	0.57293
761.5936	0.0	MON	80	verb	list	4	13	nomatch	mon	-1	1	y	0.57293
762.2266	0.0	+	80	verb	list	4	14	nomatch	mon	-1	1	y	0.57293
763.9925	0.0	+	80	verb	list	4	15	nomatch	mon	-1	1	y	0.57293
782.0178	0.0	+	80	verb	list	4	16	nomatch	mon	-1	1	y	0.57293
762.1665	0.0	[response]	80	verb	list	4	17	nomatch	mon	-1	1	y	0.57293
