onset	duration	stim	trial_number	trial_type	trial_structure	trial_length	sequential_position	probe_type	probe	probe_position	response_correct	response_key	response_time
0.06390000000000384	0.0	+	1	noun	phrase	1	1	nomatch	moins	-1	1	y	0.57484
0.5471000000000004	0.2	vlxjqh	1	noun	phrase	1	2	nomatch	moins	-1	1	y	0.57484
0.7469000000000037	0.0	+	1	noun	phrase	1	3	nomatch	moins	-1	1	y	0.57484
1.146800000000006	0.2	jsgh	1	noun	phrase	1	4	nomatch	moins	-1	1	y	0.57484
1.3467000000000056	0.0	+	1	noun	phrase	1	5	nomatch	moins	-1	1	y	0.57484
1.7465000000000046	0.2	smdc	1	noun	phrase	1	6	nomatch	moins	-1	1	y	0.57484
1.9464000000000041	0.0	+	1	noun	phrase	1	7	nomatch	moins	-1	1	y	0.57484
2.346200000000003	0.2	wghxfn	1	noun	phrase	1	8	nomatch	moins	-1	1	y	0.57484
2.546200000000006	0.0	+	1	noun	phrase	1	9	nomatch	moins	-1	1	y	0.57484
2.946000000000005	0.2	rouge	1	noun	phrase	1	10	nomatch	moins	-1	1	y	0.57484
3.1459000000000046	0.0	+	1	noun	phrase	1	11	nomatch	moins	-1	1	y	0.57484
3.5457000000000036	0.0	+	1	noun	phrase	1	12	nomatch	moins	-1	1	y	0.57484
5.544800000000002	0.0	MOINS	1	noun	phrase	1	13	nomatch	moins	-1	1	y	0.57484
6.177900000000001	0.0	+	1	noun	phrase	1	14	nomatch	moins	-1	1	y	0.57484
6.119700000000002	0.0	[response]	1	noun	phrase	1	15	nomatch	moins	-1	1	y	0.57484
7.943700000000007	0.0	+	2	verb	list	1	1	match	nouveau	5	1	p	0.50882
8.493500000000004	0.2	tpqr	2	verb	list	1	2	match	nouveau	5	1	p	0.50882
8.693400000000004	0.0	+	2	verb	list	1	3	match	nouveau	5	1	p	0.50882
9.093200000000003	0.2	dgph	2	verb	list	1	4	match	nouveau	5	1	p	0.50882
9.293100000000003	0.0	+	2	verb	list	1	5	match	nouveau	5	1	p	0.50882
9.693000000000005	0.2	vcpx	2	verb	list	1	6	match	nouveau	5	1	p	0.50882
9.892900000000004	0.0	+	2	verb	list	1	7	match	nouveau	5	1	p	0.50882
10.292700000000004	0.2	kdljsv	2	verb	list	1	8	match	nouveau	5	1	p	0.50882
10.492600000000003	0.0	+	2	verb	list	1	9	match	nouveau	5	1	p	0.50882
10.89240000000001	0.2	nouveau	2	verb	list	1	10	match	nouveau	5	1	p	0.50882
11.092300000000009	0.0	+	2	verb	list	1	11	match	nouveau	5	1	p	0.50882
11.492199999999997	0.0	+	2	verb	list	1	12	match	nouveau	5	1	p	0.50882
13.49130000000001	0.0	NOUVEAU	2	verb	list	1	13	match	nouveau	5	1	p	0.50882
14.057699999999997	0.0	+	2	verb	list	1	14	match	nouveau	5	1	p	0.50882
14.000100000000018	0.0	[response]	2	verb	list	1	15	match	nouveau	5	1	p	0.50882
15.890200000000007	0.0	+	3	noun	list	4	1	match	va	3	1	p	0.8045400000000001
16.43990000000001	0.2	gkpzfdb	3	noun	list	4	2	match	va	3	1	p	0.8045400000000001
16.639899999999997	0.0	+	3	noun	list	4	3	match	va	3	1	p	0.8045400000000001
17.03970000000001	0.2	pour	3	noun	list	4	4	match	va	3	1	p	0.8045400000000001
17.23960000000001	0.0	+	3	noun	list	4	5	match	va	3	1	p	0.8045400000000001
17.63940000000001	0.2	va	3	noun	list	4	6	match	va	3	1	p	0.8045400000000001
17.83930000000001	0.0	+	3	noun	list	4	7	match	va	3	1	p	0.8045400000000001
18.239100000000008	0.2	tablier	3	noun	list	4	8	match	va	3	1	p	0.8045400000000001
18.43910000000001	0.0	+	3	noun	list	4	9	match	va	3	1	p	0.8045400000000001
18.83890000000001	0.2	loin	3	noun	list	4	10	match	va	3	1	p	0.8045400000000001
19.03880000000001	0.0	+	3	noun	list	4	11	match	va	3	1	p	0.8045400000000001
19.438600000000008	0.0	+	3	noun	list	4	12	match	va	3	1	p	0.8045400000000001
21.437700000000007	0.0	VA	3	noun	list	4	13	match	va	3	1	p	0.8045400000000001
22.304000000000002	0.0	+	3	noun	list	4	14	match	va	3	1	p	0.8045400000000001
22.242300000000014	0.0	[response]	3	noun	list	4	15	match	va	3	1	p	0.8045400000000001
31.8497	0.0	+	4	noun	phrase	2	1	match	bleu	5	1	p	0.60885
32.3995	0.2	zwnrd	4	noun	phrase	2	2	match	bleu	5	1	p	0.60885
32.5994	0.0	+	4	noun	phrase	2	3	match	bleu	5	1	p	0.60885
32.9992	0.2	grd	4	noun	phrase	2	4	match	bleu	5	1	p	0.60885
33.1991	0.0	+	4	noun	phrase	2	5	match	bleu	5	1	p	0.60885
33.599000000000004	0.2	smdc	4	noun	phrase	2	6	match	bleu	5	1	p	0.60885
33.7989	0.0	+	4	noun	phrase	2	7	match	bleu	5	1	p	0.60885
34.1987	0.2	voilier	4	noun	phrase	2	8	match	bleu	5	1	p	0.60885
34.3986	0.0	+	4	noun	phrase	2	9	match	bleu	5	1	p	0.60885
34.7984	0.2	bleu	4	noun	phrase	2	10	match	bleu	5	1	p	0.60885
34.9983	0.0	+	4	noun	phrase	2	11	match	bleu	5	1	p	0.60885
35.3981	0.0	+	4	noun	phrase	2	12	match	bleu	5	1	p	0.60885
37.3973	0.0	BLEU	4	noun	phrase	2	13	match	bleu	5	1	p	0.60885
38.06360000000001	0.0	+	4	noun	phrase	2	14	match	bleu	5	1	p	0.60885
38.00610000000002	0.0	[response]	4	noun	phrase	2	15	match	bleu	5	1	p	0.60885
39.7962	0.0	+	5	noun	list	4	1	match	peut	3	1	p	0.7485900000000001
40.3459	0.2	wpq	5	noun	list	4	2	match	peut	3	1	p	0.7485900000000001
40.5458	0.0	+	5	noun	list	4	3	match	peut	3	1	p	0.7485900000000001
40.9457	0.2	avec	5	noun	list	4	4	match	peut	3	1	p	0.7485900000000001
41.1456	0.0	+	5	noun	list	4	5	match	peut	3	1	p	0.7485900000000001
41.5454	0.2	peut	5	noun	list	4	6	match	peut	3	1	p	0.7485900000000001
41.7453	0.0	+	5	noun	list	4	7	match	peut	3	1	p	0.7485900000000001
42.1451	0.2	casier	5	noun	list	4	8	match	peut	3	1	p	0.7485900000000001
42.3451	0.0	+	5	noun	list	4	9	match	peut	3	1	p	0.7485900000000001
42.7449	0.2	tôt	5	noun	list	4	10	match	peut	3	1	p	0.7485900000000001
42.9448	0.0	+	5	noun	list	4	11	match	peut	3	1	p	0.7485900000000001
43.3446	0.0	+	5	noun	list	4	12	match	peut	3	1	p	0.7485900000000001
45.3437	0.0	PEUT	5	noun	list	4	13	match	peut	3	1	p	0.7485900000000001
46.16	0.0	+	5	noun	list	4	14	match	peut	3	1	p	0.7485900000000001
46.09230000000001	0.0	[response]	5	noun	list	4	15	match	peut	3	1	p	0.7485900000000001
47.74260000000001	0.0	+	6	noun	phrase	1	1	match	cendrier	5	1	p	0.49155000000000004
48.2924	0.2	srnthbd	6	noun	phrase	1	2	match	cendrier	5	1	p	0.49155000000000004
48.4923	0.0	+	6	noun	phrase	1	3	match	cendrier	5	1	p	0.49155000000000004
48.8921	0.2	dkjf	6	noun	phrase	1	4	match	cendrier	5	1	p	0.49155000000000004
49.092	0.0	+	6	noun	phrase	1	5	match	cendrier	5	1	p	0.49155000000000004
49.4919	0.2	smdc	6	noun	phrase	1	6	match	cendrier	5	1	p	0.49155000000000004
49.6918	0.0	+	6	noun	phrase	1	7	match	cendrier	5	1	p	0.49155000000000004
50.0916	0.2	grlcd	6	noun	phrase	1	8	match	cendrier	5	1	p	0.49155000000000004
50.2915	0.0	+	6	noun	phrase	1	9	match	cendrier	5	1	p	0.49155000000000004
50.6913	0.2	cendrier	6	noun	phrase	1	10	match	cendrier	5	1	p	0.49155000000000004
50.8912	0.0	+	6	noun	phrase	1	11	match	cendrier	5	1	p	0.49155000000000004
51.2911	0.0	+	6	noun	phrase	1	12	match	cendrier	5	1	p	0.49155000000000004
53.2902	0.0	CENDRIER	6	noun	phrase	1	13	match	cendrier	5	1	p	0.49155000000000004
53.8399	0.0	+	6	noun	phrase	1	14	match	cendrier	5	1	p	0.49155000000000004
53.7817	0.0	[response]	6	noun	phrase	1	15	match	cendrier	5	1	p	0.49155000000000004
63.685500000000005	0.0	+	7	noun	phrase	3	1	nomatch	beau	-1	1	y	0.65483
64.23530000000001	0.2	srgt	7	noun	phrase	3	2	nomatch	beau	-1	1	y	0.65483
64.43520000000001	0.0	+	7	noun	phrase	3	3	nomatch	beau	-1	1	y	0.65483
64.83500000000001	0.2	jsgh	7	noun	phrase	3	4	nomatch	beau	-1	1	y	0.65483
65.03490000000001	0.0	+	7	noun	phrase	3	5	nomatch	beau	-1	1	y	0.65483
65.4347	0.2	mon	7	noun	phrase	3	6	nomatch	beau	-1	1	y	0.65483
65.63470000000001	0.0	+	7	noun	phrase	3	7	nomatch	beau	-1	1	y	0.65483
66.03450000000001	0.2	nouveau	7	noun	phrase	3	8	nomatch	beau	-1	1	y	0.65483
66.23440000000001	0.0	+	7	noun	phrase	3	9	nomatch	beau	-1	1	y	0.65483
66.6342	0.2	clavier	7	noun	phrase	3	10	nomatch	beau	-1	1	y	0.65483
66.8341	0.0	+	7	noun	phrase	3	11	nomatch	beau	-1	1	y	0.65483
67.2339	0.0	+	7	noun	phrase	3	12	nomatch	beau	-1	1	y	0.65483
69.2497	0.0	BEAU	7	noun	phrase	3	13	nomatch	beau	-1	1	y	0.65483
69.96600000000001	0.0	+	7	noun	phrase	3	14	nomatch	beau	-1	1	y	0.65483
69.90450000000001	0.0	[response]	7	noun	phrase	3	15	nomatch	beau	-1	1	y	0.65483
71.6486	0.0	+	8	noun	phrase	1	1	nomatch	doit	-1	1	y	0.6857
72.1984	0.2	fcskpz	8	noun	phrase	1	2	nomatch	doit	-1	1	y	0.6857
72.3983	0.0	+	8	noun	phrase	1	3	nomatch	doit	-1	1	y	0.6857
72.7981	0.2	dkjf	8	noun	phrase	1	4	nomatch	doit	-1	1	y	0.6857
72.998	0.0	+	8	noun	phrase	1	5	nomatch	doit	-1	1	y	0.6857
73.3979	0.2	hjw	8	noun	phrase	1	6	nomatch	doit	-1	1	y	0.6857
73.5978	0.0	+	8	noun	phrase	1	7	nomatch	doit	-1	1	y	0.6857
73.9976	0.2	tbmdjvk	8	noun	phrase	1	8	nomatch	doit	-1	1	y	0.6857
74.1975	0.0	+	8	noun	phrase	1	9	nomatch	doit	-1	1	y	0.6857
74.59729999999999	0.2	vert	8	noun	phrase	1	10	nomatch	doit	-1	1	y	0.6857
74.7972	0.0	+	8	noun	phrase	1	11	nomatch	doit	-1	1	y	0.6857
75.197	0.0	+	8	noun	phrase	1	12	nomatch	doit	-1	1	y	0.6857
77.1962	0.0	DOIT	8	noun	phrase	1	13	nomatch	doit	-1	1	y	0.6857
77.94579999999999	0.0	+	8	noun	phrase	1	14	nomatch	doit	-1	1	y	0.6857
77.8819	0.0	[response]	8	noun	phrase	1	15	nomatch	doit	-1	1	y	0.6857
79.5951	0.0	+	9	noun	list	1	1	match	tôt	5	1	p	0.45311
80.1448	0.2	sgb	9	noun	list	1	2	match	tôt	5	1	p	0.45311
80.34470000000002	0.0	+	9	noun	list	1	3	match	tôt	5	1	p	0.45311
80.74459999999999	0.2	dgph	9	noun	list	1	4	match	tôt	5	1	p	0.45311
80.9445	0.0	+	9	noun	list	1	5	match	tôt	5	1	p	0.45311
81.3443	0.2	th	9	noun	list	1	6	match	tôt	5	1	p	0.45311
81.54419999999999	0.0	+	9	noun	list	1	7	match	tôt	5	1	p	0.45311
81.94400000000002	0.2	wghxfn	9	noun	list	1	8	match	tôt	5	1	p	0.45311
82.1439	0.0	+	9	noun	list	1	9	match	tôt	5	1	p	0.45311
82.5438	0.2	tôt	9	noun	list	1	10	match	tôt	5	1	p	0.45311
82.74369999999999	0.0	+	9	noun	list	1	11	match	tôt	5	1	p	0.45311
83.14350000000002	0.0	+	9	noun	list	1	12	match	tôt	5	1	p	0.45311
85.14260000000002	0.0	TÔT	9	noun	list	1	13	match	tôt	5	1	p	0.45311
85.65899999999999	0.0	+	9	noun	list	1	14	match	tôt	5	1	p	0.45311
85.5957	0.0	[response]	9	noun	list	1	15	match	tôt	5	1	p	0.45311
87.54150000000001	0.0	+	10	noun	list	1	1	match	boîtier	5	1	p	0.74593
88.09129999999999	0.2	zrdkg	10	noun	list	1	2	match	boîtier	5	1	p	0.74593
88.2912	0.0	+	10	noun	list	1	3	match	boîtier	5	1	p	0.74593
88.691	0.2	qrdf	10	noun	list	1	4	match	boîtier	5	1	p	0.74593
88.89099999999999	0.0	+	10	noun	list	1	5	match	boîtier	5	1	p	0.74593
89.29079999999999	0.2	vcpx	10	noun	list	1	6	match	boîtier	5	1	p	0.74593
89.4907	0.0	+	10	noun	list	1	7	match	boîtier	5	1	p	0.74593
89.8905	0.2	pwz	10	noun	list	1	8	match	boîtier	5	1	p	0.74593
90.09040000000002	0.0	+	10	noun	list	1	9	match	boîtier	5	1	p	0.74593
90.49020000000002	0.2	boîtier	10	noun	list	1	10	match	boîtier	5	1	p	0.74593
90.6901	0.0	+	10	noun	list	1	11	match	boîtier	5	1	p	0.74593
91.09	0.0	+	10	noun	list	1	12	match	boîtier	5	1	p	0.74593
93.089	0.0	BOÎTIER	10	noun	list	1	13	match	boîtier	5	1	p	0.74593
93.8887	0.0	+	10	noun	list	1	14	match	boîtier	5	1	p	0.74593
93.83500000000001	0.0	[response]	10	noun	list	1	15	match	boîtier	5	1	p	0.74593
95.488	0.0	+	11	verb	list	1	1	nomatch	patiner	-1	1	y	0.6423800000000001
96.0377	0.2	bjfk	11	verb	list	1	2	nomatch	patiner	-1	1	y	0.6423800000000001
96.23769999999999	0.0	+	11	verb	list	1	3	nomatch	patiner	-1	1	y	0.6423800000000001
96.63750000000002	0.2	qrkg	11	verb	list	1	4	nomatch	patiner	-1	1	y	0.6423800000000001
96.8374	0.0	+	11	verb	list	1	5	nomatch	patiner	-1	1	y	0.6423800000000001
97.2372	0.2	smdc	11	verb	list	1	6	nomatch	patiner	-1	1	y	0.6423800000000001
97.43710000000002	0.0	+	11	verb	list	1	7	nomatch	patiner	-1	1	y	0.6423800000000001
97.83690000000001	0.2	grlcd	11	verb	list	1	8	nomatch	patiner	-1	1	y	0.6423800000000001
98.0368	0.0	+	11	verb	list	1	9	nomatch	patiner	-1	1	y	0.6423800000000001
98.4367	0.2	rouler	11	verb	list	1	10	nomatch	patiner	-1	1	y	0.6423800000000001
98.63660000000002	0.0	+	11	verb	list	1	11	nomatch	patiner	-1	1	y	0.6423800000000001
99.03640000000001	0.0	+	11	verb	list	1	12	nomatch	patiner	-1	1	y	0.6423800000000001
101.03550000000001	0.0	PATINER	11	verb	list	1	13	nomatch	patiner	-1	1	y	0.6423800000000001
101.73519999999999	0.0	+	11	verb	list	1	14	nomatch	patiner	-1	1	y	0.6423800000000001
101.6779	0.0	[response]	11	verb	list	1	15	nomatch	patiner	-1	1	y	0.6423800000000001
111.44749999999999	0.0	+	12	verb	list	1	1	nomatch	doit	-1	1	y	0.5705
111.9973	0.2	tqp	12	verb	list	1	2	nomatch	doit	-1	1	y	0.5705
112.19720000000001	0.0	+	12	verb	list	1	3	nomatch	doit	-1	1	y	0.5705
112.59700000000001	0.2	grd	12	verb	list	1	4	nomatch	doit	-1	1	y	0.5705
112.7969	0.0	+	12	verb	list	1	5	nomatch	doit	-1	1	y	0.5705
113.19669999999999	0.2	vcpx	12	verb	list	1	6	nomatch	doit	-1	1	y	0.5705
113.39670000000001	0.0	+	12	verb	list	1	7	nomatch	doit	-1	1	y	0.5705
113.79650000000001	0.2	vblq	12	verb	list	1	8	nomatch	doit	-1	1	y	0.5705
113.9964	0.0	+	12	verb	list	1	9	nomatch	doit	-1	1	y	0.5705
114.3962	0.2	voyager	12	verb	list	1	10	nomatch	doit	-1	1	y	0.5705
114.5961	0.0	+	12	verb	list	1	11	nomatch	doit	-1	1	y	0.5705
114.9959	0.0	+	12	verb	list	1	12	nomatch	doit	-1	1	y	0.5705
116.99510000000001	0.0	DOIT	12	verb	list	1	13	nomatch	doit	-1	1	y	0.5705
117.62809999999999	0.0	+	12	verb	list	1	14	nomatch	doit	-1	1	y	0.5705
117.56559999999999	0.0	[response]	12	verb	list	1	15	nomatch	doit	-1	1	y	0.5705
119.394	0.0	+	13	verb	phrase	4	1	match	danser	4	1	p	0.79897
119.9437	0.2	dnkt	13	verb	phrase	4	2	match	danser	4	1	p	0.79897
120.14359999999999	0.0	+	13	verb	phrase	4	3	match	danser	4	1	p	0.79897
120.5435	0.2	marc	13	verb	phrase	4	4	match	danser	4	1	p	0.79897
120.74340000000001	0.0	+	13	verb	phrase	4	5	match	danser	4	1	p	0.79897
121.14320000000001	0.2	peut	13	verb	phrase	4	6	match	danser	4	1	p	0.79897
121.34309999999999	0.0	+	13	verb	phrase	4	7	match	danser	4	1	p	0.79897
121.74289999999999	0.2	danser	13	verb	phrase	4	8	match	danser	4	1	p	0.79897
121.9428	0.0	+	13	verb	phrase	4	9	match	danser	4	1	p	0.79897
122.34270000000001	0.2	tôt	13	verb	phrase	4	10	match	danser	4	1	p	0.79897
122.5426	0.0	+	13	verb	phrase	4	11	match	danser	4	1	p	0.79897
122.94239999999999	0.0	+	13	verb	phrase	4	12	match	danser	4	1	p	0.79897
124.94149999999999	0.0	DANSER	13	verb	phrase	4	13	match	danser	4	1	p	0.79897
125.80780000000001	0.0	+	13	verb	phrase	4	14	match	danser	4	1	p	0.79897
125.7405	0.0	[response]	13	verb	phrase	4	15	match	danser	4	1	p	0.79897
127.34040000000002	0.0	+	14	noun	phrase	1	1	nomatch	grand	-1	1	y	0.61355
127.8902	0.2	dbnthx	14	noun	phrase	1	2	nomatch	grand	-1	1	y	0.61355
128.0901	0.0	+	14	noun	phrase	1	3	nomatch	grand	-1	1	y	0.61355
128.4899	0.2	qrdf	14	noun	phrase	1	4	nomatch	grand	-1	1	y	0.61355
128.6898	0.0	+	14	noun	phrase	1	5	nomatch	grand	-1	1	y	0.61355
129.0896	0.2	hjw	14	noun	phrase	1	6	nomatch	grand	-1	1	y	0.61355
129.2896	0.0	+	14	noun	phrase	1	7	nomatch	grand	-1	1	y	0.61355
129.6894	0.2	vndzgqs	14	noun	phrase	1	8	nomatch	grand	-1	1	y	0.61355
129.8893	0.0	+	14	noun	phrase	1	9	nomatch	grand	-1	1	y	0.61355
130.2891	0.2	nouveau	14	noun	phrase	1	10	nomatch	grand	-1	1	y	0.61355
130.489	0.0	+	14	noun	phrase	1	11	nomatch	grand	-1	1	y	0.61355
130.8888	0.0	+	14	noun	phrase	1	12	nomatch	grand	-1	1	y	0.61355
132.8879	0.0	GRAND	14	noun	phrase	1	13	nomatch	grand	-1	1	y	0.61355
133.5543	0.0	+	14	noun	phrase	1	14	nomatch	grand	-1	1	y	0.61355
133.50150000000002	0.0	[response]	14	noun	phrase	1	15	nomatch	grand	-1	1	y	0.61355
135.2869	0.0	+	15	verb	phrase	1	1	nomatch	beaucoup	-1	1	y	0.61523
135.8366	0.2	grbc	15	verb	phrase	1	2	nomatch	beaucoup	-1	1	y	0.61523
136.0366	0.0	+	15	verb	phrase	1	3	nomatch	beaucoup	-1	1	y	0.61523
136.4364	0.2	rjbt	15	verb	phrase	1	4	nomatch	beaucoup	-1	1	y	0.61523
136.6363	0.0	+	15	verb	phrase	1	5	nomatch	beaucoup	-1	1	y	0.61523
137.0361	0.2	th	15	verb	phrase	1	6	nomatch	beaucoup	-1	1	y	0.61523
137.236	0.0	+	15	verb	phrase	1	7	nomatch	beaucoup	-1	1	y	0.61523
137.63580000000002	0.2	cjbrlnz	15	verb	phrase	1	8	nomatch	beaucoup	-1	1	y	0.61523
137.8357	0.0	+	15	verb	phrase	1	9	nomatch	beaucoup	-1	1	y	0.61523
138.2356	0.2	moins	15	verb	phrase	1	10	nomatch	beaucoup	-1	1	y	0.61523
138.4355	0.0	+	15	verb	phrase	1	11	nomatch	beaucoup	-1	1	y	0.61523
138.8353	0.0	+	15	verb	phrase	1	12	nomatch	beaucoup	-1	1	y	0.61523
140.83440000000002	0.0	BEAUCOUP	15	verb	phrase	1	13	nomatch	beaucoup	-1	1	y	0.61523
141.5174	0.0	+	15	verb	phrase	1	14	nomatch	beaucoup	-1	1	y	0.61523
141.4496	0.0	[response]	15	verb	phrase	1	15	nomatch	beaucoup	-1	1	y	0.61523
143.25	0.0	+	16	noun	list	1	1	nomatch	pour	-1	1	y	0.68756
143.7997	0.2	pdlhxwg	16	noun	list	1	2	nomatch	pour	-1	1	y	0.68756
143.9997	0.0	+	16	noun	list	1	3	nomatch	pour	-1	1	y	0.68756
144.39950000000002	0.2	qrkg	16	noun	list	1	4	nomatch	pour	-1	1	y	0.68756
144.5996	0.0	+	16	noun	list	1	5	nomatch	pour	-1	1	y	0.68756
144.9992	0.2	hjw	16	noun	list	1	6	nomatch	pour	-1	1	y	0.68756
145.19910000000002	0.0	+	16	noun	list	1	7	nomatch	pour	-1	1	y	0.68756
145.59890000000001	0.2	njchwpdb	16	noun	list	1	8	nomatch	pour	-1	1	y	0.68756
145.7988	0.0	+	16	noun	list	1	9	nomatch	pour	-1	1	y	0.68756
146.1987	0.2	trop	16	noun	list	1	10	nomatch	pour	-1	1	y	0.68756
146.39860000000002	0.0	+	16	noun	list	1	11	nomatch	pour	-1	1	y	0.68756
146.79840000000002	0.0	+	16	noun	list	1	12	nomatch	pour	-1	1	y	0.68756
148.7975	0.0	POUR	16	noun	list	1	13	nomatch	pour	-1	1	y	0.68756
149.5472	0.0	+	16	noun	list	1	14	nomatch	pour	-1	1	y	0.68756
149.48510000000002	0.0	[response]	16	noun	list	1	15	nomatch	pour	-1	1	y	0.68756
151.1964	0.0	+	17	noun	phrase	1	1	match	petit	5	1	p	0.48218
151.74620000000002	0.2	fslhnw	17	noun	phrase	1	2	match	petit	5	1	p	0.48218
151.9461	0.0	+	17	noun	phrase	1	3	match	petit	5	1	p	0.48218
152.3459	0.2	dgph	17	noun	phrase	1	4	match	petit	5	1	p	0.48218
152.54590000000002	0.0	+	17	noun	phrase	1	5	match	petit	5	1	p	0.48218
152.94570000000002	0.2	smdc	17	noun	phrase	1	6	match	petit	5	1	p	0.48218
153.1456	0.0	+	17	noun	phrase	1	7	match	petit	5	1	p	0.48218
153.5454	0.2	gktvfz	17	noun	phrase	1	8	match	petit	5	1	p	0.48218
153.74530000000001	0.0	+	17	noun	phrase	1	9	match	petit	5	1	p	0.48218
154.1451	0.2	petit	17	noun	phrase	1	10	match	petit	5	1	p	0.48218
154.345	0.0	+	17	noun	phrase	1	11	match	petit	5	1	p	0.48218
154.7449	0.0	+	17	noun	phrase	1	12	match	petit	5	1	p	0.48218
156.744	0.0	PETIT	17	noun	phrase	1	13	match	petit	5	1	p	0.48218
157.2937	0.0	+	17	noun	phrase	1	14	match	petit	5	1	p	0.48218
157.2262	0.0	[response]	17	noun	phrase	1	15	match	petit	5	1	p	0.48218
159.1429	0.0	+	18	noun	list	1	1	match	tard	5	1	p	0.56607
159.6927	0.2	vpdtnj	18	noun	list	1	2	match	tard	5	1	p	0.56607
159.89260000000002	0.0	+	18	noun	list	1	3	match	tard	5	1	p	0.56607
160.29240000000001	0.2	qrdf	18	noun	list	1	4	match	tard	5	1	p	0.56607
160.4923	0.0	+	18	noun	list	1	5	match	tard	5	1	p	0.56607
160.8921	0.2	fhjp	18	noun	list	1	6	match	tard	5	1	p	0.56607
161.092	0.0	+	18	noun	list	1	7	match	tard	5	1	p	0.56607
161.49190000000002	0.2	ftndwlq	18	noun	list	1	8	match	tard	5	1	p	0.56607
161.6918	0.0	+	18	noun	list	1	9	match	tard	5	1	p	0.56607
162.0916	0.2	tard	18	noun	list	1	10	match	tard	5	1	p	0.56607
162.2915	0.0	+	18	noun	list	1	11	match	tard	5	1	p	0.56607
162.6913	0.0	+	18	noun	list	1	12	match	tard	5	1	p	0.56607
164.6904	0.0	TARD	18	noun	list	1	13	match	tard	5	1	p	0.56607
165.3235	0.0	+	18	noun	list	1	14	match	tard	5	1	p	0.56607
165.25650000000002	0.0	[response]	18	noun	list	1	15	match	tard	5	1	p	0.56607
167.0894	0.0	+	19	noun	list	4	1	nomatch	doit	-1	1	y	0.89757
167.6391	0.2	jxczw	19	noun	list	4	2	nomatch	doit	-1	1	y	0.89757
167.839	0.0	+	19	noun	list	4	3	nomatch	doit	-1	1	y	0.89757
168.2388	0.2	luc	19	noun	list	4	4	nomatch	doit	-1	1	y	0.89757
168.43880000000001	0.0	+	19	noun	list	4	5	nomatch	doit	-1	1	y	0.89757
168.8386	0.2	mon	19	noun	list	4	6	nomatch	doit	-1	1	y	0.89757
169.0385	0.0	+	19	noun	list	4	7	nomatch	doit	-1	1	y	0.89757
169.4383	0.2	plus	19	noun	list	4	8	nomatch	doit	-1	1	y	0.89757
169.6382	0.0	+	19	noun	list	4	9	nomatch	doit	-1	1	y	0.89757
170.038	0.2	voilier	19	noun	list	4	10	nomatch	doit	-1	1	y	0.89757
170.238	0.0	+	19	noun	list	4	11	nomatch	doit	-1	1	y	0.89757
170.6378	0.0	+	19	noun	list	4	12	nomatch	doit	-1	1	y	0.89757
172.6369	0.0	DOIT	19	noun	list	4	13	nomatch	doit	-1	1	y	0.89757
173.5865	0.0	+	19	noun	list	4	14	nomatch	doit	-1	1	y	0.89757
173.5344	0.0	[response]	19	noun	list	4	15	nomatch	doit	-1	1	y	0.89757
175.0358	0.0	+	20	noun	phrase	1	1	match	clavier	5	1	p	0.50391
175.5856	0.2	vhsp	20	noun	phrase	1	2	match	clavier	5	1	p	0.50391
175.7855	0.0	+	20	noun	phrase	1	3	match	clavier	5	1	p	0.50391
176.1853	0.2	dgph	20	noun	phrase	1	4	match	clavier	5	1	p	0.50391
176.3852	0.0	+	20	noun	phrase	1	5	match	clavier	5	1	p	0.50391
176.785	0.2	hjw	20	noun	phrase	1	6	match	clavier	5	1	p	0.50391
176.9849	0.0	+	20	noun	phrase	1	7	match	clavier	5	1	p	0.50391
177.3848	0.2	fqxgj	20	noun	phrase	1	8	match	clavier	5	1	p	0.50391
177.5847	0.0	+	20	noun	phrase	1	9	match	clavier	5	1	p	0.50391
177.9845	0.2	clavier	20	noun	phrase	1	10	match	clavier	5	1	p	0.50391
178.1844	0.0	+	20	noun	phrase	1	11	match	clavier	5	1	p	0.50391
178.5842	0.0	+	20	noun	phrase	1	12	match	clavier	5	1	p	0.50391
180.6	0.0	CLAVIER	20	noun	phrase	1	13	match	clavier	5	1	p	0.50391
181.1664	0.0	+	20	noun	phrase	1	14	match	clavier	5	1	p	0.50391
181.1039	0.0	[response]	20	noun	phrase	1	15	match	clavier	5	1	p	0.50391
182.9989	0.0	+	21	verb	phrase	2	1	nomatch	tôt	-1	1	y	0.61039
183.5487	0.2	qpbjh	21	verb	phrase	2	2	nomatch	tôt	-1	1	y	0.61039
183.7486	0.0	+	21	verb	phrase	2	3	nomatch	tôt	-1	1	y	0.61039
184.1484	0.2	rjbt	21	verb	phrase	2	4	nomatch	tôt	-1	1	y	0.61039
184.3483	0.0	+	21	verb	phrase	2	5	nomatch	tôt	-1	1	y	0.61039
184.7481	0.2	th	21	verb	phrase	2	6	nomatch	tôt	-1	1	y	0.61039
184.948	0.0	+	21	verb	phrase	2	7	nomatch	tôt	-1	1	y	0.61039
185.3479	0.2	voyager	21	verb	phrase	2	8	nomatch	tôt	-1	1	y	0.61039
185.5478	0.0	+	21	verb	phrase	2	9	nomatch	tôt	-1	1	y	0.61039
185.9476	0.2	loin	21	verb	phrase	2	10	nomatch	tôt	-1	1	y	0.61039
186.1475	0.0	+	21	verb	phrase	2	11	nomatch	tôt	-1	1	y	0.61039
186.5473	0.0	+	21	verb	phrase	2	12	nomatch	tôt	-1	1	y	0.61039
188.5464	0.0	TÔT	21	verb	phrase	2	13	nomatch	tôt	-1	1	y	0.61039
189.21280000000002	0.0	+	21	verb	phrase	2	14	nomatch	tôt	-1	1	y	0.61039
189.1568	0.0	[response]	21	verb	phrase	2	15	nomatch	tôt	-1	1	y	0.61039
198.9418	0.0	+	22	noun	phrase	2	1	nomatch	jean	-1	1	y	0.55723
199.4916	0.2	bzcqrxs	22	noun	phrase	2	2	nomatch	jean	-1	1	y	0.55723
199.6915	0.0	+	22	noun	phrase	2	3	nomatch	jean	-1	1	y	0.55723
200.0913	0.2	jsgh	22	noun	phrase	2	4	nomatch	jean	-1	1	y	0.55723
200.2912	0.0	+	22	noun	phrase	2	5	nomatch	jean	-1	1	y	0.55723
200.691	0.2	hjw	22	noun	phrase	2	6	nomatch	jean	-1	1	y	0.55723
200.89090000000002	0.0	+	22	noun	phrase	2	7	nomatch	jean	-1	1	y	0.55723
201.29070000000002	0.2	cendrier	22	noun	phrase	2	8	nomatch	jean	-1	1	y	0.55723
201.4907	0.0	+	22	noun	phrase	2	9	nomatch	jean	-1	1	y	0.55723
201.8905	0.2	blanc	22	noun	phrase	2	10	nomatch	jean	-1	1	y	0.55723
202.09040000000002	0.0	+	22	noun	phrase	2	11	nomatch	jean	-1	1	y	0.55723
202.49020000000002	0.0	+	22	noun	phrase	2	12	nomatch	jean	-1	1	y	0.55723
204.4893	0.0	JEAN	22	noun	phrase	2	13	nomatch	jean	-1	1	y	0.55723
205.10569999999998	0.0	+	22	noun	phrase	2	14	nomatch	jean	-1	1	y	0.55723
205.04659999999998	0.0	[response]	22	noun	phrase	2	15	nomatch	jean	-1	1	y	0.55723
206.8883	0.0	+	23	verb	phrase	1	1	match	jongler	5	1	p	0.50558
207.43800000000002	0.2	ljhstgq	23	verb	phrase	1	2	match	jongler	5	1	p	0.50558
207.63790000000003	0.0	+	23	verb	phrase	1	3	match	jongler	5	1	p	0.50558
208.0377	0.2	cqx	23	verb	phrase	1	4	match	jongler	5	1	p	0.50558
208.23760000000001	0.0	+	23	verb	phrase	1	5	match	jongler	5	1	p	0.50558
208.63750000000002	0.2	th	23	verb	phrase	1	6	match	jongler	5	1	p	0.50558
208.83740000000003	0.0	+	23	verb	phrase	1	7	match	jongler	5	1	p	0.50558
209.2372	0.2	lwhd	23	verb	phrase	1	8	match	jongler	5	1	p	0.50558
209.43710000000002	0.0	+	23	verb	phrase	1	9	match	jongler	5	1	p	0.50558
209.83689999999999	0.2	jongler	23	verb	phrase	1	10	match	jongler	5	1	p	0.50558
210.0368	0.0	+	23	verb	phrase	1	11	match	jongler	5	1	p	0.50558
210.4367	0.0	+	23	verb	phrase	1	12	match	jongler	5	1	p	0.50558
212.4358	0.0	JONGLER	23	verb	phrase	1	13	match	jongler	5	1	p	0.50558
213.0022	0.0	+	23	verb	phrase	1	14	match	jongler	5	1	p	0.50558
212.94140000000002	0.0	[response]	23	verb	phrase	1	15	match	jongler	5	1	p	0.50558
214.83470000000003	0.0	+	24	noun	phrase	2	1	nomatch	loin	-1	1	y	0.74137
215.38450000000003	0.2	vwm	24	noun	phrase	2	2	nomatch	loin	-1	1	y	0.74137
215.5844	0.0	+	24	noun	phrase	2	3	nomatch	loin	-1	1	y	0.74137
215.98420000000002	0.2	dgph	24	noun	phrase	2	4	nomatch	loin	-1	1	y	0.74137
216.18410000000003	0.0	+	24	noun	phrase	2	5	nomatch	loin	-1	1	y	0.74137
216.5839	0.2	wbn	24	noun	phrase	2	6	nomatch	loin	-1	1	y	0.74137
216.7838	0.0	+	24	noun	phrase	2	7	nomatch	loin	-1	1	y	0.74137
217.18370000000002	0.2	petit	24	noun	phrase	2	8	nomatch	loin	-1	1	y	0.74137
217.38360000000003	0.0	+	24	noun	phrase	2	9	nomatch	loin	-1	1	y	0.74137
217.79999999999998	0.2	voilier	24	noun	phrase	2	10	nomatch	loin	-1	1	y	0.74137
218.00000000000003	0.0	+	24	noun	phrase	2	11	nomatch	loin	-1	1	y	0.74137
218.3998	0.0	+	24	noun	phrase	2	12	nomatch	loin	-1	1	y	0.74137
220.3989	0.0	LOIN	24	noun	phrase	2	13	nomatch	loin	-1	1	y	0.74137
221.1985	0.0	+	24	noun	phrase	2	14	nomatch	loin	-1	1	y	0.74137
221.1403	0.0	[response]	24	noun	phrase	2	15	nomatch	loin	-1	1	y	0.74137
238.7907	0.0	+	25	verb	phrase	1	1	nomatch	mon	-1	1	y	0.56755
239.34040000000002	0.2	prtxvsz	25	verb	phrase	1	2	nomatch	mon	-1	1	y	0.56755
239.5404	0.0	+	25	verb	phrase	1	3	nomatch	mon	-1	1	y	0.56755
239.94019999999998	0.2	nlxv	25	verb	phrase	1	4	nomatch	mon	-1	1	y	0.56755
240.1401	0.0	+	25	verb	phrase	1	5	nomatch	mon	-1	1	y	0.56755
240.53990000000002	0.2	fhjp	25	verb	phrase	1	6	nomatch	mon	-1	1	y	0.56755
240.73980000000003	0.0	+	25	verb	phrase	1	7	nomatch	mon	-1	1	y	0.56755
241.1396	0.2	rkvz	25	verb	phrase	1	8	nomatch	mon	-1	1	y	0.56755
241.33950000000002	0.0	+	25	verb	phrase	1	9	nomatch	mon	-1	1	y	0.56755
241.73940000000002	0.2	plonger	25	verb	phrase	1	10	nomatch	mon	-1	1	y	0.56755
241.93930000000003	0.0	+	25	verb	phrase	1	11	nomatch	mon	-1	1	y	0.56755
242.3391	0.0	+	25	verb	phrase	1	12	nomatch	mon	-1	1	y	0.56755
244.3382	0.0	MON	25	verb	phrase	1	13	nomatch	mon	-1	1	y	0.56755
244.97119999999998	0.0	+	25	verb	phrase	1	14	nomatch	mon	-1	1	y	0.56755
244.9057	0.0	[response]	25	verb	phrase	1	15	nomatch	mon	-1	1	y	0.56755
246.73710000000003	0.0	+	26	verb	phrase	1	1	match	plus	5	1	p	0.58786
247.28690000000003	0.2	dmlgk	26	verb	phrase	1	2	match	plus	5	1	p	0.58786
247.4874	0.0	+	26	verb	phrase	1	3	match	plus	5	1	p	0.58786
247.88660000000002	0.2	rjbt	26	verb	phrase	1	4	match	plus	5	1	p	0.58786
248.08650000000003	0.0	+	26	verb	phrase	1	5	match	plus	5	1	p	0.58786
248.4863	0.2	vcpx	26	verb	phrase	1	6	match	plus	5	1	p	0.58786
248.6863	0.0	+	26	verb	phrase	1	7	match	plus	5	1	p	0.58786
249.08610000000002	0.2	zlnqhjt	26	verb	phrase	1	8	match	plus	5	1	p	0.58786
249.28600000000003	0.0	+	26	verb	phrase	1	9	match	plus	5	1	p	0.58786
249.6858	0.2	plus	26	verb	phrase	1	10	match	plus	5	1	p	0.58786
249.8857	0.0	+	26	verb	phrase	1	11	match	plus	5	1	p	0.58786
250.28549999999998	0.0	+	26	verb	phrase	1	12	match	plus	5	1	p	0.58786
252.28459999999998	0.0	PLUS	26	verb	phrase	1	13	match	plus	5	1	p	0.58786
252.9344	0.0	+	26	verb	phrase	1	14	match	plus	5	1	p	0.58786
252.87250000000003	0.0	[response]	26	verb	phrase	1	15	match	plus	5	1	p	0.58786
254.68359999999998	0.0	+	27	noun	list	3	1	match	clavier	5	1	p	0.49686
255.25000000000003	0.2	pqcsnv	27	noun	list	3	2	match	clavier	5	1	p	0.49686
255.44989999999999	0.0	+	27	noun	list	3	3	match	clavier	5	1	p	0.49686
255.8497	0.2	lnqh	27	noun	list	3	4	match	clavier	5	1	p	0.49686
256.04960000000005	0.0	+	27	noun	list	3	5	match	clavier	5	1	p	0.49686
256.44950000000006	0.2	son	27	noun	list	3	6	match	clavier	5	1	p	0.49686
256.6494	0.0	+	27	noun	list	3	7	match	clavier	5	1	p	0.49686
257.04920000000004	0.2	moins	27	noun	list	3	8	match	clavier	5	1	p	0.49686
257.2491	0.0	+	27	noun	list	3	9	match	clavier	5	1	p	0.49686
257.6489	0.2	clavier	27	noun	list	3	10	match	clavier	5	1	p	0.49686
257.8488	0.0	+	27	noun	list	3	11	match	clavier	5	1	p	0.49686
258.2487	0.0	+	27	noun	list	3	12	match	clavier	5	1	p	0.49686
260.2478	0.0	CLAVIER	27	noun	list	3	13	match	clavier	5	1	p	0.49686
260.7975	0.0	+	27	noun	list	3	14	match	clavier	5	1	p	0.49686
260.7446	0.0	[response]	27	noun	list	3	15	match	clavier	5	1	p	0.49686
262.6467	0.0	+	28	verb	phrase	1	1	nomatch	ainsi	-1	1	y	0.90542
263.19640000000004	0.2	xld	28	verb	phrase	1	2	nomatch	ainsi	-1	1	y	0.90542
263.39639999999997	0.0	+	28	verb	phrase	1	3	nomatch	ainsi	-1	1	y	0.90542
263.7962	0.2	nlxv	28	verb	phrase	1	4	nomatch	ainsi	-1	1	y	0.90542
263.99609999999996	0.0	+	28	verb	phrase	1	5	nomatch	ainsi	-1	1	y	0.90542
264.3959	0.2	th	28	verb	phrase	1	6	nomatch	ainsi	-1	1	y	0.90542
264.59580000000005	0.0	+	28	verb	phrase	1	7	nomatch	ainsi	-1	1	y	0.90542
264.99559999999997	0.2	jfxdtrp	28	verb	phrase	1	8	nomatch	ainsi	-1	1	y	0.90542
265.19550000000004	0.0	+	28	verb	phrase	1	9	nomatch	ainsi	-1	1	y	0.90542
265.59540000000004	0.2	vite	28	verb	phrase	1	10	nomatch	ainsi	-1	1	y	0.90542
265.7953	0.0	+	28	verb	phrase	1	11	nomatch	ainsi	-1	1	y	0.90542
266.1951	0.0	+	28	verb	phrase	1	12	nomatch	ainsi	-1	1	y	0.90542
268.1942	0.0	AINSI	28	verb	phrase	1	13	nomatch	ainsi	-1	1	y	0.90542
269.1604	0.0	+	28	verb	phrase	1	14	nomatch	ainsi	-1	1	y	0.90542
269.0996	0.0	[response]	28	verb	phrase	1	15	nomatch	ainsi	-1	1	y	0.90542
270.59310000000005	0.0	+	29	noun	phrase	4	1	match	cendrier	5	1	p	0.45779
271.14290000000005	0.2	ntqd	29	noun	phrase	4	2	match	cendrier	5	1	p	0.45779
271.3428	0.0	+	29	noun	phrase	4	3	match	cendrier	5	1	p	0.45779
271.74260000000004	0.2	sur	29	noun	phrase	4	4	match	cendrier	5	1	p	0.45779
271.9425	0.0	+	29	noun	phrase	4	5	match	cendrier	5	1	p	0.45779
272.3424	0.2	leur	29	noun	phrase	4	6	match	cendrier	5	1	p	0.45779
272.54229999999995	0.0	+	29	noun	phrase	4	7	match	cendrier	5	1	p	0.45779
272.9421	0.2	grand	29	noun	phrase	4	8	match	cendrier	5	1	p	0.45779
273.14200000000005	0.0	+	29	noun	phrase	4	9	match	cendrier	5	1	p	0.45779
273.54179999999997	0.2	cendrier	29	noun	phrase	4	10	match	cendrier	5	1	p	0.45779
273.74170000000004	0.0	+	29	noun	phrase	4	11	match	cendrier	5	1	p	0.45779
274.14149999999995	0.0	+	29	noun	phrase	4	12	match	cendrier	5	1	p	0.45779
276.14070000000004	0.0	CENDRIER	29	noun	phrase	4	13	match	cendrier	5	1	p	0.45779
276.6571	0.0	+	29	noun	phrase	4	14	match	cendrier	5	1	p	0.45779
276.59850000000006	0.0	[response]	29	noun	phrase	4	15	match	cendrier	5	1	p	0.45779
278.53959999999995	0.0	+	30	noun	list	2	1	nomatch	jongler	-1	1	y	0.60239
279.08939999999996	0.2	csp	30	noun	list	2	2	nomatch	jongler	-1	1	y	0.60239
279.28920000000005	0.0	+	30	noun	list	2	3	nomatch	jongler	-1	1	y	0.60239
279.68910000000005	0.2	nfzp	30	noun	list	2	4	nomatch	jongler	-1	1	y	0.60239
279.889	0.0	+	30	noun	list	2	5	nomatch	jongler	-1	1	y	0.60239
280.28880000000004	0.2	smdc	30	noun	list	2	6	nomatch	jongler	-1	1	y	0.60239
280.48900000000003	0.0	+	30	noun	list	2	7	nomatch	jongler	-1	1	y	0.60239
280.8886	0.2	mieux	30	noun	list	2	8	nomatch	jongler	-1	1	y	0.60239
281.08849999999995	0.0	+	30	noun	list	2	9	nomatch	jongler	-1	1	y	0.60239
281.4883	0.2	boîtier	30	noun	list	2	10	nomatch	jongler	-1	1	y	0.60239
281.68820000000005	0.0	+	30	noun	list	2	11	nomatch	jongler	-1	1	y	0.60239
282.08799999999997	0.0	+	30	noun	list	2	12	nomatch	jongler	-1	1	y	0.60239
284.08709999999996	0.0	JONGLER	30	noun	list	2	13	nomatch	jongler	-1	1	y	0.60239
284.75350000000003	0.0	+	30	noun	list	2	14	nomatch	jongler	-1	1	y	0.60239
284.68950000000007	0.0	[response]	30	noun	list	2	15	nomatch	jongler	-1	1	y	0.60239
294.4991	0.0	+	31	noun	list	2	1	match	tôt	5	1	p	0.69921
295.0489	0.2	lxjk	31	noun	list	2	2	match	tôt	5	1	p	0.69921
295.24879999999996	0.0	+	31	noun	list	2	3	match	tôt	5	1	p	0.69921
295.6486	0.2	grd	31	noun	list	2	4	match	tôt	5	1	p	0.69921
295.84850000000006	0.0	+	31	noun	list	2	5	match	tôt	5	1	p	0.69921
296.2483	0.2	th	31	noun	list	2	6	match	tôt	5	1	p	0.69921
296.4483	0.0	+	31	noun	list	2	7	match	tôt	5	1	p	0.69921
296.84810000000004	0.2	grenier	31	noun	list	2	8	match	tôt	5	1	p	0.69921
297.048	0.0	+	31	noun	list	2	9	match	tôt	5	1	p	0.69921
297.44780000000003	0.2	tôt	31	noun	list	2	10	match	tôt	5	1	p	0.69921
297.6477	0.0	+	31	noun	list	2	11	match	tôt	5	1	p	0.69921
298.0475	0.0	+	31	noun	list	2	12	match	tôt	5	1	p	0.69921
300.0467	0.0	TÔT	31	noun	list	2	13	match	tôt	5	1	p	0.69921
300.813	0.0	+	31	noun	list	2	14	match	tôt	5	1	p	0.69921
300.7459	0.0	[response]	31	noun	list	2	15	match	tôt	5	1	p	0.69921
302.4456	0.0	+	32	noun	phrase	1	1	nomatch	beau	-1	1	y	0.60769
302.99530000000004	0.2	lrjvg	32	noun	phrase	1	2	nomatch	beau	-1	1	y	0.60769
303.1952	0.0	+	32	noun	phrase	1	3	nomatch	beau	-1	1	y	0.60769
303.5951	0.2	jsgh	32	noun	phrase	1	4	nomatch	beau	-1	1	y	0.60769
303.79499999999996	0.0	+	32	noun	phrase	1	5	nomatch	beau	-1	1	y	0.60769
304.1948	0.2	wbn	32	noun	phrase	1	6	nomatch	beau	-1	1	y	0.60769
304.39470000000006	0.0	+	32	noun	phrase	1	7	nomatch	beau	-1	1	y	0.60769
304.79449999999997	0.2	mthzjxq	32	noun	phrase	1	8	nomatch	beau	-1	1	y	0.60769
304.99440000000004	0.0	+	32	noun	phrase	1	9	nomatch	beau	-1	1	y	0.60769
305.39430000000004	0.2	grand	32	noun	phrase	1	10	nomatch	beau	-1	1	y	0.60769
305.5942	0.0	+	32	noun	phrase	1	11	nomatch	beau	-1	1	y	0.60769
305.994	0.0	+	32	noun	phrase	1	12	nomatch	beau	-1	1	y	0.60769
307.9931	0.0	BEAU	32	noun	phrase	1	13	nomatch	beau	-1	1	y	0.60769
308.6595	0.0	+	32	noun	phrase	1	14	nomatch	beau	-1	1	y	0.60769
308.60080000000005	0.0	[response]	32	noun	phrase	1	15	nomatch	beau	-1	1	y	0.60769
310.39200000000005	0.0	+	33	noun	list	4	1	nomatch	leur	-1	1	y	0.58936
310.94180000000006	0.2	vfgcbxk	33	noun	list	4	2	nomatch	leur	-1	1	y	0.58936
311.1417	0.0	+	33	noun	list	4	3	nomatch	leur	-1	1	y	0.58936
311.54150000000004	0.2	dans	33	noun	list	4	4	nomatch	leur	-1	1	y	0.58936
311.7414	0.0	+	33	noun	list	4	5	nomatch	leur	-1	1	y	0.58936
312.1413	0.2	peut	33	noun	list	4	6	nomatch	leur	-1	1	y	0.58936
312.34119999999996	0.0	+	33	noun	list	4	7	nomatch	leur	-1	1	y	0.58936
312.741	0.2	cendrier	33	noun	list	4	8	nomatch	leur	-1	1	y	0.58936
312.94090000000006	0.0	+	33	noun	list	4	9	nomatch	leur	-1	1	y	0.58936
313.34069999999997	0.2	tôt	33	noun	list	4	10	nomatch	leur	-1	1	y	0.58936
313.54060000000004	0.0	+	33	noun	list	4	11	nomatch	leur	-1	1	y	0.58936
313.94050000000004	0.0	+	33	noun	list	4	12	nomatch	leur	-1	1	y	0.58936
315.93960000000004	0.0	LEUR	33	noun	list	4	13	nomatch	leur	-1	1	y	0.58936
316.5893	0.0	+	33	noun	list	4	14	nomatch	leur	-1	1	y	0.58936
316.5289	0.0	[response]	33	noun	list	4	15	nomatch	leur	-1	1	y	0.58936
326.33489999999995	0.0	+	34	noun	list	1	1	nomatch	loin	-1	1	y	0.51148
326.88469999999995	0.2	qvrfmwj	34	noun	list	1	2	nomatch	loin	-1	1	y	0.51148
327.0846	0.0	+	34	noun	list	1	3	nomatch	loin	-1	1	y	0.51148
327.48440000000005	0.2	nfzp	34	noun	list	1	4	nomatch	loin	-1	1	y	0.51148
327.6843	0.0	+	34	noun	list	1	5	nomatch	loin	-1	1	y	0.51148
328.08410000000003	0.2	hjw	34	noun	list	1	6	nomatch	loin	-1	1	y	0.51148
328.284	0.0	+	34	noun	list	1	7	nomatch	loin	-1	1	y	0.51148
328.6839	0.2	wvmbtgds	34	noun	list	1	8	nomatch	loin	-1	1	y	0.51148
328.88379999999995	0.0	+	34	noun	list	1	9	nomatch	loin	-1	1	y	0.51148
329.2836	0.2	casier	34	noun	list	1	10	nomatch	loin	-1	1	y	0.51148
329.48350000000005	0.0	+	34	noun	list	1	11	nomatch	loin	-1	1	y	0.51148
329.9	0.0	+	34	noun	list	1	12	nomatch	loin	-1	1	y	0.51148
331.8991	0.0	LOIN	34	noun	list	1	13	nomatch	loin	-1	1	y	0.51148
332.4655	0.0	+	34	noun	list	1	14	nomatch	loin	-1	1	y	0.51148
332.41060000000004	0.0	[response]	34	noun	list	1	15	nomatch	loin	-1	1	y	0.51148
334.298	0.0	+	35	verb	phrase	2	1	nomatch	grenier	-1	1	y	0.55896
334.8478	0.2	zlx	35	verb	phrase	2	2	nomatch	grenier	-1	1	y	0.55896
335.04769999999996	0.0	+	35	verb	phrase	2	3	nomatch	grenier	-1	1	y	0.55896
335.4475	0.2	lnqh	35	verb	phrase	2	4	nomatch	grenier	-1	1	y	0.55896
335.64739999999995	0.0	+	35	verb	phrase	2	5	nomatch	grenier	-1	1	y	0.55896
336.04729999999995	0.2	vcpx	35	verb	phrase	2	6	nomatch	grenier	-1	1	y	0.55896
336.2472	0.0	+	35	verb	phrase	2	7	nomatch	grenier	-1	1	y	0.55896
336.64700000000005	0.2	moins	35	verb	phrase	2	8	nomatch	grenier	-1	1	y	0.55896
336.8469	0.0	+	35	verb	phrase	2	9	nomatch	grenier	-1	1	y	0.55896
337.24670000000003	0.2	chasser	35	verb	phrase	2	10	nomatch	grenier	-1	1	y	0.55896
337.4466	0.0	+	35	verb	phrase	2	11	nomatch	grenier	-1	1	y	0.55896
337.8464	0.0	+	35	verb	phrase	2	12	nomatch	grenier	-1	1	y	0.55896
339.8455	0.0	GRENIER	35	verb	phrase	2	13	nomatch	grenier	-1	1	y	0.55896
340.4619	0.0	+	35	verb	phrase	2	14	nomatch	grenier	-1	1	y	0.55896
340.4045	0.0	[response]	35	verb	phrase	2	15	nomatch	grenier	-1	1	y	0.55896
342.2445	0.0	+	36	noun	list	1	1	nomatch	boîtier	-1	1	y	0.51256
342.79420000000005	0.2	dxt	36	noun	list	1	2	nomatch	boîtier	-1	1	y	0.51256
342.9942	0.0	+	36	noun	list	1	3	nomatch	boîtier	-1	1	y	0.51256
343.394	0.2	dgph	36	noun	list	1	4	nomatch	boîtier	-1	1	y	0.51256
343.59389999999996	0.0	+	36	noun	list	1	5	nomatch	boîtier	-1	1	y	0.51256
343.9937	0.2	fhjp	36	noun	list	1	6	nomatch	boîtier	-1	1	y	0.51256
344.19359999999995	0.0	+	36	noun	list	1	7	nomatch	boîtier	-1	1	y	0.51256
344.5934	0.2	zxhg	36	noun	list	1	8	nomatch	boîtier	-1	1	y	0.51256
344.79330000000004	0.0	+	36	noun	list	1	9	nomatch	boîtier	-1	1	y	0.51256
345.19320000000005	0.2	cendrier	36	noun	list	1	10	nomatch	boîtier	-1	1	y	0.51256
345.3931	0.0	+	36	noun	list	1	11	nomatch	boîtier	-1	1	y	0.51256
345.79290000000003	0.0	+	36	noun	list	1	12	nomatch	boîtier	-1	1	y	0.51256
347.79200000000003	0.0	BOÎTIER	36	noun	list	1	13	nomatch	boîtier	-1	1	y	0.51256
348.35839999999996	0.0	+	36	noun	list	1	14	nomatch	boîtier	-1	1	y	0.51256
348.30460000000005	0.0	[response]	36	noun	list	1	15	nomatch	boîtier	-1	1	y	0.51256
374.1969	0.0	+	37	noun	phrase	3	1	match	grand	4	1	p	0.7346
374.74660000000006	0.2	pmcwkr	37	noun	phrase	3	2	match	grand	4	1	p	0.7346
374.9466	0.0	+	37	noun	phrase	3	3	match	grand	4	1	p	0.7346
375.3464	0.2	dkjf	37	noun	phrase	3	4	match	grand	4	1	p	0.7346
375.5463	0.0	+	37	noun	phrase	3	5	match	grand	4	1	p	0.7346
375.9461	0.2	mon	37	noun	phrase	3	6	match	grand	4	1	p	0.7346
376.14599999999996	0.0	+	37	noun	phrase	3	7	match	grand	4	1	p	0.7346
376.5458	0.2	grand	37	noun	phrase	3	8	match	grand	4	1	p	0.7346
376.74570000000006	0.0	+	37	noun	phrase	3	9	match	grand	4	1	p	0.7346
377.14560000000006	0.2	grenier	37	noun	phrase	3	10	match	grand	4	1	p	0.7346
377.3455	0.0	+	37	noun	phrase	3	11	match	grand	4	1	p	0.7346
377.74530000000004	0.0	+	37	noun	phrase	3	12	match	grand	4	1	p	0.7346
379.74440000000004	0.0	GRAND	37	noun	phrase	3	13	match	grand	4	1	p	0.7346
380.544	0.0	+	37	noun	phrase	3	14	match	grand	4	1	p	0.7346
380.47900000000004	0.0	[response]	37	noun	phrase	3	15	match	grand	4	1	p	0.7346
382.14329999999995	0.0	+	38	noun	phrase	4	1	match	sous	2	1	p	0.63357
382.69309999999996	0.2	kcf	38	noun	phrase	4	2	match	sous	2	1	p	0.63357
382.89300000000003	0.0	+	38	noun	phrase	4	3	match	sous	2	1	p	0.63357
383.29280000000006	0.2	sous	38	noun	phrase	4	4	match	sous	2	1	p	0.63357
383.4927	0.0	+	38	noun	phrase	4	5	match	sous	2	1	p	0.63357
383.89250000000004	0.2	son	38	noun	phrase	4	6	match	sous	2	1	p	0.63357
384.0925	0.0	+	38	noun	phrase	4	7	match	sous	2	1	p	0.63357
384.4923	0.2	boîtier	38	noun	phrase	4	8	match	sous	2	1	p	0.63357
384.69219999999996	0.0	+	38	noun	phrase	4	9	match	sous	2	1	p	0.63357
385.092	0.2	noir	38	noun	phrase	4	10	match	sous	2	1	p	0.63357
385.29190000000006	0.0	+	38	noun	phrase	4	11	match	sous	2	1	p	0.63357
385.69180000000006	0.0	+	38	noun	phrase	4	12	match	sous	2	1	p	0.63357
387.69079999999997	0.0	SOUS	38	noun	phrase	4	13	match	sous	2	1	p	0.63357
388.39059999999995	0.0	+	38	noun	phrase	4	14	match	sous	2	1	p	0.63357
388.32439999999997	0.0	[response]	38	noun	phrase	4	15	match	sous	2	1	p	0.63357
390.08979999999997	0.0	+	39	noun	list	3	1	match	tard	5	1	p	0.6277100000000001
390.6395	0.2	nmcbfx	39	noun	list	3	2	match	tard	5	1	p	0.6277100000000001
390.83950000000004	0.0	+	39	noun	list	3	3	match	tard	5	1	p	0.6277100000000001
391.23929999999996	0.2	jsgh	39	noun	list	3	4	match	tard	5	1	p	0.6277100000000001
391.4392	0.0	+	39	noun	list	3	5	match	tard	5	1	p	0.6277100000000001
391.83900000000006	0.2	peut	39	noun	list	3	6	match	tard	5	1	p	0.6277100000000001
392.0389	0.0	+	39	noun	list	3	7	match	tard	5	1	p	0.6277100000000001
392.43870000000004	0.2	cendrier	39	noun	list	3	8	match	tard	5	1	p	0.6277100000000001
392.6387	0.0	+	39	noun	list	3	9	match	tard	5	1	p	0.6277100000000001
393.0385	0.2	tard	39	noun	list	3	10	match	tard	5	1	p	0.6277100000000001
393.23839999999996	0.0	+	39	noun	list	3	11	match	tard	5	1	p	0.6277100000000001
393.6382	0.0	+	39	noun	list	3	12	match	tard	5	1	p	0.6277100000000001
395.6373	0.0	TARD	39	noun	list	3	13	match	tard	5	1	p	0.6277100000000001
396.3203	0.0	+	39	noun	list	3	14	match	tard	5	1	p	0.6277100000000001
396.265	0.0	[response]	39	noun	list	3	15	match	tard	5	1	p	0.6277100000000001
398.0362	0.0	+	40	verb	list	2	1	match	danser	5	1	p	0.56065
398.586	0.2	jqczvbl	40	verb	list	2	2	match	danser	5	1	p	0.56065
398.78589999999997	0.0	+	40	verb	list	2	3	match	danser	5	1	p	0.56065
399.1857	0.2	dgph	40	verb	list	2	4	match	danser	5	1	p	0.56065
399.38559999999995	0.0	+	40	verb	list	2	5	match	danser	5	1	p	0.56065
399.78549999999996	0.2	th	40	verb	list	2	6	match	danser	5	1	p	0.56065
399.9854	0.0	+	40	verb	list	2	7	match	danser	5	1	p	0.56065
400.38520000000005	0.2	grand	40	verb	list	2	8	match	danser	5	1	p	0.56065
400.5851	0.0	+	40	verb	list	2	9	match	danser	5	1	p	0.56065
400.98490000000004	0.2	danser	40	verb	list	2	10	match	danser	5	1	p	0.56065
401.1848	0.0	+	40	verb	list	2	11	match	danser	5	1	p	0.56065
401.5847	0.0	+	40	verb	list	2	12	match	danser	5	1	p	0.56065
403.5838	0.0	DANSER	40	verb	list	2	13	match	danser	5	1	p	0.56065
404.2002	0.0	+	40	verb	list	2	14	match	danser	5	1	p	0.56065
404.1444	0.0	[response]	40	verb	list	2	15	match	danser	5	1	p	0.56065
405.99929999999995	0.0	+	41	noun	phrase	3	1	match	rouge	5	1	p	0.50133
406.54909999999995	0.2	xtq	41	noun	phrase	3	2	match	rouge	5	1	p	0.50133
406.749	0.0	+	41	noun	phrase	3	3	match	rouge	5	1	p	0.50133
407.14880000000005	0.2	skml	41	noun	phrase	3	4	match	rouge	5	1	p	0.50133
407.3487	0.0	+	41	noun	phrase	3	5	match	rouge	5	1	p	0.50133
407.7486	0.2	mon	41	noun	phrase	3	6	match	rouge	5	1	p	0.50133
407.94849999999997	0.0	+	41	noun	phrase	3	7	match	rouge	5	1	p	0.50133
408.3483	0.2	grenier	41	noun	phrase	3	8	match	rouge	5	1	p	0.50133
408.54819999999995	0.0	+	41	noun	phrase	3	9	match	rouge	5	1	p	0.50133
408.948	0.2	rouge	41	noun	phrase	3	10	match	rouge	5	1	p	0.50133
409.148	0.0	+	41	noun	phrase	3	11	match	rouge	5	1	p	0.50133
409.54780000000005	0.0	+	41	noun	phrase	3	12	match	rouge	5	1	p	0.50133
411.54690000000005	0.0	ROUGE	41	noun	phrase	3	13	match	rouge	5	1	p	0.50133
412.1133	0.0	+	41	noun	phrase	3	14	match	rouge	5	1	p	0.50133
412.04819999999995	0.0	[response]	41	noun	phrase	3	15	match	rouge	5	1	p	0.50133
421.94219999999996	0.0	+	42	verb	phrase	1	1	nomatch	chasser	-1	1	y	0.63104
422.49199999999996	0.2	njhkxgc	42	verb	phrase	1	2	nomatch	chasser	-1	1	y	0.63104
422.69190000000003	0.0	+	42	verb	phrase	1	3	nomatch	chasser	-1	1	y	0.63104
423.09170000000006	0.2	dkcf	42	verb	phrase	1	4	nomatch	chasser	-1	1	y	0.63104
423.2916	0.0	+	42	verb	phrase	1	5	nomatch	chasser	-1	1	y	0.63104
423.6915	0.2	fhjp	42	verb	phrase	1	6	nomatch	chasser	-1	1	y	0.63104
423.8914	0.0	+	42	verb	phrase	1	7	nomatch	chasser	-1	1	y	0.63104
424.2912	0.2	pwz	42	verb	phrase	1	8	nomatch	chasser	-1	1	y	0.63104
424.49109999999996	0.0	+	42	verb	phrase	1	9	nomatch	chasser	-1	1	y	0.63104
424.8909	0.2	rouler	42	verb	phrase	1	10	nomatch	chasser	-1	1	y	0.63104
425.09080000000006	0.0	+	42	verb	phrase	1	11	nomatch	chasser	-1	1	y	0.63104
425.4906	0.0	+	42	verb	phrase	1	12	nomatch	chasser	-1	1	y	0.63104
427.48980000000006	0.0	CHASSER	42	verb	phrase	1	13	nomatch	chasser	-1	1	y	0.63104
428.17280000000005	0.0	+	42	verb	phrase	1	14	nomatch	chasser	-1	1	y	0.63104
428.12080000000003	0.0	[response]	42	verb	phrase	1	15	nomatch	chasser	-1	1	y	0.63104
429.8887	0.0	+	43	noun	list	2	1	match	cendrier	4	1	p	0.73966
430.4384	0.2	rvtpx	43	noun	list	2	2	match	cendrier	4	1	p	0.73966
430.63829999999996	0.0	+	43	noun	list	2	3	match	cendrier	4	1	p	0.73966
431.03819999999996	0.2	jqzp	43	noun	list	2	4	match	cendrier	4	1	p	0.73966
431.23810000000003	0.0	+	43	noun	list	2	5	match	cendrier	4	1	p	0.73966
431.63790000000006	0.2	vcpx	43	noun	list	2	6	match	cendrier	4	1	p	0.73966
431.8378	0.0	+	43	noun	list	2	7	match	cendrier	4	1	p	0.73966
432.23760000000004	0.2	cendrier	43	noun	list	2	8	match	cendrier	4	1	p	0.73966
432.4376	0.0	+	43	noun	list	2	9	match	cendrier	4	1	p	0.73966
432.8374	0.2	loin	43	noun	list	2	10	match	cendrier	4	1	p	0.73966
433.03729999999996	0.0	+	43	noun	list	2	11	match	cendrier	4	1	p	0.73966
433.4371	0.0	+	43	noun	list	2	12	match	cendrier	4	1	p	0.73966
435.4362	0.0	CENDRIER	43	noun	list	2	13	match	cendrier	4	1	p	0.73966
436.23580000000004	0.0	+	43	noun	list	2	14	match	cendrier	4	1	p	0.73966
436.17589999999996	0.0	[response]	43	noun	list	2	15	match	cendrier	4	1	p	0.73966
445.8482	0.0	+	44	verb	list	3	1	match	noir	5	1	p	0.5682
446.398	0.2	zkdfx	44	verb	list	3	2	match	noir	5	1	p	0.5682
446.5979	0.0	+	44	verb	list	3	3	match	noir	5	1	p	0.5682
446.9977	0.2	lnqh	44	verb	list	3	4	match	noir	5	1	p	0.5682
447.19759999999997	0.0	+	44	verb	list	3	5	match	noir	5	1	p	0.5682
447.5974	0.2	leur	44	verb	list	3	6	match	noir	5	1	p	0.5682
447.79729999999995	0.0	+	44	verb	list	3	7	match	noir	5	1	p	0.5682
448.19719999999995	0.2	nager	44	verb	list	3	8	match	noir	5	1	p	0.5682
448.3971	0.0	+	44	verb	list	3	9	match	noir	5	1	p	0.5682
448.79690000000005	0.2	noir	44	verb	list	3	10	match	noir	5	1	p	0.5682
448.9968	0.0	+	44	verb	list	3	11	match	noir	5	1	p	0.5682
449.39660000000003	0.0	+	44	verb	list	3	12	match	noir	5	1	p	0.5682
451.3958	0.0	NOIR	44	verb	list	3	13	match	noir	5	1	p	0.5682
452.02880000000005	0.0	+	44	verb	list	3	14	match	noir	5	1	p	0.5682
451.96400000000006	0.0	[response]	44	verb	list	3	15	match	noir	5	1	p	0.5682
469.7875	0.0	+	45	noun	phrase	4	1	match	nouveau	4	1	p	0.60059
470.3373	0.2	jhksm	45	noun	phrase	4	2	match	nouveau	4	1	p	0.60059
470.5372	0.0	+	45	noun	phrase	4	3	match	nouveau	4	1	p	0.60059
470.937	0.2	dans	45	noun	phrase	4	4	match	nouveau	4	1	p	0.60059
471.1369000000001	0.0	+	45	noun	phrase	4	5	match	nouveau	4	1	p	0.60059
471.5367	0.2	mon	45	noun	phrase	4	6	match	nouveau	4	1	p	0.60059
471.73670000000004	0.0	+	45	noun	phrase	4	7	match	nouveau	4	1	p	0.60059
472.13650000000007	0.2	nouveau	45	noun	phrase	4	8	match	nouveau	4	1	p	0.60059
472.3364	0.0	+	45	noun	phrase	4	9	match	nouveau	4	1	p	0.60059
472.73620000000005	0.2	clavier	45	noun	phrase	4	10	match	nouveau	4	1	p	0.60059
472.9361	0.0	+	45	noun	phrase	4	11	match	nouveau	4	1	p	0.60059
473.336	0.0	+	45	noun	phrase	4	12	match	nouveau	4	1	p	0.60059
475.3351	0.0	NOUVEAU	45	noun	phrase	4	13	match	nouveau	4	1	p	0.60059
476.0014	0.0	+	45	noun	phrase	4	14	match	nouveau	4	1	p	0.60059
475.9356	0.0	[response]	45	noun	phrase	4	15	match	nouveau	4	1	p	0.60059
477.73400000000004	0.0	+	46	noun	phrase	1	1	nomatch	tablier	-1	1	y	0.63357
478.28370000000007	0.2	hjp	46	noun	phrase	1	2	nomatch	tablier	-1	1	y	0.63357
478.4837	0.0	+	46	noun	phrase	1	3	nomatch	tablier	-1	1	y	0.63357
478.8837	0.2	jsgh	46	noun	phrase	1	4	nomatch	tablier	-1	1	y	0.63357
479.1	0.0	+	46	noun	phrase	1	5	nomatch	tablier	-1	1	y	0.63357
479.4999	0.2	hjw	46	noun	phrase	1	6	nomatch	tablier	-1	1	y	0.63357
479.6998	0.0	+	46	noun	phrase	1	7	nomatch	tablier	-1	1	y	0.63357
480.0996	0.2	vblq	46	noun	phrase	1	8	nomatch	tablier	-1	1	y	0.63357
480.2995000000001	0.0	+	46	noun	phrase	1	9	nomatch	tablier	-1	1	y	0.63357
480.6993	0.2	cendrier	46	noun	phrase	1	10	nomatch	tablier	-1	1	y	0.63357
480.89920000000006	0.0	+	46	noun	phrase	1	11	nomatch	tablier	-1	1	y	0.63357
481.29910000000007	0.0	+	46	noun	phrase	1	12	nomatch	tablier	-1	1	y	0.63357
483.29820000000007	0.0	TABLIER	46	noun	phrase	1	13	nomatch	tablier	-1	1	y	0.63357
483.9978	0.0	+	46	noun	phrase	1	14	nomatch	tablier	-1	1	y	0.63357
483.9317	0.0	[response]	46	noun	phrase	1	15	nomatch	tablier	-1	1	y	0.63357
493.6935000000001	0.0	+	47	verb	list	4	1	match	blanc	5	1	p	0.7644
494.2433	0.2	qnksp	47	verb	list	4	2	match	blanc	5	1	p	0.7644
494.44320000000005	0.0	+	47	verb	list	4	3	match	blanc	5	1	p	0.7644
494.8430000000001	0.2	jade	47	verb	list	4	4	match	blanc	5	1	p	0.7644
495.04290000000003	0.0	+	47	verb	list	4	5	match	blanc	5	1	p	0.7644
495.44270000000006	0.2	mon	47	verb	list	4	6	match	blanc	5	1	p	0.7644
495.6427	0.0	+	47	verb	list	4	7	match	blanc	5	1	p	0.7644
496.0425	0.2	rouler	47	verb	list	4	8	match	blanc	5	1	p	0.7644
496.2424	0.0	+	47	verb	list	4	9	match	blanc	5	1	p	0.7644
496.6422	0.2	blanc	47	verb	list	4	10	match	blanc	5	1	p	0.7644
496.8421000000001	0.0	+	47	verb	list	4	11	match	blanc	5	1	p	0.7644
497.2419	0.0	+	47	verb	list	4	12	match	blanc	5	1	p	0.7644
499.2411000000001	0.0	BLANC	47	verb	list	4	13	match	blanc	5	1	p	0.7644
500.05740000000003	0.0	+	47	verb	list	4	14	match	blanc	5	1	p	0.7644
500.0055000000001	0.0	[response]	47	verb	list	4	15	match	blanc	5	1	p	0.7644
501.64	0.0	+	48	verb	list	1	1	nomatch	vert	-1	1	y	0.65434
502.1897	0.2	bhr	48	verb	list	1	2	nomatch	vert	-1	1	y	0.65434
502.3896000000001	0.0	+	48	verb	list	1	3	nomatch	vert	-1	1	y	0.65434
502.7895	0.2	nlxv	48	verb	list	1	4	nomatch	vert	-1	1	y	0.65434
502.98940000000005	0.0	+	48	verb	list	1	5	nomatch	vert	-1	1	y	0.65434
503.3892000000001	0.2	hjw	48	verb	list	1	6	nomatch	vert	-1	1	y	0.65434
503.58910000000003	0.0	+	48	verb	list	1	7	nomatch	vert	-1	1	y	0.65434
503.98890000000006	0.2	mgspkcf	48	verb	list	1	8	nomatch	vert	-1	1	y	0.65434
504.1888	0.0	+	48	verb	list	1	9	nomatch	vert	-1	1	y	0.65434
504.5887	0.2	noir	48	verb	list	1	10	nomatch	vert	-1	1	y	0.65434
504.7886000000001	0.0	+	48	verb	list	1	11	nomatch	vert	-1	1	y	0.65434
505.1884	0.0	+	48	verb	list	1	12	nomatch	vert	-1	1	y	0.65434
507.1875	0.0	VERT	48	verb	list	1	13	nomatch	vert	-1	1	y	0.65434
507.9039	0.0	+	48	verb	list	1	14	nomatch	vert	-1	1	y	0.65434
507.8419000000001	0.0	[response]	48	verb	list	1	15	nomatch	vert	-1	1	y	0.65434
509.5864	0.0	+	49	verb	phrase	1	1	nomatch	nouveau	-1	1	y	0.76534
510.13620000000003	0.2	vflj	49	verb	phrase	1	2	nomatch	nouveau	-1	1	y	0.76534
510.3361	0.0	+	49	verb	phrase	1	3	nomatch	nouveau	-1	1	y	0.76534
510.7359	0.2	cqx	49	verb	phrase	1	4	nomatch	nouveau	-1	1	y	0.76534
510.9358000000001	0.0	+	49	verb	phrase	1	5	nomatch	nouveau	-1	1	y	0.76534
511.3357000000001	0.2	th	49	verb	phrase	1	6	nomatch	nouveau	-1	1	y	0.76534
511.53560000000004	0.0	+	49	verb	phrase	1	7	nomatch	nouveau	-1	1	y	0.76534
511.9354000000001	0.2	kdljsv	49	verb	phrase	1	8	nomatch	nouveau	-1	1	y	0.76534
512.1353	0.0	+	49	verb	phrase	1	9	nomatch	nouveau	-1	1	y	0.76534
512.5358	0.2	vite	49	verb	phrase	1	10	nomatch	nouveau	-1	1	y	0.76534
512.735	0.0	+	49	verb	phrase	1	11	nomatch	nouveau	-1	1	y	0.76534
513.1348	0.0	+	49	verb	phrase	1	12	nomatch	nouveau	-1	1	y	0.76534
515.134	0.0	NOUVEAU	49	verb	phrase	1	13	nomatch	nouveau	-1	1	y	0.76534
515.9669	0.0	+	49	verb	phrase	1	14	nomatch	nouveau	-1	1	y	0.76534
515.8993	0.0	[response]	49	verb	phrase	1	15	nomatch	nouveau	-1	1	y	0.76534
517.5496	0.0	+	50	verb	phrase	3	1	nomatch	voyager	-1	1	y	0.6383200000000001
518.0993000000001	0.2	kdv	50	verb	phrase	3	2	nomatch	voyager	-1	1	y	0.6383200000000001
518.2992	0.0	+	50	verb	phrase	3	3	nomatch	voyager	-1	1	y	0.6383200000000001
518.6990000000001	0.2	lnqh	50	verb	phrase	3	4	nomatch	voyager	-1	1	y	0.6383200000000001
518.8989	0.0	+	50	verb	phrase	3	5	nomatch	voyager	-1	1	y	0.6383200000000001
519.2988	0.2	peut	50	verb	phrase	3	6	nomatch	voyager	-1	1	y	0.6383200000000001
519.4987	0.0	+	50	verb	phrase	3	7	nomatch	voyager	-1	1	y	0.6383200000000001
519.8985	0.2	plus	50	verb	phrase	3	8	nomatch	voyager	-1	1	y	0.6383200000000001
520.0984000000001	0.0	+	50	verb	phrase	3	9	nomatch	voyager	-1	1	y	0.6383200000000001
520.4982	0.2	patiner	50	verb	phrase	3	10	nomatch	voyager	-1	1	y	0.6383200000000001
520.6981000000001	0.0	+	50	verb	phrase	3	11	nomatch	voyager	-1	1	y	0.6383200000000001
521.0980000000001	0.0	+	50	verb	phrase	3	12	nomatch	voyager	-1	1	y	0.6383200000000001
523.0971000000001	0.0	VOYAGER	50	verb	phrase	3	13	nomatch	voyager	-1	1	y	0.6383200000000001
523.7968000000001	0.0	+	50	verb	phrase	3	14	nomatch	voyager	-1	1	y	0.6383200000000001
523.7354	0.0	[response]	50	verb	phrase	3	15	nomatch	voyager	-1	1	y	0.6383200000000001
525.496	0.0	+	51	noun	list	3	1	nomatch	vite	-1	1	y	0.55816
526.0458	0.2	jvzmgfq	51	noun	list	3	2	nomatch	vite	-1	1	y	0.55816
526.2457	0.0	+	51	noun	list	3	3	nomatch	vite	-1	1	y	0.55816
526.6455000000001	0.2	nfzp	51	noun	list	3	4	nomatch	vite	-1	1	y	0.55816
526.8454	0.0	+	51	noun	list	3	5	nomatch	vite	-1	1	y	0.55816
527.2452000000001	0.2	son	51	noun	list	3	6	nomatch	vite	-1	1	y	0.55816
527.4451	0.0	+	51	noun	list	3	7	nomatch	vite	-1	1	y	0.55816
527.8449	0.2	mieux	51	noun	list	3	8	nomatch	vite	-1	1	y	0.55816
528.0449	0.0	+	51	noun	list	3	9	nomatch	vite	-1	1	y	0.55816
528.4447	0.2	casier	51	noun	list	3	10	nomatch	vite	-1	1	y	0.55816
528.6446000000001	0.0	+	51	noun	list	3	11	nomatch	vite	-1	1	y	0.55816
529.0444	0.0	+	51	noun	list	3	12	nomatch	vite	-1	1	y	0.55816
531.0435	0.0	VITE	51	noun	list	3	13	nomatch	vite	-1	1	y	0.55816
531.6599	0.0	+	51	noun	list	3	14	nomatch	vite	-1	1	y	0.55816
531.6017000000002	0.0	[response]	51	noun	list	3	15	nomatch	vite	-1	1	y	0.55816
533.4425	0.0	+	52	verb	list	1	1	nomatch	bleu	-1	1	y	0.50933
533.9922	0.2	mxhfv	52	verb	list	1	2	nomatch	bleu	-1	1	y	0.50933
534.1921	0.0	+	52	verb	list	1	3	nomatch	bleu	-1	1	y	0.50933
534.5919	0.2	nlxv	52	verb	list	1	4	nomatch	bleu	-1	1	y	0.50933
534.7919	0.0	+	52	verb	list	1	5	nomatch	bleu	-1	1	y	0.50933
535.1917000000001	0.2	smdc	52	verb	list	1	6	nomatch	bleu	-1	1	y	0.50933
535.3916	0.0	+	52	verb	list	1	7	nomatch	bleu	-1	1	y	0.50933
535.7914000000001	0.2	ndvhcg	52	verb	list	1	8	nomatch	bleu	-1	1	y	0.50933
535.9913	0.0	+	52	verb	list	1	9	nomatch	bleu	-1	1	y	0.50933
536.3911	0.2	vert	52	verb	list	1	10	nomatch	bleu	-1	1	y	0.50933
536.591	0.0	+	52	verb	list	1	11	nomatch	bleu	-1	1	y	0.50933
536.9909	0.0	+	52	verb	list	1	12	nomatch	bleu	-1	1	y	0.50933
538.99	0.0	BLEU	52	verb	list	1	13	nomatch	bleu	-1	1	y	0.50933
539.5564	0.0	+	52	verb	list	1	14	nomatch	bleu	-1	1	y	0.50933
539.4993000000001	0.0	[response]	52	verb	list	1	15	nomatch	bleu	-1	1	y	0.50933
541.3889	0.0	+	53	verb	list	1	1	match	plonger	5	1	p	0.56604
541.9387	0.2	ntv	53	verb	list	1	2	match	plonger	5	1	p	0.56604
542.1386	0.0	+	53	verb	list	1	3	match	plonger	5	1	p	0.56604
542.5384	0.2	dkjf	53	verb	list	1	4	match	plonger	5	1	p	0.56604
542.7383	0.0	+	53	verb	list	1	5	match	plonger	5	1	p	0.56604
543.1381	0.2	th	53	verb	list	1	6	match	plonger	5	1	p	0.56604
543.3380000000001	0.0	+	53	verb	list	1	7	match	plonger	5	1	p	0.56604
543.7378	0.2	fqxgj	53	verb	list	1	8	match	plonger	5	1	p	0.56604
543.9378	0.0	+	53	verb	list	1	9	match	plonger	5	1	p	0.56604
544.3376000000001	0.2	plonger	53	verb	list	1	10	match	plonger	5	1	p	0.56604
544.5375	0.0	+	53	verb	list	1	11	match	plonger	5	1	p	0.56604
544.9373	0.0	+	53	verb	list	1	12	match	plonger	5	1	p	0.56604
546.9364	0.0	PLONGER	53	verb	list	1	13	match	plonger	5	1	p	0.56604
547.5695000000001	0.0	+	53	verb	list	1	14	match	plonger	5	1	p	0.56604
547.5025	0.0	[response]	53	verb	list	1	15	match	plonger	5	1	p	0.56604
549.3353000000001	0.0	+	54	verb	phrase	3	1	nomatch	peut	-1	1	y	0.59571
549.8851000000001	0.2	mjtgkfv	54	verb	phrase	3	2	nomatch	peut	-1	1	y	0.59571
550.085	0.0	+	54	verb	phrase	3	3	nomatch	peut	-1	1	y	0.59571
550.4848000000001	0.2	rjbt	54	verb	phrase	3	4	nomatch	peut	-1	1	y	0.59571
550.6847	0.0	+	54	verb	phrase	3	5	nomatch	peut	-1	1	y	0.59571
551.0846	0.2	doit	54	verb	phrase	3	6	nomatch	peut	-1	1	y	0.59571
551.2845	0.0	+	54	verb	phrase	3	7	nomatch	peut	-1	1	y	0.59571
551.6843	0.2	mieux	54	verb	phrase	3	8	nomatch	peut	-1	1	y	0.59571
551.8842000000001	0.0	+	54	verb	phrase	3	9	nomatch	peut	-1	1	y	0.59571
552.284	0.2	chasser	54	verb	phrase	3	10	nomatch	peut	-1	1	y	0.59571
552.4839000000001	0.0	+	54	verb	phrase	3	11	nomatch	peut	-1	1	y	0.59571
552.8838000000001	0.0	+	54	verb	phrase	3	12	nomatch	peut	-1	1	y	0.59571
554.8995	0.0	PEUT	54	verb	phrase	3	13	nomatch	peut	-1	1	y	0.59571
555.5492	0.0	+	54	verb	phrase	3	14	nomatch	peut	-1	1	y	0.59571
555.4952000000001	0.0	[response]	54	verb	phrase	3	15	nomatch	peut	-1	1	y	0.59571
557.2985	0.0	+	55	noun	list	1	1	nomatch	loin	-1	1	y	0.63504
557.8482	0.2	vkswn	55	noun	list	1	2	nomatch	loin	-1	1	y	0.63504
558.0481	0.0	+	55	noun	list	1	3	nomatch	loin	-1	1	y	0.63504
558.448	0.2	dkjf	55	noun	list	1	4	nomatch	loin	-1	1	y	0.63504
558.6479	0.0	+	55	noun	list	1	5	nomatch	loin	-1	1	y	0.63504
559.0477000000001	0.2	fhjp	55	noun	list	1	6	nomatch	loin	-1	1	y	0.63504
559.2476	0.0	+	55	noun	list	1	7	nomatch	loin	-1	1	y	0.63504
559.6474000000001	0.2	gktvfz	55	noun	list	1	8	nomatch	loin	-1	1	y	0.63504
559.8473	0.0	+	55	noun	list	1	9	nomatch	loin	-1	1	y	0.63504
560.2471	0.2	tôt	55	noun	list	1	10	nomatch	loin	-1	1	y	0.63504
560.4471	0.0	+	55	noun	list	1	11	nomatch	loin	-1	1	y	0.63504
560.8469	0.0	+	55	noun	list	1	12	nomatch	loin	-1	1	y	0.63504
562.846	0.0	LOIN	55	noun	list	1	13	nomatch	loin	-1	1	y	0.63504
563.5457	0.0	+	55	noun	list	1	14	nomatch	loin	-1	1	y	0.63504
563.481	0.0	[response]	55	noun	list	1	15	nomatch	loin	-1	1	y	0.63504
565.2449	0.0	+	56	verb	list	2	1	match	jongler	4	1	p	0.58779
565.7947	0.2	tcpsd	56	verb	list	2	2	match	jongler	4	1	p	0.58779
565.9946	0.0	+	56	verb	list	2	3	match	jongler	4	1	p	0.58779
566.3944	0.2	lnqh	56	verb	list	2	4	match	jongler	4	1	p	0.58779
566.5943	0.0	+	56	verb	list	2	5	match	jongler	4	1	p	0.58779
566.9941	0.2	smdc	56	verb	list	2	6	match	jongler	4	1	p	0.58779
567.1940000000001	0.0	+	56	verb	list	2	7	match	jongler	4	1	p	0.58779
567.5939000000001	0.2	jongler	56	verb	list	2	8	match	jongler	4	1	p	0.58779
567.7938	0.0	+	56	verb	list	2	9	match	jongler	4	1	p	0.58779
568.1936000000001	0.2	vert	56	verb	list	2	10	match	jongler	4	1	p	0.58779
568.3935	0.0	+	56	verb	list	2	11	match	jongler	4	1	p	0.58779
568.7933	0.0	+	56	verb	list	2	12	match	jongler	4	1	p	0.58779
570.7925	0.0	JONGLER	56	verb	list	2	13	match	jongler	4	1	p	0.58779
571.4421	0.0	+	56	verb	list	2	14	match	jongler	4	1	p	0.58779
571.3803000000001	0.0	[response]	56	verb	list	2	15	match	jongler	4	1	p	0.58779
573.1914	0.0	+	57	verb	list	1	1	match	grand	5	1	p	0.45923
573.7411000000001	0.2	lnbcz	57	verb	list	1	2	match	grand	5	1	p	0.45923
573.941	0.0	+	57	verb	list	1	3	match	grand	5	1	p	0.45923
574.3409	0.2	jqzp	57	verb	list	1	4	match	grand	5	1	p	0.45923
574.5408	0.0	+	57	verb	list	1	5	match	grand	5	1	p	0.45923
574.9406	0.2	th	57	verb	list	1	6	match	grand	5	1	p	0.45923
575.1405000000001	0.0	+	57	verb	list	1	7	match	grand	5	1	p	0.45923
575.5403	0.2	cjbrlnz	57	verb	list	1	8	match	grand	5	1	p	0.45923
575.7402000000001	0.0	+	57	verb	list	1	9	match	grand	5	1	p	0.45923
576.14	0.2	grand	57	verb	list	1	10	match	grand	5	1	p	0.45923
576.34	0.0	+	57	verb	list	1	11	match	grand	5	1	p	0.45923
576.7398000000001	0.0	+	57	verb	list	1	12	match	grand	5	1	p	0.45923
578.7389000000001	0.0	GRAND	57	verb	list	1	13	match	grand	5	1	p	0.45923
579.2553	0.0	+	57	verb	list	1	14	match	grand	5	1	p	0.45923
579.1981000000002	0.0	[response]	57	verb	list	1	15	match	grand	5	1	p	0.45923
581.1378000000001	0.0	+	58	verb	list	3	1	match	doit	3	1	p	0.61239
581.6876000000001	0.2	lcmgj	58	verb	list	3	2	match	doit	3	1	p	0.61239
581.8875	0.0	+	58	verb	list	3	3	match	doit	3	1	p	0.61239
582.2873000000001	0.2	skml	58	verb	list	3	4	match	doit	3	1	p	0.61239
582.4872	0.0	+	58	verb	list	3	5	match	doit	3	1	p	0.61239
582.8870000000001	0.2	doit	58	verb	list	3	6	match	doit	3	1	p	0.61239
583.0869	0.0	+	58	verb	list	3	7	match	doit	3	1	p	0.61239
583.4868	0.2	nouveau	58	verb	list	3	8	match	doit	3	1	p	0.61239
583.6867000000001	0.0	+	58	verb	list	3	9	match	doit	3	1	p	0.61239
584.0865	0.2	chasser	58	verb	list	3	10	match	doit	3	1	p	0.61239
584.2864000000001	0.0	+	58	verb	list	3	11	match	doit	3	1	p	0.61239
584.6862	0.0	+	58	verb	list	3	12	match	doit	3	1	p	0.61239
586.6853	0.0	DOIT	58	verb	list	3	13	match	doit	3	1	p	0.61239
587.3517	0.0	+	58	verb	list	3	14	match	doit	3	1	p	0.61239
587.2977000000001	0.0	[response]	58	verb	list	3	15	match	doit	3	1	p	0.61239
589.0843	0.0	+	59	verb	phrase	3	1	match	va	3	1	p	0.4328
589.634	0.2	kgt	59	verb	phrase	3	2	match	va	3	1	p	0.4328
589.8339000000001	0.0	+	59	verb	phrase	3	3	match	va	3	1	p	0.4328
590.2337	0.2	nfzp	59	verb	phrase	3	4	match	va	3	1	p	0.4328
590.4337	0.0	+	59	verb	phrase	3	5	match	va	3	1	p	0.4328
590.8336	0.2	va	59	verb	phrase	3	6	match	va	3	1	p	0.4328
591.0501	0.0	+	59	verb	phrase	3	7	match	va	3	1	p	0.4328
591.4499000000001	0.2	voyager	59	verb	phrase	3	8	match	va	3	1	p	0.4328
591.6498	0.0	+	59	verb	phrase	3	9	match	va	3	1	p	0.4328
592.0496	0.2	tôt	59	verb	phrase	3	10	match	va	3	1	p	0.4328
592.2495	0.0	+	59	verb	phrase	3	11	match	va	3	1	p	0.4328
592.6493	0.0	+	59	verb	phrase	3	12	match	va	3	1	p	0.4328
594.6485	0.0	VA	59	verb	phrase	3	13	match	va	3	1	p	0.4328
595.1482000000001	0.0	+	59	verb	phrase	3	14	match	va	3	1	p	0.4328
595.0813	0.0	[response]	59	verb	phrase	3	15	match	va	3	1	p	0.4328
597.0474	0.0	+	60	verb	list	2	1	nomatch	cendrier	-1	1	y	0.6618
597.5971000000001	0.2	rnwxzgf	60	verb	list	2	2	nomatch	cendrier	-1	1	y	0.6618
597.797	0.0	+	60	verb	list	2	3	nomatch	cendrier	-1	1	y	0.6618
598.1969	0.2	nlxv	60	verb	list	2	4	nomatch	cendrier	-1	1	y	0.6618
598.3968	0.0	+	60	verb	list	2	5	nomatch	cendrier	-1	1	y	0.6618
598.7966	0.2	hjw	60	verb	list	2	6	nomatch	cendrier	-1	1	y	0.6618
598.9965000000001	0.0	+	60	verb	list	2	7	nomatch	cendrier	-1	1	y	0.6618
599.3963	0.2	rouler	60	verb	list	2	8	nomatch	cendrier	-1	1	y	0.6618
599.5963	0.0	+	60	verb	list	2	9	nomatch	cendrier	-1	1	y	0.6618
599.9961000000001	0.2	rouge	60	verb	list	2	10	nomatch	cendrier	-1	1	y	0.6618
600.196	0.0	+	60	verb	list	2	11	nomatch	cendrier	-1	1	y	0.6618
600.5958	0.0	+	60	verb	list	2	12	nomatch	cendrier	-1	1	y	0.6618
602.5949	0.0	CENDRIER	60	verb	list	2	13	nomatch	cendrier	-1	1	y	0.6618
603.3113000000001	0.0	+	60	verb	list	2	14	nomatch	cendrier	-1	1	y	0.6618
603.2567	0.0	[response]	60	verb	list	2	15	nomatch	cendrier	-1	1	y	0.6618
604.9938000000001	0.0	+	61	verb	phrase	1	1	match	chasser	5	1	p	0.42615
605.5436000000001	0.2	cpdvt	61	verb	phrase	1	2	match	chasser	5	1	p	0.42615
605.7435	0.0	+	61	verb	phrase	1	3	match	chasser	5	1	p	0.42615
606.1433000000001	0.2	lnqh	61	verb	phrase	1	4	match	chasser	5	1	p	0.42615
606.3432	0.0	+	61	verb	phrase	1	5	match	chasser	5	1	p	0.42615
606.7431	0.2	vcpx	61	verb	phrase	1	6	match	chasser	5	1	p	0.42615
606.943	0.0	+	61	verb	phrase	1	7	match	chasser	5	1	p	0.42615
607.3428	0.2	nthrd	61	verb	phrase	1	8	match	chasser	5	1	p	0.42615
607.5427000000001	0.0	+	61	verb	phrase	1	9	match	chasser	5	1	p	0.42615
607.9425	0.2	chasser	61	verb	phrase	1	10	match	chasser	5	1	p	0.42615
608.1424000000001	0.0	+	61	verb	phrase	1	11	match	chasser	5	1	p	0.42615
608.5423000000001	0.0	+	61	verb	phrase	1	12	match	chasser	5	1	p	0.42615
610.5414000000001	0.0	CHASSER	61	verb	phrase	1	13	match	chasser	5	1	p	0.42615
611.0245	0.0	+	61	verb	phrase	1	14	match	chasser	5	1	p	0.42615
610.9675000000001	0.0	[response]	61	verb	phrase	1	15	match	chasser	5	1	p	0.42615
612.9403	0.0	+	62	noun	list	3	1	nomatch	boîtier	-1	1	y	0.64197
613.49	0.2	tfpcgd	62	noun	list	3	2	nomatch	boîtier	-1	1	y	0.64197
613.69	0.0	+	62	noun	list	3	3	nomatch	boîtier	-1	1	y	0.64197
614.0898000000001	0.2	grd	62	noun	list	3	4	nomatch	boîtier	-1	1	y	0.64197
614.2897	0.0	+	62	noun	list	3	5	nomatch	boîtier	-1	1	y	0.64197
614.6895000000001	0.2	peut	62	noun	list	3	6	nomatch	boîtier	-1	1	y	0.64197
614.8894	0.0	+	62	noun	list	3	7	nomatch	boîtier	-1	1	y	0.64197
615.2892	0.2	rocher	62	noun	list	3	8	nomatch	boîtier	-1	1	y	0.64197
615.4892	0.0	+	62	noun	list	3	9	nomatch	boîtier	-1	1	y	0.64197
615.889	0.2	loin	62	noun	list	3	10	nomatch	boîtier	-1	1	y	0.64197
616.0889000000001	0.0	+	62	noun	list	3	11	nomatch	boîtier	-1	1	y	0.64197
616.4887	0.0	+	62	noun	list	3	12	nomatch	boîtier	-1	1	y	0.64197
618.4878	0.0	BOÎTIER	62	noun	list	3	13	nomatch	boîtier	-1	1	y	0.64197
619.1875	0.0	+	62	noun	list	3	14	nomatch	boîtier	-1	1	y	0.64197
619.1298	0.0	[response]	62	noun	list	3	15	nomatch	boîtier	-1	1	y	0.64197
620.8867	0.0	+	63	verb	list	3	1	match	bleu	5	1	p	0.45479
621.4365	0.2	mwvjz	63	verb	list	3	2	match	bleu	5	1	p	0.45479
621.6364	0.0	+	63	verb	list	3	3	match	bleu	5	1	p	0.45479
622.0362	0.2	nlxv	63	verb	list	3	4	match	bleu	5	1	p	0.45479
622.2361000000001	0.0	+	63	verb	list	3	5	match	bleu	5	1	p	0.45479
622.6360000000001	0.2	son	63	verb	list	3	6	match	bleu	5	1	p	0.45479
622.8359	0.0	+	63	verb	list	3	7	match	bleu	5	1	p	0.45479
623.2357000000001	0.2	voyager	63	verb	list	3	8	match	bleu	5	1	p	0.45479
623.4356	0.0	+	63	verb	list	3	9	match	bleu	5	1	p	0.45479
623.8354	0.2	bleu	63	verb	list	3	10	match	bleu	5	1	p	0.45479
624.0353	0.0	+	63	verb	list	3	11	match	bleu	5	1	p	0.45479
624.4352	0.0	+	63	verb	list	3	12	match	bleu	5	1	p	0.45479
626.4343	0.0	BLEU	63	verb	list	3	13	match	bleu	5	1	p	0.45479
626.9507	0.0	+	63	verb	list	3	14	match	bleu	5	1	p	0.45479
626.8891	0.0	[response]	63	verb	list	3	15	match	bleu	5	1	p	0.45479
628.8498000000001	0.0	+	64	verb	list	4	1	match	patiner	5	1	p	0.52161
629.3996000000001	0.2	dmqclbx	64	verb	list	4	2	match	patiner	5	1	p	0.52161
629.5995	0.0	+	64	verb	list	4	3	match	patiner	5	1	p	0.52161
629.9993000000001	0.2	sur	64	verb	list	4	4	match	patiner	5	1	p	0.52161
630.1992	0.0	+	64	verb	list	4	5	match	patiner	5	1	p	0.52161
630.5991	0.2	va	64	verb	list	4	6	match	patiner	5	1	p	0.52161
630.799	0.0	+	64	verb	list	4	7	match	patiner	5	1	p	0.52161
631.1988	0.2	vieux	64	verb	list	4	8	match	patiner	5	1	p	0.52161
631.3987000000001	0.0	+	64	verb	list	4	9	match	patiner	5	1	p	0.52161
631.7985	0.2	patiner	64	verb	list	4	10	match	patiner	5	1	p	0.52161
631.9984000000001	0.0	+	64	verb	list	4	11	match	patiner	5	1	p	0.52161
632.3983000000001	0.0	+	64	verb	list	4	12	match	patiner	5	1	p	0.52161
634.3974000000001	0.0	PATINER	64	verb	list	4	13	match	patiner	5	1	p	0.52161
634.9804	0.0	+	64	verb	list	4	14	match	patiner	5	1	p	0.52161
634.9190000000001	0.0	[response]	64	verb	list	4	15	match	patiner	5	1	p	0.52161
636.7963000000001	0.0	+	65	noun	phrase	3	1	nomatch	vers	-1	1	y	0.76375
637.3461	0.2	njrt	65	noun	phrase	3	2	nomatch	vers	-1	1	y	0.76375
637.546	0.0	+	65	noun	phrase	3	3	nomatch	vers	-1	1	y	0.76375
637.9458000000001	0.2	dgph	65	noun	phrase	3	4	nomatch	vers	-1	1	y	0.76375
638.1457	0.0	+	65	noun	phrase	3	5	nomatch	vers	-1	1	y	0.76375
638.5455000000001	0.2	leur	65	noun	phrase	3	6	nomatch	vers	-1	1	y	0.76375
638.7454	0.0	+	65	noun	phrase	3	7	nomatch	vers	-1	1	y	0.76375
639.1452	0.2	grand	65	noun	phrase	3	8	nomatch	vers	-1	1	y	0.76375
639.3452	0.0	+	65	noun	phrase	3	9	nomatch	vers	-1	1	y	0.76375
639.745	0.2	boîtier	65	noun	phrase	3	10	nomatch	vers	-1	1	y	0.76375
639.9449000000001	0.0	+	65	noun	phrase	3	11	nomatch	vers	-1	1	y	0.76375
640.3447	0.0	+	65	noun	phrase	3	12	nomatch	vers	-1	1	y	0.76375
642.3438	0.0	VERS	65	noun	phrase	3	13	nomatch	vers	-1	1	y	0.76375
643.1601	0.0	+	65	noun	phrase	3	14	nomatch	vers	-1	1	y	0.76375
643.1076	0.0	[response]	65	noun	phrase	3	15	nomatch	vers	-1	1	y	0.76375
644.7428	0.0	+	66	verb	list	1	1	nomatch	peut	-1	1	y	0.72351
645.2925	0.2	mhrwzpg	66	verb	list	1	2	nomatch	peut	-1	1	y	0.72351
645.4924	0.0	+	66	verb	list	1	3	nomatch	peut	-1	1	y	0.72351
645.8922	0.2	grd	66	verb	list	1	4	nomatch	peut	-1	1	y	0.72351
646.0922	0.0	+	66	verb	list	1	5	nomatch	peut	-1	1	y	0.72351
646.4920000000001	0.2	th	66	verb	list	1	6	nomatch	peut	-1	1	y	0.72351
646.6919	0.0	+	66	verb	list	1	7	nomatch	peut	-1	1	y	0.72351
647.0917000000001	0.2	jfxdtrp	66	verb	list	1	8	nomatch	peut	-1	1	y	0.72351
647.2916	0.0	+	66	verb	list	1	9	nomatch	peut	-1	1	y	0.72351
647.6914	0.2	beau	66	verb	list	1	10	nomatch	peut	-1	1	y	0.72351
647.8913	0.0	+	66	verb	list	1	11	nomatch	peut	-1	1	y	0.72351
648.2912	0.0	+	66	verb	list	1	12	nomatch	peut	-1	1	y	0.72351
650.2903	0.0	PEUT	66	verb	list	1	13	nomatch	peut	-1	1	y	0.72351
651.0733	0.0	+	66	verb	list	1	14	nomatch	peut	-1	1	y	0.72351
651.0138000000001	0.0	[response]	66	verb	list	1	15	nomatch	peut	-1	1	y	0.72351
652.6892	0.0	+	67	verb	phrase	3	1	nomatch	mon	-1	1	y	0.56087
653.239	0.2	bvgrqp	67	verb	phrase	3	2	nomatch	mon	-1	1	y	0.56087
653.4389	0.0	+	67	verb	phrase	3	3	nomatch	mon	-1	1	y	0.56087
653.8387	0.2	cqx	67	verb	phrase	3	4	nomatch	mon	-1	1	y	0.56087
654.0386000000001	0.0	+	67	verb	phrase	3	5	nomatch	mon	-1	1	y	0.56087
654.4384	0.2	va	67	verb	phrase	3	6	nomatch	mon	-1	1	y	0.56087
654.6383000000001	0.0	+	67	verb	phrase	3	7	nomatch	mon	-1	1	y	0.56087
655.0382000000001	0.2	plus	67	verb	phrase	3	8	nomatch	mon	-1	1	y	0.56087
655.2381	0.0	+	67	verb	phrase	3	9	nomatch	mon	-1	1	y	0.56087
655.6379000000001	0.2	rouler	67	verb	phrase	3	10	nomatch	mon	-1	1	y	0.56087
655.8378	0.0	+	67	verb	phrase	3	11	nomatch	mon	-1	1	y	0.56087
656.2376	0.0	+	67	verb	phrase	3	12	nomatch	mon	-1	1	y	0.56087
658.2367	0.0	MON	67	verb	phrase	3	13	nomatch	mon	-1	1	y	0.56087
658.8531	0.0	+	67	verb	phrase	3	14	nomatch	mon	-1	1	y	0.56087
658.7976	0.0	[response]	67	verb	phrase	3	15	nomatch	mon	-1	1	y	0.56087
660.6357	0.0	+	68	verb	phrase	2	1	match	mieux	4	1	p	0.43481000000000003
661.1854000000001	0.2	rqjshfx	68	verb	phrase	2	2	match	mieux	4	1	p	0.43481000000000003
661.3853	0.0	+	68	verb	phrase	2	3	match	mieux	4	1	p	0.43481000000000003
661.7851	0.2	qrkg	68	verb	phrase	2	4	match	mieux	4	1	p	0.43481000000000003
661.9851	0.0	+	68	verb	phrase	2	5	match	mieux	4	1	p	0.43481000000000003
662.3849	0.2	th	68	verb	phrase	2	6	match	mieux	4	1	p	0.43481000000000003
662.5848000000001	0.0	+	68	verb	phrase	2	7	match	mieux	4	1	p	0.43481000000000003
662.9846	0.2	mieux	68	verb	phrase	2	8	match	mieux	4	1	p	0.43481000000000003
663.1845000000001	0.0	+	68	verb	phrase	2	9	match	mieux	4	1	p	0.43481000000000003
663.5843	0.2	jongler	68	verb	phrase	2	10	match	mieux	4	1	p	0.43481000000000003
663.7843	0.0	+	68	verb	phrase	2	11	match	mieux	4	1	p	0.43481000000000003
664.1841000000001	0.0	+	68	verb	phrase	2	12	match	mieux	4	1	p	0.43481000000000003
666.1998	0.0	MIEUX	68	verb	phrase	2	13	match	mieux	4	1	p	0.43481000000000003
666.6996	0.0	+	68	verb	phrase	2	14	match	mieux	4	1	p	0.43481000000000003
666.6347000000001	0.0	[response]	68	verb	phrase	2	15	match	mieux	4	1	p	0.43481000000000003
668.5988	0.0	+	69	noun	list	2	1	match	clavier	4	1	p	0.53663
669.1485	0.2	xjvhl	69	noun	list	2	2	match	clavier	4	1	p	0.53663
669.3484000000001	0.0	+	69	noun	list	2	3	match	clavier	4	1	p	0.53663
669.7482	0.2	dgph	69	noun	list	2	4	match	clavier	4	1	p	0.53663
669.9482	0.0	+	69	noun	list	2	5	match	clavier	4	1	p	0.53663
670.3480000000001	0.2	fhjp	69	noun	list	2	6	match	clavier	4	1	p	0.53663
670.5479	0.0	+	69	noun	list	2	7	match	clavier	4	1	p	0.53663
670.9477	0.2	clavier	69	noun	list	2	8	match	clavier	4	1	p	0.53663
671.1476	0.0	+	69	noun	list	2	9	match	clavier	4	1	p	0.53663
671.5475	0.2	vite	69	noun	list	2	10	match	clavier	4	1	p	0.53663
671.7474000000001	0.0	+	69	noun	list	2	11	match	clavier	4	1	p	0.53663
672.1472	0.0	+	69	noun	list	2	12	match	clavier	4	1	p	0.53663
674.1463	0.0	CLAVIER	69	noun	list	2	13	match	clavier	4	1	p	0.53663
674.746	0.0	+	69	noun	list	2	14	match	clavier	4	1	p	0.53663
674.6829	0.0	[response]	69	noun	list	2	15	match	clavier	4	1	p	0.53663
676.5452	0.0	+	70	verb	phrase	4	1	match	jade	2	1	p	0.52795
677.095	0.2	bkvpgmt	70	verb	phrase	4	2	match	jade	2	1	p	0.52795
677.2949	0.0	+	70	verb	phrase	4	3	match	jade	2	1	p	0.52795
677.6947	0.2	jade	70	verb	phrase	4	4	match	jade	2	1	p	0.52795
677.8946000000001	0.0	+	70	verb	phrase	4	5	match	jade	2	1	p	0.52795
678.2944	0.2	va	70	verb	phrase	4	6	match	jade	2	1	p	0.52795
678.4943000000001	0.0	+	70	verb	phrase	4	7	match	jade	2	1	p	0.52795
678.8942000000001	0.2	plus	70	verb	phrase	4	8	match	jade	2	1	p	0.52795
679.0941	0.0	+	70	verb	phrase	4	9	match	jade	2	1	p	0.52795
679.4939	0.2	rouler	70	verb	phrase	4	10	match	jade	2	1	p	0.52795
679.6938	0.0	+	70	verb	phrase	4	11	match	jade	2	1	p	0.52795
680.0936	0.0	+	70	verb	phrase	4	12	match	jade	2	1	p	0.52795
682.0928	0.0	JADE	70	verb	phrase	4	13	match	jade	2	1	p	0.52795
682.6758	0.0	+	70	verb	phrase	4	14	match	jade	2	1	p	0.52795
682.6207000000002	0.0	[response]	70	verb	phrase	4	15	match	jade	2	1	p	0.52795
684.4917	0.0	+	71	noun	list	1	1	nomatch	son	-1	1	y	0.5119
685.0414000000001	0.2	krph	71	noun	list	1	2	nomatch	son	-1	1	y	0.5119
685.2416000000001	0.0	+	71	noun	list	1	3	nomatch	son	-1	1	y	0.5119
685.6412	0.2	jqzp	71	noun	list	1	4	nomatch	son	-1	1	y	0.5119
685.8411	0.0	+	71	noun	list	1	5	nomatch	son	-1	1	y	0.5119
686.2409	0.2	vcpx	71	noun	list	1	6	nomatch	son	-1	1	y	0.5119
686.4408000000001	0.0	+	71	noun	list	1	7	nomatch	son	-1	1	y	0.5119
686.8406	0.2	pwz	71	noun	list	1	8	nomatch	son	-1	1	y	0.5119
687.0405000000001	0.0	+	71	noun	list	1	9	nomatch	son	-1	1	y	0.5119
687.4404000000001	0.2	tablier	71	noun	list	1	10	nomatch	son	-1	1	y	0.5119
687.6403	0.0	+	71	noun	list	1	11	nomatch	son	-1	1	y	0.5119
688.0401	0.0	+	71	noun	list	1	12	nomatch	son	-1	1	y	0.5119
690.0392	0.0	SON	71	noun	list	1	13	nomatch	son	-1	1	y	0.5119
690.6056	0.0	+	71	noun	list	1	14	nomatch	son	-1	1	y	0.5119
690.5511	0.0	[response]	71	noun	list	1	15	nomatch	son	-1	1	y	0.5119
692.4381000000001	0.0	+	72	verb	list	2	1	nomatch	marc	-1	1	y	0.57738
692.9886	0.2	lprkbf	72	verb	list	2	2	nomatch	marc	-1	1	y	0.57738
693.1878	0.0	+	72	verb	list	2	3	nomatch	marc	-1	1	y	0.57738
693.5876000000001	0.2	rjbt	72	verb	list	2	4	nomatch	marc	-1	1	y	0.57738
693.7875	0.0	+	72	verb	list	2	5	nomatch	marc	-1	1	y	0.57738
694.1873	0.2	wbn	72	verb	list	2	6	nomatch	marc	-1	1	y	0.57738
694.3873	0.0	+	72	verb	list	2	7	nomatch	marc	-1	1	y	0.57738
694.7871	0.2	danser	72	verb	list	2	8	nomatch	marc	-1	1	y	0.57738
694.9870000000001	0.0	+	72	verb	list	2	9	nomatch	marc	-1	1	y	0.57738
695.3868	0.2	blanc	72	verb	list	2	10	nomatch	marc	-1	1	y	0.57738
695.5867000000001	0.0	+	72	verb	list	2	11	nomatch	marc	-1	1	y	0.57738
695.9865	0.0	+	72	verb	list	2	12	nomatch	marc	-1	1	y	0.57738
697.9857000000001	0.0	MARC	72	verb	list	2	13	nomatch	marc	-1	1	y	0.57738
698.6187	0.0	+	72	verb	list	2	14	nomatch	marc	-1	1	y	0.57738
698.5630000000001	0.0	[response]	72	verb	list	2	15	nomatch	marc	-1	1	y	0.57738
700.3846	0.0	+	73	noun	phrase	2	1	match	noir	5	1	p	0.55326
700.9343	0.2	dlrp	73	noun	phrase	2	2	match	noir	5	1	p	0.55326
701.1342000000001	0.0	+	73	noun	phrase	2	3	match	noir	5	1	p	0.55326
701.5341000000001	0.2	qrdf	73	noun	phrase	2	4	match	noir	5	1	p	0.55326
701.734	0.0	+	73	noun	phrase	2	5	match	noir	5	1	p	0.55326
702.1338000000001	0.2	hjw	73	noun	phrase	2	6	match	noir	5	1	p	0.55326
702.3337	0.0	+	73	noun	phrase	2	7	match	noir	5	1	p	0.55326
702.7335	0.2	rocher	73	noun	phrase	2	8	match	noir	5	1	p	0.55326
702.9501	0.0	+	73	noun	phrase	2	9	match	noir	5	1	p	0.55326
703.3499	0.2	noir	73	noun	phrase	2	10	match	noir	5	1	p	0.55326
703.5498	0.0	+	73	noun	phrase	2	11	match	noir	5	1	p	0.55326
703.9496	0.0	+	73	noun	phrase	2	12	match	noir	5	1	p	0.55326
705.9488	0.0	NOIR	73	noun	phrase	2	13	match	noir	5	1	p	0.55326
706.5652	0.0	+	73	noun	phrase	2	14	match	noir	5	1	p	0.55326
706.5020000000001	0.0	[response]	73	noun	phrase	2	15	match	noir	5	1	p	0.55326
708.3477	0.0	+	74	verb	list	3	1	nomatch	moins	-1	1	y	0.5836400000000002
708.8974000000001	0.2	wpcs	74	verb	list	3	2	nomatch	moins	-1	1	y	0.5836400000000002
709.0973	0.0	+	74	verb	list	3	3	nomatch	moins	-1	1	y	0.5836400000000002
709.4972	0.2	grd	74	verb	list	3	4	nomatch	moins	-1	1	y	0.5836400000000002
709.6971	0.0	+	74	verb	list	3	5	nomatch	moins	-1	1	y	0.5836400000000002
710.0969	0.2	peut	74	verb	list	3	6	nomatch	moins	-1	1	y	0.5836400000000002
710.2968000000001	0.0	+	74	verb	list	3	7	nomatch	moins	-1	1	y	0.5836400000000002
710.6966	0.2	nouveau	74	verb	list	3	8	nomatch	moins	-1	1	y	0.5836400000000002
710.8965000000001	0.0	+	74	verb	list	3	9	nomatch	moins	-1	1	y	0.5836400000000002
711.2964000000001	0.2	voyager	74	verb	list	3	10	nomatch	moins	-1	1	y	0.5836400000000002
711.4963	0.0	+	74	verb	list	3	11	nomatch	moins	-1	1	y	0.5836400000000002
711.8961	0.0	+	74	verb	list	3	12	nomatch	moins	-1	1	y	0.5836400000000002
713.8952	0.0	MOINS	74	verb	list	3	13	nomatch	moins	-1	1	y	0.5836400000000002
714.5449	0.0	+	74	verb	list	3	14	nomatch	moins	-1	1	y	0.5836400000000002
714.4789000000001	0.0	[response]	74	verb	list	3	15	nomatch	moins	-1	1	y	0.5836400000000002
716.2941000000001	0.0	+	75	verb	phrase	4	1	match	va	3	1	p	0.64228
716.8439000000001	0.2	hdr	75	verb	phrase	4	2	match	va	3	1	p	0.64228
717.0438	0.0	+	75	verb	phrase	4	3	match	va	3	1	p	0.64228
717.4436000000001	0.2	yves	75	verb	phrase	4	4	match	va	3	1	p	0.64228
717.6435	0.0	+	75	verb	phrase	4	5	match	va	3	1	p	0.64228
718.0434	0.2	va	75	verb	phrase	4	6	match	va	3	1	p	0.64228
718.2433	0.0	+	75	verb	phrase	4	7	match	va	3	1	p	0.64228
718.6431	0.2	plus	75	verb	phrase	4	8	match	va	3	1	p	0.64228
718.8430000000001	0.0	+	75	verb	phrase	4	9	match	va	3	1	p	0.64228
719.2428	0.2	plonger	75	verb	phrase	4	10	match	va	3	1	p	0.64228
719.4427000000001	0.0	+	75	verb	phrase	4	11	match	va	3	1	p	0.64228
719.8426000000001	0.0	+	75	verb	phrase	4	12	match	va	3	1	p	0.64228
721.8417000000001	0.0	VA	75	verb	phrase	4	13	match	va	3	1	p	0.64228
722.5414000000001	0.0	+	75	verb	phrase	4	14	match	va	3	1	p	0.64228
722.4839000000001	0.0	[response]	75	verb	phrase	4	15	match	va	3	1	p	0.64228
724.2406000000001	0.0	+	76	verb	phrase	2	1	nomatch	tôt	-1	1	y	0.55861
724.7903	0.2	bms	76	verb	phrase	2	2	nomatch	tôt	-1	1	y	0.55861
724.9903	0.0	+	76	verb	phrase	2	3	nomatch	tôt	-1	1	y	0.55861
725.3901000000001	0.2	dkcf	76	verb	phrase	2	4	nomatch	tôt	-1	1	y	0.55861
725.59	0.0	+	76	verb	phrase	2	5	nomatch	tôt	-1	1	y	0.55861
725.9898000000001	0.2	vcpx	76	verb	phrase	2	6	nomatch	tôt	-1	1	y	0.55861
726.1897	0.0	+	76	verb	phrase	2	7	nomatch	tôt	-1	1	y	0.55861
726.5896	0.2	jongler	76	verb	phrase	2	8	nomatch	tôt	-1	1	y	0.55861
726.7894	0.0	+	76	verb	phrase	2	9	nomatch	tôt	-1	1	y	0.55861
727.1893	0.2	ainsi	76	verb	phrase	2	10	nomatch	tôt	-1	1	y	0.55861
727.3892000000001	0.0	+	76	verb	phrase	2	11	nomatch	tôt	-1	1	y	0.55861
727.789	0.0	+	76	verb	phrase	2	12	nomatch	tôt	-1	1	y	0.55861
729.7881	0.0	TÔT	76	verb	phrase	2	13	nomatch	tôt	-1	1	y	0.55861
730.4045	0.0	+	76	verb	phrase	2	14	nomatch	tôt	-1	1	y	0.55861
730.3467000000002	0.0	[response]	76	verb	phrase	2	15	nomatch	tôt	-1	1	y	0.55861
732.187	0.0	+	77	verb	phrase	4	1	nomatch	danser	-1	1	y	0.588
732.7368	0.2	szcx	77	verb	phrase	4	2	nomatch	danser	-1	1	y	0.588
732.9367000000001	0.0	+	77	verb	phrase	4	3	nomatch	danser	-1	1	y	0.588
733.3365	0.2	jade	77	verb	phrase	4	4	nomatch	danser	-1	1	y	0.588
733.5364000000001	0.0	+	77	verb	phrase	4	5	nomatch	danser	-1	1	y	0.588
733.9363000000001	0.2	doit	77	verb	phrase	4	6	nomatch	danser	-1	1	y	0.588
734.1362	0.0	+	77	verb	phrase	4	7	nomatch	danser	-1	1	y	0.588
734.5360000000001	0.2	rouler	77	verb	phrase	4	8	nomatch	danser	-1	1	y	0.588
734.7359	0.0	+	77	verb	phrase	4	9	nomatch	danser	-1	1	y	0.588
735.1357	0.2	loin	77	verb	phrase	4	10	nomatch	danser	-1	1	y	0.588
735.3356	0.0	+	77	verb	phrase	4	11	nomatch	danser	-1	1	y	0.588
735.7355	0.0	+	77	verb	phrase	4	12	nomatch	danser	-1	1	y	0.588
737.7346	0.0	DANSER	77	verb	phrase	4	13	nomatch	danser	-1	1	y	0.588
738.3843	0.0	+	77	verb	phrase	4	14	nomatch	danser	-1	1	y	0.588
738.3226000000002	0.0	[response]	77	verb	phrase	4	15	nomatch	danser	-1	1	y	0.588
740.1335	0.0	+	78	noun	phrase	4	1	nomatch	clavier	-1	1	y	0.57622
740.6999000000001	0.2	vtszg	78	noun	phrase	4	2	nomatch	clavier	-1	1	y	0.57622
740.8998	0.0	+	78	noun	phrase	4	3	nomatch	clavier	-1	1	y	0.57622
741.2996	0.2	pour	78	noun	phrase	4	4	nomatch	clavier	-1	1	y	0.57622
741.4995	0.0	+	78	noun	phrase	4	5	nomatch	clavier	-1	1	y	0.57622
741.8994	0.2	mon	78	noun	phrase	4	6	nomatch	clavier	-1	1	y	0.57622
742.0993000000001	0.0	+	78	noun	phrase	4	7	nomatch	clavier	-1	1	y	0.57622
742.4991	0.2	voilier	78	noun	phrase	4	8	nomatch	clavier	-1	1	y	0.57622
742.6990000000001	0.0	+	78	noun	phrase	4	9	nomatch	clavier	-1	1	y	0.57622
743.0988	0.2	rouge	78	noun	phrase	4	10	nomatch	clavier	-1	1	y	0.57622
743.2988	0.0	+	78	noun	phrase	4	11	nomatch	clavier	-1	1	y	0.57622
743.6986	0.0	+	78	noun	phrase	4	12	nomatch	clavier	-1	1	y	0.57622
745.6977	0.0	CLAVIER	78	noun	phrase	4	13	nomatch	clavier	-1	1	y	0.57622
746.3307	0.0	+	78	noun	phrase	4	14	nomatch	clavier	-1	1	y	0.57622
746.2739	0.0	[response]	78	noun	phrase	4	15	nomatch	clavier	-1	1	y	0.57622
748.0966000000001	0.0	+	79	verb	list	4	1	nomatch	dans	-1	1	y	0.6598400000000001
748.6464000000001	0.2	dbkvpls	79	verb	list	4	2	nomatch	dans	-1	1	y	0.6598400000000001
748.8463	0.0	+	79	verb	list	4	3	nomatch	dans	-1	1	y	0.6598400000000001
749.2461000000001	0.2	vers	79	verb	list	4	4	nomatch	dans	-1	1	y	0.6598400000000001
749.446	0.0	+	79	verb	list	4	5	nomatch	dans	-1	1	y	0.6598400000000001
749.8458	0.2	doit	79	verb	list	4	6	nomatch	dans	-1	1	y	0.6598400000000001
750.0457	0.0	+	79	verb	list	4	7	nomatch	dans	-1	1	y	0.6598400000000001
750.4456	0.2	nouveau	79	verb	list	4	8	nomatch	dans	-1	1	y	0.6598400000000001
750.6455000000001	0.0	+	79	verb	list	4	9	nomatch	dans	-1	1	y	0.6598400000000001
751.0453	0.2	jongler	79	verb	list	4	10	nomatch	dans	-1	1	y	0.6598400000000001
751.2452000000001	0.0	+	79	verb	list	4	11	nomatch	dans	-1	1	y	0.6598400000000001
751.645	0.0	+	79	verb	list	4	12	nomatch	dans	-1	1	y	0.6598400000000001
753.6441	0.0	DANS	79	verb	list	4	13	nomatch	dans	-1	1	y	0.6598400000000001
754.3605	0.0	+	79	verb	list	4	14	nomatch	dans	-1	1	y	0.6598400000000001
754.3040000000001	0.0	[response]	79	verb	list	4	15	nomatch	dans	-1	1	y	0.6598400000000001
756.0431	0.0	+	80	verb	list	4	1	nomatch	plus	-1	1	y	0.60555
756.5928	0.2	dsvq	80	verb	list	4	2	nomatch	plus	-1	1	y	0.60555
756.7927000000001	0.0	+	80	verb	list	4	3	nomatch	plus	-1	1	y	0.60555
757.1925	0.2	sous	80	verb	list	4	4	nomatch	plus	-1	1	y	0.60555
757.3924000000001	0.0	+	80	verb	list	4	5	nomatch	plus	-1	1	y	0.60555
757.7923000000001	0.2	va	80	verb	list	4	6	nomatch	plus	-1	1	y	0.60555
757.9922	0.0	+	80	verb	list	4	7	nomatch	plus	-1	1	y	0.60555
758.392	0.2	petit	80	verb	list	4	8	nomatch	plus	-1	1	y	0.60555
758.5919	0.0	+	80	verb	list	4	9	nomatch	plus	-1	1	y	0.60555
758.9917	0.2	danser	80	verb	list	4	10	nomatch	plus	-1	1	y	0.60555
759.1916	0.0	+	80	verb	list	4	11	nomatch	plus	-1	1	y	0.60555
759.5915	0.0	+	80	verb	list	4	12	nomatch	plus	-1	1	y	0.60555
761.5906	0.0	PLUS	80	verb	list	4	13	nomatch	plus	-1	1	y	0.60555
762.2570000000001	0.0	+	80	verb	list	4	14	nomatch	plus	-1	1	y	0.60555
763.9895	0.0	+	80	verb	list	4	15	nomatch	plus	-1	1	y	0.60555
765.0057	0.0	+	80	verb	list	4	16	nomatch	plus	-1	1	y	0.60555
765.1057000000001	0.0	+	80	verb	list	4	17	nomatch	plus	-1	1	y	0.60555
766.5051000000001	0.0	+	80	verb	list	4	18	nomatch	plus	-1	1	y	0.60555
766.605	0.0	+	80	verb	list	4	19	nomatch	plus	-1	1	y	0.60555
768.0044	0.0	+	80	verb	list	4	20	nomatch	plus	-1	1	y	0.60555
768.1043000000001	0.0	+	80	verb	list	4	21	nomatch	plus	-1	1	y	0.60555
769.5037	0.0	+	80	verb	list	4	22	nomatch	plus	-1	1	y	0.60555
769.6037	0.0	+	80	verb	list	4	23	nomatch	plus	-1	1	y	0.60555
771.0197000000001	0.0	+	80	verb	list	4	24	nomatch	plus	-1	1	y	0.60555
771.1197000000001	0.0	+	80	verb	list	4	25	nomatch	plus	-1	1	y	0.60555
772.5024000000001	0.0	+	80	verb	list	4	26	nomatch	plus	-1	1	y	0.60555
772.6023	0.0	+	80	verb	list	4	27	nomatch	plus	-1	1	y	0.60555
774.0184	0.0	+	80	verb	list	4	28	nomatch	plus	-1	1	y	0.60555
774.1183	0.0	+	80	verb	list	4	29	nomatch	plus	-1	1	y	0.60555
775.501	0.0	+	80	verb	list	4	30	nomatch	plus	-1	1	y	0.60555
775.601	0.0	+	80	verb	list	4	31	nomatch	plus	-1	1	y	0.60555
777.017	0.0	+	80	verb	list	4	32	nomatch	plus	-1	1	y	0.60555
777.1170000000001	0.0	+	80	verb	list	4	33	nomatch	plus	-1	1	y	0.60555
778.4997000000001	0.0	+	80	verb	list	4	34	nomatch	plus	-1	1	y	0.60555
778.5997	0.0	+	80	verb	list	4	35	nomatch	plus	-1	1	y	0.60555
783.714	0.0	+	80	verb	list	4	36	nomatch	plus	-1	1	y	0.60555
762.1961	0.0	[response]	80	verb	list	4	37	nomatch	plus	-1	1	y	0.60555
