onset	duration	stim	trial_number	trial_type	trial_structure	trial_length	sequential_position	probe_type	probe	probe_position	response_correct	response_key	response_time
0.05700000000000216	0.0	+	1	noun	list	3	1	nomatch	mieux	-1	1	p	1.038
0.540300000000002	0.2	tfrxh	1	noun	list	3	2	nomatch	mieux	-1	1	p	1.038
0.7402999999999977	0.0	+	1	noun	list	3	3	nomatch	mieux	-1	1	p	1.038
1.1402999999999963	0.2	wvln	1	noun	list	3	4	nomatch	mieux	-1	1	p	1.038
1.3402999999999992	0.0	+	1	noun	list	3	5	nomatch	mieux	-1	1	p	1.038
1.7402000000000015	0.2	mon	1	noun	list	3	6	nomatch	mieux	-1	1	p	1.038
1.9401999999999973	0.0	+	1	noun	list	3	7	nomatch	mieux	-1	1	p	1.038
2.340200000000003	0.2	beaucoup	1	noun	list	3	8	nomatch	mieux	-1	1	p	1.038
2.5401999999999987	0.0	+	1	noun	list	3	9	nomatch	mieux	-1	1	p	1.038
2.940100000000001	0.2	clavier	1	noun	list	3	10	nomatch	mieux	-1	1	p	1.038
3.140099999999997	0.0	+	1	noun	list	3	11	nomatch	mieux	-1	1	p	1.038
3.5401000000000025	0.0	+	1	noun	list	3	12	nomatch	mieux	-1	1	p	1.038
5.539899999999996	0.0	MIEUX	1	noun	list	3	13	nomatch	mieux	-1	1	p	1.038
6.639800000000001	0.0	+	1	noun	list	3	14	nomatch	mieux	-1	1	p	1.038
6.577900000000007	0.0	[response]	1	noun	list	3	15	nomatch	mieux	-1	1	p	1.038
7.939699999999995	0.0	+	2	noun	list	3	1	nomatch	doit	-1	1	p	0.82642
8.489600000000003	0.2	clm	2	noun	list	3	2	nomatch	doit	-1	1	p	0.82642
8.689600000000006	0.0	+	2	noun	list	3	3	nomatch	doit	-1	1	p	0.82642
9.089599999999997	0.2	vtwj	2	noun	list	3	4	nomatch	doit	-1	1	p	0.82642
9.289499999999997	0.0	+	2	noun	list	3	5	nomatch	doit	-1	1	p	0.82642
9.689500000000002	0.2	son	2	noun	list	3	6	nomatch	doit	-1	1	p	0.82642
9.889500000000005	0.0	+	2	noun	list	3	7	nomatch	doit	-1	1	p	0.82642
10.289499999999997	0.2	moins	2	noun	list	3	8	nomatch	doit	-1	1	p	0.82642
10.489399999999996	0.0	+	2	noun	list	3	9	nomatch	doit	-1	1	p	0.82642
10.889400000000002	0.2	tablier	2	noun	list	3	10	nomatch	doit	-1	1	p	0.82642
11.089400000000005	0.0	+	2	noun	list	3	11	nomatch	doit	-1	1	p	0.82642
11.489299999999993	0.0	+	2	noun	list	3	12	nomatch	doit	-1	1	p	0.82642
13.489200000000004	0.0	DOIT	2	noun	list	3	13	nomatch	doit	-1	1	p	0.82642
14.372400000000006	0.0	+	2	noun	list	3	14	nomatch	doit	-1	1	p	0.82642
14.315599999999996	0.0	[response]	2	noun	list	3	15	nomatch	doit	-1	1	p	0.82642
15.8889	0.0	+	3	noun	list	1	1	nomatch	mon	-1	1	p	0.54127
16.438899999999997	0.2	xtv	3	noun	list	1	2	nomatch	mon	-1	1	p	0.54127
16.6389	0.0	+	3	noun	list	1	3	nomatch	mon	-1	1	p	0.54127
17.038800000000002	0.2	rmkt	3	noun	list	1	4	nomatch	mon	-1	1	p	0.54127
17.238800000000005	0.0	+	3	noun	list	1	5	nomatch	mon	-1	1	p	0.54127
17.638799999999996	0.2	lgcv	3	noun	list	1	6	nomatch	mon	-1	1	p	0.54127
17.8388	0.0	+	3	noun	list	1	7	nomatch	mon	-1	1	p	0.54127
18.2387	0.2	kbwfhpvq	3	noun	list	1	8	nomatch	mon	-1	1	p	0.54127
18.438700000000004	0.0	+	3	noun	list	1	9	nomatch	mon	-1	1	p	0.54127
18.838699999999996	0.2	mieux	3	noun	list	1	10	nomatch	mon	-1	1	p	0.54127
19.0387	0.0	+	3	noun	list	1	11	nomatch	mon	-1	1	p	0.54127
19.4386	0.0	+	3	noun	list	1	12	nomatch	mon	-1	1	p	0.54127
21.438399999999994	0.0	MON	3	noun	list	1	13	nomatch	mon	-1	1	p	0.54127
22.038400000000003	0.0	+	3	noun	list	1	14	nomatch	mon	-1	1	p	0.54127
21.9797	0.0	[response]	3	noun	list	1	15	nomatch	mon	-1	1	p	0.54127
23.838199999999993	0.0	+	4	verb	phrase	1	1	match	danser	5	1	y	0.51106
24.388200000000005	0.2	vdgj	4	verb	phrase	1	2	match	danser	5	1	y	0.51106
24.588199999999993	0.0	+	4	verb	phrase	1	3	match	danser	5	1	y	0.51106
24.988099999999996	0.2	mpdb	4	verb	phrase	1	4	match	danser	5	1	y	0.51106
25.1881	0.0	+	4	verb	phrase	1	5	match	danser	5	1	y	0.51106
25.588100000000004	0.2	cn	4	verb	phrase	1	6	match	danser	5	1	y	0.51106
25.788099999999993	0.0	+	4	verb	phrase	1	7	match	danser	5	1	y	0.51106
26.187999999999995	0.2	mkzvpfbs	4	verb	phrase	1	8	match	danser	5	1	y	0.51106
26.388200000000005	0.0	+	4	verb	phrase	1	9	match	danser	5	1	y	0.51106
26.788000000000004	0.2	danser	4	verb	phrase	1	10	match	danser	5	1	y	0.51106
26.987900000000003	0.0	+	4	verb	phrase	1	11	match	danser	5	1	y	0.51106
27.387899999999995	0.0	+	4	verb	phrase	1	12	match	danser	5	1	y	0.51106
29.387700000000002	0.0	DANSER	4	verb	phrase	1	13	match	danser	5	1	y	0.51106
29.954299999999996	0.0	+	4	verb	phrase	1	14	match	danser	5	1	y	0.51106
29.8988	0.0	[response]	4	verb	phrase	1	15	match	danser	5	1	y	0.51106
31.7875	0.0	+	5	noun	list	1	1	match	grenier	5	1	y	0.60377
32.3375	0.2	qszg	5	noun	list	1	2	match	grenier	5	1	y	0.60377
32.5374	0.0	+	5	noun	list	1	3	match	grenier	5	1	y	0.60377
32.937400000000004	0.2	scjw	5	noun	list	1	4	match	grenier	5	1	y	0.60377
33.13740000000001	0.0	+	5	noun	list	1	5	match	grenier	5	1	y	0.60377
33.5374	0.2	tpgs	5	noun	list	1	6	match	grenier	5	1	y	0.60377
33.7373	0.0	+	5	noun	list	1	7	match	grenier	5	1	y	0.60377
34.1373	0.2	lsgz	5	noun	list	1	8	match	grenier	5	1	y	0.60377
34.337300000000006	0.0	+	5	noun	list	1	9	match	grenier	5	1	y	0.60377
34.737199999999994	0.2	grenier	5	noun	list	1	10	match	grenier	5	1	y	0.60377
34.9372	0.0	+	5	noun	list	1	11	match	grenier	5	1	y	0.60377
35.3372	0.0	+	5	noun	list	1	12	match	grenier	5	1	y	0.60377
37.336999999999996	0.0	GRENIER	5	noun	list	1	13	match	grenier	5	1	y	0.60377
38.0036	0.0	+	5	noun	list	1	14	match	grenier	5	1	y	0.60377
37.9408	0.0	[response]	5	noun	list	1	15	match	grenier	5	1	y	0.60377
39.736799999999995	0.0	+	6	verb	list	4	1	match	beau	4	1	y	1.0145
40.28680000000001	0.2	dlpkcr	6	verb	list	4	2	match	beau	4	1	y	1.0145
40.486700000000006	0.0	+	6	verb	list	4	3	match	beau	4	1	y	1.0145
40.8867	0.2	avec	6	verb	list	4	4	match	beau	4	1	y	1.0145
41.0867	0.0	+	6	verb	list	4	5	match	beau	4	1	y	1.0145
41.4866	0.2	peut	6	verb	list	4	6	match	beau	4	1	y	1.0145
41.686600000000006	0.0	+	6	verb	list	4	7	match	beau	4	1	y	1.0145
42.0866	0.2	beau	6	verb	list	4	8	match	beau	4	1	y	1.0145
42.2866	0.0	+	6	verb	list	4	9	match	beau	4	1	y	1.0145
42.6872	0.2	voyager	6	verb	list	4	10	match	beau	4	1	y	1.0145
42.886500000000005	0.0	+	6	verb	list	4	11	match	beau	4	1	y	1.0145
43.2865	0.0	+	6	verb	list	4	12	match	beau	4	1	y	1.0145
45.286300000000004	0.0	BEAU	6	verb	list	4	13	match	beau	4	1	y	1.0145
46.369499999999995	0.0	+	6	verb	list	4	14	match	beau	4	1	y	1.0145
46.3008	0.0	[response]	6	verb	list	4	15	match	beau	4	1	y	1.0145
47.6861	0.0	+	7	noun	list	1	1	match	panier	5	1	y	0.74916
48.236	0.2	czkx	7	noun	list	1	2	match	panier	5	1	y	0.74916
48.436	0.0	+	7	noun	list	1	3	match	panier	5	1	y	0.74916
48.836000000000006	0.2	wcbs	7	noun	list	1	4	match	panier	5	1	y	0.74916
49.035999999999994	0.0	+	7	noun	list	1	5	match	panier	5	1	y	0.74916
49.4359	0.2	cn	7	noun	list	1	6	match	panier	5	1	y	0.74916
49.6359	0.0	+	7	noun	list	1	7	match	panier	5	1	y	0.74916
50.035900000000005	0.2	npkx	7	noun	list	1	8	match	panier	5	1	y	0.74916
50.235899999999994	0.0	+	7	noun	list	1	9	match	panier	5	1	y	0.74916
50.635799999999996	0.2	panier	7	noun	list	1	10	match	panier	5	1	y	0.74916
50.8358	0.0	+	7	noun	list	1	11	match	panier	5	1	y	0.74916
51.235800000000005	0.0	+	7	noun	list	1	12	match	panier	5	1	y	0.74916
53.2356	0.0	PANIER	7	noun	list	1	13	match	panier	5	1	y	0.74916
54.052200000000006	0.0	+	7	noun	list	1	14	match	panier	5	1	y	0.74916
53.9847	0.0	[response]	7	noun	list	1	15	match	panier	5	1	y	0.74916
55.6354	0.0	+	8	noun	list	1	1	match	plus	5	1	y	0.8874
56.185300000000005	0.2	mvhnzcf	8	noun	list	1	2	match	plus	5	1	y	0.8874
56.385299999999994	0.0	+	8	noun	list	1	3	match	plus	5	1	y	0.8874
56.7853	0.2	wvln	8	noun	list	1	4	match	plus	5	1	y	0.8874
56.9852	0.0	+	8	noun	list	1	5	match	plus	5	1	y	0.8874
57.385200000000005	0.2	rbh	8	noun	list	1	6	match	plus	5	1	y	0.8874
57.58519999999999	0.0	+	8	noun	list	1	7	match	plus	5	1	y	0.8874
57.9852	0.2	bxlqtjp	8	noun	list	1	8	match	plus	5	1	y	0.8874
58.1851	0.0	+	8	noun	list	1	9	match	plus	5	1	y	0.8874
58.585100000000004	0.2	plus	8	noun	list	1	10	match	plus	5	1	y	0.8874
58.78509999999999	0.0	+	8	noun	list	1	11	match	plus	5	1	y	0.8874
59.184999999999995	0.0	+	8	noun	list	1	12	match	plus	5	1	y	0.8874
61.184900000000006	0.0	PLUS	8	noun	list	1	13	match	plus	5	1	y	0.8874
62.134800000000006	0.0	+	8	noun	list	1	14	match	plus	5	1	y	0.8874
62.072300000000006	0.0	[response]	8	noun	list	1	15	match	plus	5	1	y	0.8874
63.6013	0.0	+	9	noun	phrase	4	1	nomatch	rocher	-1	1	p	0.73787
64.15129999999999	0.2	bcdmsw	9	noun	phrase	4	2	nomatch	rocher	-1	1	p	0.73787
64.35130000000001	0.0	+	9	noun	phrase	4	3	nomatch	rocher	-1	1	p	0.73787
64.75120000000001	0.2	vers	9	noun	phrase	4	4	nomatch	rocher	-1	1	p	0.73787
64.9512	0.0	+	9	noun	phrase	4	5	nomatch	rocher	-1	1	p	0.73787
65.3512	0.2	son	9	noun	phrase	4	6	nomatch	rocher	-1	1	p	0.73787
65.55260000000001	0.0	+	9	noun	phrase	4	7	nomatch	rocher	-1	1	p	0.73787
65.9511	0.2	petit	9	noun	phrase	4	8	nomatch	rocher	-1	1	p	0.73787
66.15110000000001	0.0	+	9	noun	phrase	4	9	nomatch	rocher	-1	1	p	0.73787
66.55109999999999	0.2	tablier	9	noun	phrase	4	10	nomatch	rocher	-1	1	p	0.73787
66.751	0.0	+	9	noun	phrase	4	11	nomatch	rocher	-1	1	p	0.73787
67.15100000000001	0.0	+	9	noun	phrase	4	12	nomatch	rocher	-1	1	p	0.73787
69.1508	0.0	ROCHER	9	noun	phrase	4	13	nomatch	rocher	-1	1	p	0.73787
69.95070000000001	0.0	+	9	noun	phrase	4	14	nomatch	rocher	-1	1	p	0.73787
69.8887	0.0	[response]	9	noun	phrase	4	15	nomatch	rocher	-1	1	p	0.73787
71.5506	0.0	+	10	noun	list	2	1	nomatch	tôt	-1	1	p	1.4183
72.10060000000001	0.2	vlcth	10	noun	list	2	2	nomatch	tôt	-1	1	p	1.4183
72.3005	0.0	+	10	noun	list	2	3	nomatch	tôt	-1	1	p	1.4183
72.7005	0.2	xrfg	10	noun	list	2	4	nomatch	tôt	-1	1	p	1.4183
72.9005	0.0	+	10	noun	list	2	5	nomatch	tôt	-1	1	p	1.4183
73.3004	0.2	cn	10	noun	list	2	6	nomatch	tôt	-1	1	p	1.4183
73.50040000000001	0.0	+	10	noun	list	2	7	nomatch	tôt	-1	1	p	1.4183
73.90040000000002	0.2	casier	10	noun	list	2	8	nomatch	tôt	-1	1	p	1.4183
74.10040000000001	0.0	+	10	noun	list	2	9	nomatch	tôt	-1	1	p	1.4183
74.50030000000001	0.2	loin	10	noun	list	2	10	nomatch	tôt	-1	1	p	1.4183
74.7003	0.0	+	10	noun	list	2	11	nomatch	tôt	-1	1	p	1.4183
75.1003	0.0	+	10	noun	list	2	12	nomatch	tôt	-1	1	p	1.4183
77.1001	0.0	TÔT	10	noun	list	2	13	nomatch	tôt	-1	1	p	1.4183
78.58330000000001	0.0	+	10	noun	list	2	14	nomatch	tôt	-1	1	p	1.4183
78.51840000000001	0.0	[response]	10	noun	list	2	15	nomatch	tôt	-1	1	p	1.4183
79.4999	0.0	+	11	verb	list	1	1	match	plonger	5	1	y	0.69234
80.0498	0.2	njwrts	11	verb	list	1	2	match	plonger	5	1	y	0.69234
80.2498	0.0	+	11	verb	list	1	3	match	plonger	5	1	y	0.69234
80.6498	0.2	dmgj	11	verb	list	1	4	match	plonger	5	1	y	0.69234
80.84980000000002	0.0	+	11	verb	list	1	5	match	plonger	5	1	y	0.69234
81.24970000000002	0.2	vft	11	verb	list	1	6	match	plonger	5	1	y	0.69234
81.4497	0.0	+	11	verb	list	1	7	match	plonger	5	1	y	0.69234
81.84970000000001	0.2	fhrs	11	verb	list	1	8	match	plonger	5	1	y	0.69234
82.0497	0.0	+	11	verb	list	1	9	match	plonger	5	1	y	0.69234
82.4496	0.2	plonger	11	verb	list	1	10	match	plonger	5	1	y	0.69234
82.64960000000002	0.0	+	11	verb	list	1	11	match	plonger	5	1	y	0.69234
83.0496	0.0	+	11	verb	list	1	12	match	plonger	5	1	y	0.69234
85.04940000000002	0.0	PLONGER	11	verb	list	1	13	match	plonger	5	1	y	0.69234
85.79930000000002	0.0	+	11	verb	list	1	14	match	plonger	5	1	y	0.69234
85.74170000000001	0.0	[response]	11	verb	list	1	15	match	plonger	5	1	y	0.69234
87.44920000000002	0.0	+	12	verb	list	1	1	match	galoper	5	1	y	0.51927
87.9991	0.2	csh	12	verb	list	1	2	match	galoper	5	1	y	0.51927
88.19910000000002	0.0	+	12	verb	list	1	3	match	galoper	5	1	y	0.51927
88.59909999999999	0.2	qpnm	12	verb	list	1	4	match	galoper	5	1	y	0.51927
88.79910000000001	0.0	+	12	verb	list	1	5	match	galoper	5	1	y	0.51927
89.19900000000001	0.2	svhw	12	verb	list	1	6	match	galoper	5	1	y	0.51927
89.399	0.0	+	12	verb	list	1	7	match	galoper	5	1	y	0.51927
89.799	0.2	xdtrblp	12	verb	list	1	8	match	galoper	5	1	y	0.51927
89.99890000000002	0.0	+	12	verb	list	1	9	match	galoper	5	1	y	0.51927
90.3989	0.2	galoper	12	verb	list	1	10	match	galoper	5	1	y	0.51927
90.59890000000001	0.0	+	12	verb	list	1	11	match	galoper	5	1	y	0.51927
90.99880000000002	0.0	+	12	verb	list	1	12	match	galoper	5	1	y	0.51927
92.99870000000001	0.0	GALOPER	12	verb	list	1	13	match	galoper	5	1	y	0.51927
93.58190000000002	0.0	+	12	verb	list	1	14	match	galoper	5	1	y	0.51927
93.5179	0.0	[response]	12	verb	list	1	15	match	galoper	5	1	y	0.51927
95.39840000000001	0.0	+	13	noun	phrase	4	1	match	panier	4	1	y	0.6279
95.94840000000002	0.2	zdjlv	13	noun	phrase	4	2	match	panier	4	1	y	0.6279
96.14840000000001	0.0	+	13	noun	phrase	4	3	match	panier	4	1	y	0.6279
96.54830000000001	0.2	vers	13	noun	phrase	4	4	match	panier	4	1	y	0.6279
96.7483	0.0	+	13	noun	phrase	4	5	match	panier	4	1	y	0.6279
97.1483	0.2	mon	13	noun	phrase	4	6	match	panier	4	1	y	0.6279
97.3483	0.0	+	13	noun	phrase	4	7	match	panier	4	1	y	0.6279
97.7482	0.2	panier	13	noun	phrase	4	8	match	panier	4	1	y	0.6279
97.94820000000001	0.0	+	13	noun	phrase	4	9	match	panier	4	1	y	0.6279
98.34820000000002	0.2	noir	13	noun	phrase	4	10	match	panier	4	1	y	0.6279
98.54820000000001	0.0	+	13	noun	phrase	4	11	match	panier	4	1	y	0.6279
98.94810000000001	0.0	+	13	noun	phrase	4	12	match	panier	4	1	y	0.6279
100.94800000000001	0.0	PANIER	13	noun	phrase	4	13	match	panier	4	1	y	0.6279
101.6312	0.0	+	13	noun	phrase	4	14	match	panier	4	1	y	0.6279
101.57590000000002	0.0	[response]	13	noun	phrase	4	15	match	panier	4	1	y	0.6279
103.3477	0.0	+	14	verb	list	1	1	nomatch	jongler	-1	1	p	0.73256
103.89770000000001	0.2	vjtxfbd	14	verb	list	1	2	nomatch	jongler	-1	1	p	0.73256
104.0977	0.0	+	14	verb	list	1	3	nomatch	jongler	-1	1	p	0.73256
104.4976	0.2	vtwj	14	verb	list	1	4	nomatch	jongler	-1	1	p	0.73256
104.6976	0.0	+	14	verb	list	1	5	nomatch	jongler	-1	1	p	0.73256
105.0976	0.2	lgcv	14	verb	list	1	6	nomatch	jongler	-1	1	p	0.73256
105.29760000000002	0.0	+	14	verb	list	1	7	nomatch	jongler	-1	1	p	0.73256
105.69750000000002	0.2	mlxk	14	verb	list	1	8	nomatch	jongler	-1	1	p	0.73256
105.89750000000001	0.0	+	14	verb	list	1	9	nomatch	jongler	-1	1	p	0.73256
106.29750000000001	0.2	galoper	14	verb	list	1	10	nomatch	jongler	-1	1	p	0.73256
106.4975	0.0	+	14	verb	list	1	11	nomatch	jongler	-1	1	p	0.73256
106.8974	0.0	+	14	verb	list	1	12	nomatch	jongler	-1	1	p	0.73256
108.8972	0.0	JONGLER	14	verb	list	1	13	nomatch	jongler	-1	1	p	0.73256
109.69720000000001	0.0	+	14	verb	list	1	14	nomatch	jongler	-1	1	p	0.73256
109.62980000000002	0.0	[response]	14	verb	list	1	15	nomatch	jongler	-1	1	p	0.73256
111.297	0.0	+	15	noun	phrase	2	1	nomatch	panier	-1	1	p	1.557
111.84700000000001	0.2	ksnpz	15	noun	phrase	2	2	nomatch	panier	-1	1	p	1.557
112.0469	0.0	+	15	noun	phrase	2	3	nomatch	panier	-1	1	p	1.557
112.4469	0.2	kszh	15	noun	phrase	2	4	nomatch	panier	-1	1	p	1.557
112.64690000000002	0.0	+	15	noun	phrase	2	5	nomatch	panier	-1	1	p	1.557
113.0469	0.2	vft	15	noun	phrase	2	6	nomatch	panier	-1	1	p	1.557
113.24680000000001	0.0	+	15	noun	phrase	2	7	nomatch	panier	-1	1	p	1.557
113.64680000000001	0.2	grenier	15	noun	phrase	2	8	nomatch	panier	-1	1	p	1.557
113.8468	0.0	+	15	noun	phrase	2	9	nomatch	panier	-1	1	p	1.557
114.24680000000001	0.2	bleu	15	noun	phrase	2	10	nomatch	panier	-1	1	p	1.557
114.44669999999999	0.0	+	15	noun	phrase	2	11	nomatch	panier	-1	1	p	1.557
114.8467	0.0	+	15	noun	phrase	2	12	nomatch	panier	-1	1	p	1.557
116.84650000000002	0.0	PANIER	15	noun	phrase	2	13	nomatch	panier	-1	1	p	1.557
118.463	0.0	+	15	noun	phrase	2	14	nomatch	panier	-1	1	p	1.557
118.40350000000001	0.0	[response]	15	noun	phrase	2	15	nomatch	panier	-1	1	p	1.557
119.24630000000002	0.0	+	16	noun	phrase	4	1	nomatch	beau	-1	1	p	0.79518
119.7963	0.2	zcd	16	noun	phrase	4	2	nomatch	beau	-1	1	p	0.79518
119.99620000000002	0.0	+	16	noun	phrase	4	3	nomatch	beau	-1	1	p	0.79518
120.3962	0.2	sans	16	noun	phrase	4	4	nomatch	beau	-1	1	p	0.79518
120.59620000000001	0.0	+	16	noun	phrase	4	5	nomatch	beau	-1	1	p	0.79518
120.99610000000001	0.2	leur	16	noun	phrase	4	6	nomatch	beau	-1	1	p	0.79518
121.1961	0.0	+	16	noun	phrase	4	7	nomatch	beau	-1	1	p	0.79518
121.5961	0.2	vieux	16	noun	phrase	4	8	nomatch	beau	-1	1	p	0.79518
121.7961	0.0	+	16	noun	phrase	4	9	nomatch	beau	-1	1	p	0.79518
122.196	0.2	rocher	16	noun	phrase	4	10	nomatch	beau	-1	1	p	0.79518
122.39600000000002	0.0	+	16	noun	phrase	4	11	nomatch	beau	-1	1	p	0.79518
122.79600000000002	0.0	+	16	noun	phrase	4	12	nomatch	beau	-1	1	p	0.79518
124.79580000000001	0.0	BEAU	16	noun	phrase	4	13	nomatch	beau	-1	1	p	0.79518
125.6457	0.0	+	16	noun	phrase	4	14	nomatch	beau	-1	1	p	0.79518
125.59100000000001	0.0	[response]	16	noun	phrase	4	15	nomatch	beau	-1	1	p	0.79518
135.19490000000002	0.0	+	17	noun	list	2	1	match	tablier	5	1	y	1.0225
135.7448	0.2	vrfdc	17	noun	list	2	2	match	tablier	5	1	y	1.0225
135.94480000000001	0.0	+	17	noun	list	2	3	match	tablier	5	1	y	1.0225
136.34480000000002	0.2	mpdb	17	noun	list	2	4	match	tablier	5	1	y	1.0225
136.5447	0.0	+	17	noun	list	2	5	match	tablier	5	1	y	1.0225
136.9447	0.2	rbh	17	noun	list	2	6	match	tablier	5	1	y	1.0225
137.1447	0.0	+	17	noun	list	2	7	match	tablier	5	1	y	1.0225
137.5447	0.2	trop	17	noun	list	2	8	match	tablier	5	1	y	1.0225
137.74460000000002	0.0	+	17	noun	list	2	9	match	tablier	5	1	y	1.0225
138.1446	0.2	tablier	17	noun	list	2	10	match	tablier	5	1	y	1.0225
138.3446	0.0	+	17	noun	list	2	11	match	tablier	5	1	y	1.0225
138.74450000000002	0.0	+	17	noun	list	2	12	match	tablier	5	1	y	1.0225
140.7444	0.0	TABLIER	17	noun	list	2	13	match	tablier	5	1	y	1.0225
141.82760000000002	0.0	+	17	noun	list	2	14	match	tablier	5	1	y	1.0225
141.76690000000002	0.0	[response]	17	noun	list	2	15	match	tablier	5	1	y	1.0225
143.1441	0.0	+	18	noun	list	3	1	match	clavier	4	0	TIMEOUT	-1.0
143.69410000000002	0.2	mprlfj	18	noun	list	3	2	match	clavier	4	0	TIMEOUT	-1.0
143.8941	0.0	+	18	noun	list	3	3	match	clavier	4	0	TIMEOUT	-1.0
144.294	0.2	scjw	18	noun	list	3	4	match	clavier	4	0	TIMEOUT	-1.0
144.494	0.0	+	18	noun	list	3	5	match	clavier	4	0	TIMEOUT	-1.0
144.894	0.2	peut	18	noun	list	3	6	match	clavier	4	0	TIMEOUT	-1.0
145.094	0.0	+	18	noun	list	3	7	match	clavier	4	0	TIMEOUT	-1.0
145.4939	0.2	clavier	18	noun	list	3	8	match	clavier	4	0	TIMEOUT	-1.0
145.6939	0.0	+	18	noun	list	3	9	match	clavier	4	0	TIMEOUT	-1.0
146.09390000000002	0.2	ainsi	18	noun	list	3	10	match	clavier	4	0	TIMEOUT	-1.0
146.2939	0.0	+	18	noun	list	3	11	match	clavier	4	0	TIMEOUT	-1.0
146.6938	0.0	+	18	noun	list	3	12	match	clavier	4	0	TIMEOUT	-1.0
148.6936	0.0	CLAVIER	18	noun	list	3	13	match	clavier	4	0	TIMEOUT	-1.0
151.0934	0.0	+	19	verb	list	4	1	nomatch	va	-1	0	y	4.6614
151.6934	0.2	tqdblvw	19	verb	list	4	2	nomatch	va	-1	0	y	4.6614
151.8934	0.0	+	19	verb	list	4	3	nomatch	va	-1	0	y	4.6614
152.29330000000002	0.2	jade	19	verb	list	4	4	nomatch	va	-1	0	y	4.6614
152.4933	0.0	+	19	verb	list	4	5	nomatch	va	-1	0	y	4.6614
152.8933	0.2	leur	19	verb	list	4	6	nomatch	va	-1	0	y	4.6614
153.0932	0.0	+	19	verb	list	4	7	nomatch	va	-1	0	y	4.6614
153.4932	0.2	plonger	19	verb	list	4	8	nomatch	va	-1	0	y	4.6614
153.69320000000002	0.0	+	19	verb	list	4	9	nomatch	va	-1	0	y	4.6614
154.0932	0.2	bleu	19	verb	list	4	10	nomatch	va	-1	0	y	4.6614
154.2931	0.0	+	19	verb	list	4	11	nomatch	va	-1	0	y	4.6614
154.69310000000002	0.0	+	19	verb	list	4	12	nomatch	va	-1	0	y	4.6614
156.6929	0.0	VA	19	verb	list	4	13	nomatch	va	-1	0	y	4.6614
161.4092	0.0	+	19	verb	list	4	14	nomatch	va	-1	0	y	4.6614
161.3544	0.0	[response]	19	verb	list	4	15	nomatch	va	-1	0	y	4.6614
167.092	0.0	+	20	verb	list	3	1	match	doit	3	1	y	0.59082
167.64190000000002	0.2	qtzln	20	verb	list	3	2	match	doit	3	1	y	0.59082
167.8419	0.0	+	20	verb	list	3	3	match	doit	3	1	y	0.59082
168.24190000000002	0.2	xmv	20	verb	list	3	4	match	doit	3	1	y	0.59082
168.4419	0.0	+	20	verb	list	3	5	match	doit	3	1	y	0.59082
168.8418	0.2	doit	20	verb	list	3	6	match	doit	3	1	y	0.59082
169.0418	0.0	+	20	verb	list	3	7	match	doit	3	1	y	0.59082
169.4418	0.2	grand	20	verb	list	3	8	match	doit	3	1	y	0.59082
169.64180000000002	0.0	+	20	verb	list	3	9	match	doit	3	1	y	0.59082
170.04170000000002	0.2	voyager	20	verb	list	3	10	match	doit	3	1	y	0.59082
170.2417	0.0	+	20	verb	list	3	11	match	doit	3	1	y	0.59082
170.64170000000001	0.0	+	20	verb	list	3	12	match	doit	3	1	y	0.59082
172.6415	0.0	DOIT	20	verb	list	3	13	match	doit	3	1	y	0.59082
173.2914	0.0	+	20	verb	list	3	14	match	doit	3	1	y	0.59082
173.2323	0.0	[response]	20	verb	list	3	15	match	doit	3	1	y	0.59082
175.0413	0.0	+	21	noun	list	1	1	nomatch	tablier	-1	1	p	1.7833000000000003
175.59120000000001	0.2	rtld	21	noun	list	1	2	nomatch	tablier	-1	1	p	1.7833000000000003
175.7912	0.0	+	21	noun	list	1	3	nomatch	tablier	-1	1	p	1.7833000000000003
176.1912	0.2	jkhs	21	noun	list	1	4	nomatch	tablier	-1	1	p	1.7833000000000003
176.3911	0.0	+	21	noun	list	1	5	nomatch	tablier	-1	1	p	1.7833000000000003
176.7911	0.2	cn	21	noun	list	1	6	nomatch	tablier	-1	1	p	1.7833000000000003
176.99110000000002	0.0	+	21	noun	list	1	7	nomatch	tablier	-1	1	p	1.7833000000000003
177.3911	0.2	lcvhfq	21	noun	list	1	8	nomatch	tablier	-1	1	p	1.7833000000000003
177.591	0.0	+	21	noun	list	1	9	nomatch	tablier	-1	1	p	1.7833000000000003
177.991	0.2	tôt	21	noun	list	1	10	nomatch	tablier	-1	1	p	1.7833000000000003
178.191	0.0	+	21	noun	list	1	11	nomatch	tablier	-1	1	p	1.7833000000000003
178.591	0.0	+	21	noun	list	1	12	nomatch	tablier	-1	1	p	1.7833000000000003
180.5908	0.0	TABLIER	21	noun	list	1	13	nomatch	tablier	-1	1	p	1.7833000000000003
182.44060000000002	0.0	+	21	noun	list	1	14	nomatch	tablier	-1	1	p	1.7833000000000003
182.374	0.0	[response]	21	noun	list	1	15	nomatch	tablier	-1	1	p	1.7833000000000003
182.9905	0.0	+	22	verb	list	2	1	nomatch	peut	-1	1	p	1.2257
183.5405	0.2	xfktd	22	verb	list	2	2	nomatch	peut	-1	1	p	1.2257
183.7405	0.0	+	22	verb	list	2	3	nomatch	peut	-1	1	p	1.2257
184.1404	0.2	vtwj	22	verb	list	2	4	nomatch	peut	-1	1	p	1.2257
184.34040000000002	0.0	+	22	verb	list	2	5	nomatch	peut	-1	1	p	1.2257
184.7404	0.2	lgcv	22	verb	list	2	6	nomatch	peut	-1	1	p	1.2257
184.9404	0.0	+	22	verb	list	2	7	nomatch	peut	-1	1	p	1.2257
185.3403	0.2	danser	22	verb	list	2	8	nomatch	peut	-1	1	p	1.2257
185.5403	0.0	+	22	verb	list	2	9	nomatch	peut	-1	1	p	1.2257
185.9403	0.2	rouge	22	verb	list	2	10	nomatch	peut	-1	1	p	1.2257
186.1403	0.0	+	22	verb	list	2	11	nomatch	peut	-1	1	p	1.2257
186.5402	0.0	+	22	verb	list	2	12	nomatch	peut	-1	1	p	1.2257
188.54000000000002	0.0	PEUT	22	verb	list	2	13	nomatch	peut	-1	1	p	1.2257
189.82330000000002	0.0	+	22	verb	list	2	14	nomatch	peut	-1	1	p	1.2257
189.7657	0.0	[response]	22	verb	list	2	15	nomatch	peut	-1	1	p	1.2257
198.93910000000002	0.0	+	23	noun	phrase	2	1	nomatch	plus	-1	1	p	1.0768
199.48909999999998	0.2	wczkq	23	noun	phrase	2	2	nomatch	plus	-1	1	p	1.0768
199.689	0.0	+	23	noun	phrase	2	3	nomatch	plus	-1	1	p	1.0768
200.08900000000003	0.2	wcbs	23	noun	phrase	2	4	nomatch	plus	-1	1	p	1.0768
200.28900000000002	0.0	+	23	noun	phrase	2	5	nomatch	plus	-1	1	p	1.0768
200.689	0.2	rbh	23	noun	phrase	2	6	nomatch	plus	-1	1	p	1.0768
200.8889	0.0	+	23	noun	phrase	2	7	nomatch	plus	-1	1	p	1.0768
201.28889999999998	0.2	petit	23	noun	phrase	2	8	nomatch	plus	-1	1	p	1.0768
201.48890000000003	0.0	+	23	noun	phrase	2	9	nomatch	plus	-1	1	p	1.0768
201.88880000000003	0.2	rocher	23	noun	phrase	2	10	nomatch	plus	-1	1	p	1.0768
202.08880000000002	0.0	+	23	noun	phrase	2	11	nomatch	plus	-1	1	p	1.0768
202.4888	0.0	+	23	noun	phrase	2	12	nomatch	plus	-1	1	p	1.0768
204.4886	0.0	PLUS	23	noun	phrase	2	13	nomatch	plus	-1	1	p	1.0768
205.62179999999998	0.0	+	23	noun	phrase	2	14	nomatch	plus	-1	1	p	1.0768
205.56550000000001	0.0	[response]	23	noun	phrase	2	15	nomatch	plus	-1	1	p	1.0768
214.88770000000002	0.0	+	24	verb	list	1	1	nomatch	voyager	-1	0	y	11.6456
215.4376	0.2	jvxhwz	24	verb	list	1	2	nomatch	voyager	-1	0	y	11.6456
215.6376	0.0	+	24	verb	list	1	3	nomatch	voyager	-1	0	y	11.6456
216.03760000000003	0.2	rmkt	24	verb	list	1	4	nomatch	voyager	-1	0	y	11.6456
216.23749999999998	0.0	+	24	verb	list	1	5	nomatch	voyager	-1	0	y	11.6456
216.63750000000002	0.2	lgcv	24	verb	list	1	6	nomatch	voyager	-1	0	y	11.6456
216.8375	0.0	+	24	verb	list	1	7	nomatch	voyager	-1	0	y	11.6456
217.23749999999998	0.2	mlxk	24	verb	list	1	8	nomatch	voyager	-1	0	y	11.6456
217.4374	0.0	+	24	verb	list	1	9	nomatch	voyager	-1	0	y	11.6456
217.83740000000003	0.2	chasser	24	verb	list	1	10	nomatch	voyager	-1	0	y	11.6456
218.03740000000002	0.0	+	24	verb	list	1	11	nomatch	voyager	-1	0	y	11.6456
218.4374	0.0	+	24	verb	list	1	12	nomatch	voyager	-1	0	y	11.6456
220.4372	0.0	VOYAGER	24	verb	list	1	13	nomatch	voyager	-1	0	y	11.6456
232.15279999999998	0.0	+	24	verb	list	1	14	nomatch	voyager	-1	0	y	11.6456
232.08270000000002	0.0	[response]	24	verb	list	1	15	nomatch	voyager	-1	0	y	11.6456
238.8355	0.0	+	25	noun	list	2	1	match	panier	5	0	p	0.93771
239.3855	0.2	wnvbrl	25	noun	list	2	2	match	panier	5	0	p	0.93771
239.58540000000002	0.0	+	25	noun	list	2	3	match	panier	5	0	p	0.93771
239.9854	0.2	wvln	25	noun	list	2	4	match	panier	5	0	p	0.93771
240.1854	0.0	+	25	noun	list	2	5	match	panier	5	0	p	0.93771
240.58540000000002	0.2	rbh	25	noun	list	2	6	match	panier	5	0	p	0.93771
240.78530000000003	0.0	+	25	noun	list	2	7	match	panier	5	0	p	0.93771
241.1853	0.2	mieux	25	noun	list	2	8	match	panier	5	0	p	0.93771
241.3853	0.0	+	25	noun	list	2	9	match	panier	5	0	p	0.93771
241.7852	0.2	panier	25	noun	list	2	10	match	panier	5	0	p	0.93771
241.9852	0.0	+	25	noun	list	2	11	match	panier	5	0	p	0.93771
242.38520000000003	0.0	+	25	noun	list	2	12	match	panier	5	0	p	0.93771
244.38500000000002	0.0	PANIER	25	noun	list	2	13	match	panier	5	0	p	0.93771
245.3849	0.0	+	25	noun	list	2	14	match	panier	5	0	p	0.93771
245.32270000000003	0.0	[response]	25	noun	list	2	15	match	panier	5	0	p	0.93771
246.8015	0.0	+	26	noun	phrase	2	1	match	petit	4	0	TIMEOUT	-1.0
247.35139999999998	0.2	vjgc	26	noun	phrase	2	2	match	petit	4	0	TIMEOUT	-1.0
247.5526	0.0	+	26	noun	phrase	2	3	match	petit	4	0	TIMEOUT	-1.0
247.9514	0.2	scjw	26	noun	phrase	2	4	match	petit	4	0	TIMEOUT	-1.0
248.15130000000002	0.0	+	26	noun	phrase	2	5	match	petit	4	0	TIMEOUT	-1.0
248.5513	0.2	lgcv	26	noun	phrase	2	6	match	petit	4	0	TIMEOUT	-1.0
248.7513	0.0	+	26	noun	phrase	2	7	match	petit	4	0	TIMEOUT	-1.0
249.1512	0.2	petit	26	noun	phrase	2	8	match	petit	4	0	TIMEOUT	-1.0
249.35120000000003	0.0	+	26	noun	phrase	2	9	match	petit	4	0	TIMEOUT	-1.0
249.7512	0.2	casier	26	noun	phrase	2	10	match	petit	4	0	TIMEOUT	-1.0
249.9512	0.0	+	26	noun	phrase	2	11	match	petit	4	0	TIMEOUT	-1.0
250.3511	0.0	+	26	noun	phrase	2	12	match	petit	4	0	TIMEOUT	-1.0
252.35100000000003	0.0	PETIT	26	noun	phrase	2	13	match	petit	4	0	TIMEOUT	-1.0
254.75070000000002	0.0	+	27	verb	phrase	1	1	nomatch	loin	-1	0	TIMEOUT	-1.0
255.3507	0.2	bwcd	27	verb	phrase	1	2	nomatch	loin	-1	0	TIMEOUT	-1.0
255.55070000000003	0.0	+	27	verb	phrase	1	3	nomatch	loin	-1	0	TIMEOUT	-1.0
255.95059999999998	0.2	cvq	27	verb	phrase	1	4	nomatch	loin	-1	0	TIMEOUT	-1.0
256.1506	0.0	+	27	verb	phrase	1	5	nomatch	loin	-1	0	TIMEOUT	-1.0
256.5506	0.2	svhw	27	verb	phrase	1	6	nomatch	loin	-1	0	TIMEOUT	-1.0
256.75059999999996	0.0	+	27	verb	phrase	1	7	nomatch	loin	-1	0	TIMEOUT	-1.0
257.15049999999997	0.2	cdlkjtx	27	verb	phrase	1	8	nomatch	loin	-1	0	TIMEOUT	-1.0
257.35049999999995	0.0	+	27	verb	phrase	1	9	nomatch	loin	-1	0	TIMEOUT	-1.0
257.7505	0.2	tard	27	verb	phrase	1	10	nomatch	loin	-1	0	TIMEOUT	-1.0
257.9505	0.0	+	27	verb	phrase	1	11	nomatch	loin	-1	0	TIMEOUT	-1.0
258.3504	0.0	+	27	verb	phrase	1	12	nomatch	loin	-1	0	TIMEOUT	-1.0
260.3502	0.0	LOIN	27	verb	phrase	1	13	nomatch	loin	-1	0	TIMEOUT	-1.0
262.75	0.0	+	28	noun	phrase	3	1	match	vieux	4	1	y	0.62219
263.34999999999997	0.2	kjp	28	noun	phrase	3	2	match	vieux	4	1	y	0.62219
263.54999999999995	0.0	+	28	noun	phrase	3	3	match	vieux	4	1	y	0.62219
263.94989999999996	0.2	qpnm	28	noun	phrase	3	4	match	vieux	4	1	y	0.62219
264.1499	0.0	+	28	noun	phrase	3	5	match	vieux	4	1	y	0.62219
264.5499	0.2	leur	28	noun	phrase	3	6	match	vieux	4	1	y	0.62219
264.7498	0.0	+	28	noun	phrase	3	7	match	vieux	4	1	y	0.62219
265.14979999999997	0.2	vieux	28	noun	phrase	3	8	match	vieux	4	1	y	0.62219
265.34979999999996	0.0	+	28	noun	phrase	3	9	match	vieux	4	1	y	0.62219
265.74969999999996	0.2	voilier	28	noun	phrase	3	10	match	vieux	4	1	y	0.62219
265.94969999999995	0.0	+	28	noun	phrase	3	11	match	vieux	4	1	y	0.62219
266.3497	0.0	+	28	noun	phrase	3	12	match	vieux	4	1	y	0.62219
268.3495	0.0	VIEUX	28	noun	phrase	3	13	match	vieux	4	1	y	0.62219
269.03279999999995	0.0	+	28	noun	phrase	3	14	match	vieux	4	1	y	0.62219
268.9717	0.0	[response]	28	noun	phrase	3	15	match	vieux	4	1	y	0.62219
270.7493	0.0	+	29	noun	phrase	4	1	nomatch	plonger	-1	1	p	2.3312
271.2992	0.2	mrk	29	noun	phrase	4	2	nomatch	plonger	-1	1	p	2.3312
271.4992	0.0	+	29	noun	phrase	4	3	nomatch	plonger	-1	1	p	2.3312
271.89919999999995	0.2	sous	29	noun	phrase	4	4	nomatch	plonger	-1	1	p	2.3312
272.0992	0.0	+	29	noun	phrase	4	5	nomatch	plonger	-1	1	p	2.3312
272.4991	0.2	mon	29	noun	phrase	4	6	nomatch	plonger	-1	1	p	2.3312
272.6991	0.0	+	29	noun	phrase	4	7	nomatch	plonger	-1	1	p	2.3312
273.09909999999996	0.2	beau	29	noun	phrase	4	8	nomatch	plonger	-1	1	p	2.3312
273.29909999999995	0.0	+	29	noun	phrase	4	9	nomatch	plonger	-1	1	p	2.3312
273.69899999999996	0.2	clavier	29	noun	phrase	4	10	nomatch	plonger	-1	1	p	2.3312
273.899	0.0	+	29	noun	phrase	4	11	nomatch	plonger	-1	1	p	2.3312
274.299	0.0	+	29	noun	phrase	4	12	nomatch	plonger	-1	1	p	2.3312
276.29879999999997	0.0	PLONGER	29	noun	phrase	4	13	nomatch	plonger	-1	1	p	2.3312
278.6986	0.0	+	29	noun	phrase	4	14	nomatch	plonger	-1	1	p	2.3312
278.63	0.0	[response]	29	noun	phrase	4	15	nomatch	plonger	-1	1	p	2.3312
278.7652	0.0	+	30	verb	phrase	2	1	nomatch	son	-1	0	y	1.0796
279.2485	0.2	xbs	30	verb	phrase	2	2	nomatch	son	-1	0	y	1.0796
279.44849999999997	0.0	+	30	verb	phrase	2	3	nomatch	son	-1	0	y	1.0796
279.8485	0.2	dmgj	30	verb	phrase	2	4	nomatch	son	-1	0	y	1.0796
280.0485	0.0	+	30	verb	phrase	2	5	nomatch	son	-1	0	y	1.0796
280.4484	0.2	cn	30	verb	phrase	2	6	nomatch	son	-1	0	y	1.0796
280.6484	0.0	+	30	verb	phrase	2	7	nomatch	son	-1	0	y	1.0796
281.04839999999996	0.2	nager	30	verb	phrase	2	8	nomatch	son	-1	0	y	1.0796
281.2483	0.0	+	30	verb	phrase	2	9	nomatch	son	-1	0	y	1.0796
281.6483	0.2	tôt	30	verb	phrase	2	10	nomatch	son	-1	0	y	1.0796
281.8483	0.0	+	30	verb	phrase	2	11	nomatch	son	-1	0	y	1.0796
282.2483	0.0	+	30	verb	phrase	2	12	nomatch	son	-1	0	y	1.0796
284.24809999999997	0.0	SON	30	verb	phrase	2	13	nomatch	son	-1	0	y	1.0796
285.39799999999997	0.0	+	30	verb	phrase	2	14	nomatch	son	-1	0	y	1.0796
285.3277	0.0	[response]	30	verb	phrase	2	15	nomatch	son	-1	0	y	1.0796
294.64709999999997	0.0	+	31	verb	phrase	4	1	match	moins	4	0	TIMEOUT	-1.0
295.1971	0.2	sxk	31	verb	phrase	4	2	match	moins	4	0	TIMEOUT	-1.0
295.39709999999997	0.0	+	31	verb	phrase	4	3	match	moins	4	0	TIMEOUT	-1.0
295.79699999999997	0.2	marc	31	verb	phrase	4	4	match	moins	4	0	TIMEOUT	-1.0
295.99699999999996	0.0	+	31	verb	phrase	4	5	match	moins	4	0	TIMEOUT	-1.0
296.397	0.2	va	31	verb	phrase	4	6	match	moins	4	0	TIMEOUT	-1.0
296.597	0.0	+	31	verb	phrase	4	7	match	moins	4	0	TIMEOUT	-1.0
296.9969	0.2	moins	31	verb	phrase	4	8	match	moins	4	0	TIMEOUT	-1.0
297.19689999999997	0.0	+	31	verb	phrase	4	9	match	moins	4	0	TIMEOUT	-1.0
297.5969	0.2	galoper	31	verb	phrase	4	10	match	moins	4	0	TIMEOUT	-1.0
297.7969	0.0	+	31	verb	phrase	4	11	match	moins	4	0	TIMEOUT	-1.0
298.1968	0.0	+	31	verb	phrase	4	12	match	moins	4	0	TIMEOUT	-1.0
300.1966	0.0	MOINS	31	verb	phrase	4	13	match	moins	4	0	TIMEOUT	-1.0
302.59639999999996	0.0	+	32	noun	phrase	1	1	nomatch	noir	-1	0	TIMEOUT	-1.0
303.1964	0.2	mhr	32	noun	phrase	1	2	nomatch	noir	-1	0	TIMEOUT	-1.0
303.3963	0.0	+	32	noun	phrase	1	3	nomatch	noir	-1	0	TIMEOUT	-1.0
303.7963	0.2	scjw	32	noun	phrase	1	4	nomatch	noir	-1	0	TIMEOUT	-1.0
303.99629999999996	0.0	+	32	noun	phrase	1	5	nomatch	noir	-1	0	TIMEOUT	-1.0
304.3963	0.2	rbh	32	noun	phrase	1	6	nomatch	noir	-1	0	TIMEOUT	-1.0
304.59619999999995	0.0	+	32	noun	phrase	1	7	nomatch	noir	-1	0	TIMEOUT	-1.0
304.9962	0.2	wxnmf	32	noun	phrase	1	8	nomatch	noir	-1	0	TIMEOUT	-1.0
305.1962	0.0	+	32	noun	phrase	1	9	nomatch	noir	-1	0	TIMEOUT	-1.0
305.59619999999995	0.2	cendrier	32	noun	phrase	1	10	nomatch	noir	-1	0	TIMEOUT	-1.0
305.79609999999997	0.0	+	32	noun	phrase	1	11	nomatch	noir	-1	0	TIMEOUT	-1.0
306.1961	0.0	+	32	noun	phrase	1	12	nomatch	noir	-1	0	TIMEOUT	-1.0
308.1959	0.0	NOIR	32	noun	phrase	1	13	nomatch	noir	-1	0	TIMEOUT	-1.0
310.59569999999997	0.0	+	33	noun	list	4	1	nomatch	petit	-1	0	TIMEOUT	-1.0
311.19559999999996	0.2	hlgzd	33	noun	list	4	2	nomatch	petit	-1	0	TIMEOUT	-1.0
311.3956	0.0	+	33	noun	list	4	3	nomatch	petit	-1	0	TIMEOUT	-1.0
311.7956	0.2	vers	33	noun	list	4	4	nomatch	petit	-1	0	TIMEOUT	-1.0
311.99559999999997	0.0	+	33	noun	list	4	5	nomatch	petit	-1	0	TIMEOUT	-1.0
312.39549999999997	0.2	va	33	noun	list	4	6	nomatch	petit	-1	0	TIMEOUT	-1.0
312.59549999999996	0.0	+	33	noun	list	4	7	nomatch	petit	-1	0	TIMEOUT	-1.0
312.9955	0.2	panier	33	noun	list	4	8	nomatch	petit	-1	0	TIMEOUT	-1.0
313.1955	0.0	+	33	noun	list	4	9	nomatch	petit	-1	0	TIMEOUT	-1.0
313.5954	0.2	tôt	33	noun	list	4	10	nomatch	petit	-1	0	TIMEOUT	-1.0
313.7954	0.0	+	33	noun	list	4	11	nomatch	petit	-1	0	TIMEOUT	-1.0
314.1954	0.0	+	33	noun	list	4	12	nomatch	petit	-1	0	TIMEOUT	-1.0
316.1952	0.0	PETIT	33	noun	list	4	13	nomatch	petit	-1	0	TIMEOUT	-1.0
318.59499999999997	0.0	+	34	noun	phrase	2	1	nomatch	rocher	-1	0	TIMEOUT	-1.0
319.19489999999996	0.2	wrgqp	34	noun	phrase	2	2	nomatch	rocher	-1	0	TIMEOUT	-1.0
319.39489999999995	0.0	+	34	noun	phrase	2	3	nomatch	rocher	-1	0	TIMEOUT	-1.0
319.7949	0.2	jkhs	34	noun	phrase	2	4	nomatch	rocher	-1	0	TIMEOUT	-1.0
319.9948	0.0	+	34	noun	phrase	2	5	nomatch	rocher	-1	0	TIMEOUT	-1.0
320.3948	0.2	vft	34	noun	phrase	2	6	nomatch	rocher	-1	0	TIMEOUT	-1.0
320.59479999999996	0.0	+	34	noun	phrase	2	7	nomatch	rocher	-1	0	TIMEOUT	-1.0
320.9948	0.2	voilier	34	noun	phrase	2	8	nomatch	rocher	-1	0	TIMEOUT	-1.0
321.19469999999995	0.0	+	34	noun	phrase	2	9	nomatch	rocher	-1	0	TIMEOUT	-1.0
321.5947	0.2	blanc	34	noun	phrase	2	10	nomatch	rocher	-1	0	TIMEOUT	-1.0
321.7947	0.0	+	34	noun	phrase	2	11	nomatch	rocher	-1	0	TIMEOUT	-1.0
322.19469999999995	0.0	+	34	noun	phrase	2	12	nomatch	rocher	-1	0	TIMEOUT	-1.0
324.1945	0.0	ROCHER	34	noun	phrase	2	13	nomatch	rocher	-1	0	TIMEOUT	-1.0
326.5942	0.0	+	35	verb	list	3	1	nomatch	peut	-1	0	TIMEOUT	-1.0
327.19419999999997	0.2	bjqpzs	35	verb	list	3	2	nomatch	peut	-1	0	TIMEOUT	-1.0
327.39419999999996	0.0	+	35	verb	list	3	3	nomatch	peut	-1	0	TIMEOUT	-1.0
327.79409999999996	0.2	wcbs	35	verb	list	3	4	nomatch	peut	-1	0	TIMEOUT	-1.0
327.9941	0.0	+	35	verb	list	3	5	nomatch	peut	-1	0	TIMEOUT	-1.0
328.3941	0.2	va	35	verb	list	3	6	nomatch	peut	-1	0	TIMEOUT	-1.0
328.59409999999997	0.0	+	35	verb	list	3	7	nomatch	peut	-1	0	TIMEOUT	-1.0
328.99399999999997	0.2	grand	35	verb	list	3	8	nomatch	peut	-1	0	TIMEOUT	-1.0
329.19399999999996	0.0	+	35	verb	list	3	9	nomatch	peut	-1	0	TIMEOUT	-1.0
329.594	0.2	chasser	35	verb	list	3	10	nomatch	peut	-1	0	TIMEOUT	-1.0
329.794	0.0	+	35	verb	list	3	11	nomatch	peut	-1	0	TIMEOUT	-1.0
330.1939	0.0	+	35	verb	list	3	12	nomatch	peut	-1	0	TIMEOUT	-1.0
332.1937	0.0	PEUT	35	verb	list	3	13	nomatch	peut	-1	0	TIMEOUT	-1.0
342.59279999999995	0.0	+	36	verb	list	1	1	nomatch	moins	-1	0	TIMEOUT	-1.0
343.1928	0.2	pwj	36	verb	list	1	2	nomatch	moins	-1	0	TIMEOUT	-1.0
343.3927	0.0	+	36	verb	list	1	3	nomatch	moins	-1	0	TIMEOUT	-1.0
343.79269999999997	0.2	kszh	36	verb	list	1	4	nomatch	moins	-1	0	TIMEOUT	-1.0
343.99269999999996	0.0	+	36	verb	list	1	5	nomatch	moins	-1	0	TIMEOUT	-1.0
344.39259999999996	0.2	svhw	36	verb	list	1	6	nomatch	moins	-1	0	TIMEOUT	-1.0
344.5926	0.0	+	36	verb	list	1	7	nomatch	moins	-1	0	TIMEOUT	-1.0
344.9926	0.2	jfqtwdc	36	verb	list	1	8	nomatch	moins	-1	0	TIMEOUT	-1.0
345.19259999999997	0.0	+	36	verb	list	1	9	nomatch	moins	-1	0	TIMEOUT	-1.0
345.5925	0.2	vieux	36	verb	list	1	10	nomatch	moins	-1	0	TIMEOUT	-1.0
345.79249999999996	0.0	+	36	verb	list	1	11	nomatch	moins	-1	0	TIMEOUT	-1.0
346.1925	0.0	+	36	verb	list	1	12	nomatch	moins	-1	0	TIMEOUT	-1.0
348.1923	0.0	MOINS	36	verb	list	1	13	nomatch	moins	-1	0	TIMEOUT	-1.0
350.59209999999996	0.0	+	37	verb	list	3	1	nomatch	panier	-1	0	TIMEOUT	-1.0
351.19199999999995	0.2	vdslr	37	verb	list	3	2	nomatch	panier	-1	0	TIMEOUT	-1.0
351.392	0.0	+	37	verb	list	3	3	nomatch	panier	-1	0	TIMEOUT	-1.0
351.792	0.2	rmkt	37	verb	list	3	4	nomatch	panier	-1	0	TIMEOUT	-1.0
351.99199999999996	0.0	+	37	verb	list	3	5	nomatch	panier	-1	0	TIMEOUT	-1.0
352.39189999999996	0.2	mon	37	verb	list	3	6	nomatch	panier	-1	0	TIMEOUT	-1.0
352.59189999999995	0.0	+	37	verb	list	3	7	nomatch	panier	-1	0	TIMEOUT	-1.0
352.9919	0.2	voyager	37	verb	list	3	8	nomatch	panier	-1	0	TIMEOUT	-1.0
353.1919	0.0	+	37	verb	list	3	9	nomatch	panier	-1	0	TIMEOUT	-1.0
353.5918	0.2	blanc	37	verb	list	3	10	nomatch	panier	-1	0	TIMEOUT	-1.0
353.79179999999997	0.0	+	37	verb	list	3	11	nomatch	panier	-1	0	TIMEOUT	-1.0
354.1918	0.0	+	37	verb	list	3	12	nomatch	panier	-1	0	TIMEOUT	-1.0
356.1916	0.0	PANIER	37	verb	list	3	13	nomatch	panier	-1	0	TIMEOUT	-1.0
358.59139999999996	0.0	+	38	noun	phrase	3	1	nomatch	tôt	-1	0	TIMEOUT	-1.0
359.19129999999996	0.2	jgrbf	38	noun	phrase	3	2	nomatch	tôt	-1	0	TIMEOUT	-1.0
359.3913	0.0	+	38	noun	phrase	3	3	nomatch	tôt	-1	0	TIMEOUT	-1.0
359.7913	0.2	qpnm	38	noun	phrase	3	4	nomatch	tôt	-1	0	TIMEOUT	-1.0
359.9912	0.0	+	38	noun	phrase	3	5	nomatch	tôt	-1	0	TIMEOUT	-1.0
360.39119999999997	0.2	son	38	noun	phrase	3	6	nomatch	tôt	-1	0	TIMEOUT	-1.0
360.59119999999996	0.0	+	38	noun	phrase	3	7	nomatch	tôt	-1	0	TIMEOUT	-1.0
360.99109999999996	0.2	cendrier	38	noun	phrase	3	8	nomatch	tôt	-1	0	TIMEOUT	-1.0
361.1911	0.0	+	38	noun	phrase	3	9	nomatch	tôt	-1	0	TIMEOUT	-1.0
361.5911	0.2	vert	38	noun	phrase	3	10	nomatch	tôt	-1	0	TIMEOUT	-1.0
361.7911	0.0	+	38	noun	phrase	3	11	nomatch	tôt	-1	0	TIMEOUT	-1.0
362.191	0.0	+	38	noun	phrase	3	12	nomatch	tôt	-1	0	TIMEOUT	-1.0
364.1909	0.0	TÔT	38	noun	phrase	3	13	nomatch	tôt	-1	0	TIMEOUT	-1.0
366.5906	0.0	+	39	noun	phrase	1	1	nomatch	ainsi	-1	1	p	2.2539
367.19059999999996	0.2	flbtjcm	39	noun	phrase	1	2	nomatch	ainsi	-1	1	p	2.2539
367.3906	0.0	+	39	noun	phrase	1	3	nomatch	ainsi	-1	1	p	2.2539
367.79049999999995	0.2	scjw	39	noun	phrase	1	4	nomatch	ainsi	-1	1	p	2.2539
367.9905	0.0	+	39	noun	phrase	1	5	nomatch	ainsi	-1	1	p	2.2539
368.3905	0.2	rbh	39	noun	phrase	1	6	nomatch	ainsi	-1	1	p	2.2539
368.59049999999996	0.0	+	39	noun	phrase	1	7	nomatch	ainsi	-1	1	p	2.2539
368.99039999999997	0.2	xvsdk	39	noun	phrase	1	8	nomatch	ainsi	-1	1	p	2.2539
369.19039999999995	0.0	+	39	noun	phrase	1	9	nomatch	ainsi	-1	1	p	2.2539
369.5904	0.2	rocher	39	noun	phrase	1	10	nomatch	ainsi	-1	1	p	2.2539
369.7904	0.0	+	39	noun	phrase	1	11	nomatch	ainsi	-1	1	p	2.2539
370.1903	0.0	+	39	noun	phrase	1	12	nomatch	ainsi	-1	1	p	2.2539
372.1901	0.0	AINSI	39	noun	phrase	1	13	nomatch	ainsi	-1	1	p	2.2539
374.5066	0.0	+	39	noun	phrase	1	14	nomatch	ainsi	-1	1	p	2.2539
374.44399999999996	0.0	[response]	39	noun	phrase	1	15	nomatch	ainsi	-1	1	p	2.2539
382.5892	0.0	+	40	verb	phrase	4	1	nomatch	noir	-1	1	p	0.73454
383.1391	0.2	tpxc	40	verb	phrase	4	2	nomatch	noir	-1	1	p	0.73454
383.3391	0.0	+	40	verb	phrase	4	3	nomatch	noir	-1	1	p	0.73454
383.73909999999995	0.2	luc	40	verb	phrase	4	4	nomatch	noir	-1	1	p	0.73454
383.9391	0.0	+	40	verb	phrase	4	5	nomatch	noir	-1	1	p	0.73454
384.339	0.2	doit	40	verb	phrase	4	6	nomatch	noir	-1	1	p	0.73454
384.539	0.0	+	40	verb	phrase	4	7	nomatch	noir	-1	1	p	0.73454
384.93899999999996	0.2	nager	40	verb	phrase	4	8	nomatch	noir	-1	1	p	0.73454
385.13899999999995	0.0	+	40	verb	phrase	4	9	nomatch	noir	-1	1	p	0.73454
385.53889999999996	0.2	tôt	40	verb	phrase	4	10	nomatch	noir	-1	1	p	0.73454
385.7389	0.0	+	40	verb	phrase	4	11	nomatch	noir	-1	1	p	0.73454
386.1389	0.0	+	40	verb	phrase	4	12	nomatch	noir	-1	1	p	0.73454
388.1387	0.0	NOIR	40	verb	phrase	4	13	nomatch	noir	-1	1	p	0.73454
388.93859999999995	0.0	+	40	verb	phrase	4	14	nomatch	noir	-1	1	p	0.73454
388.8732	0.0	[response]	40	verb	phrase	4	15	nomatch	noir	-1	1	p	0.73454
390.5385	0.0	+	41	noun	list	3	1	nomatch	avec	-1	1	p	2.2816
391.0884	0.2	qbhdpr	41	noun	list	3	2	nomatch	avec	-1	1	p	2.2816
391.28839999999997	0.0	+	41	noun	list	3	3	nomatch	avec	-1	1	p	2.2816
391.6884	0.2	dmgj	41	noun	list	3	4	nomatch	avec	-1	1	p	2.2816
391.8884	0.0	+	41	noun	list	3	5	nomatch	avec	-1	1	p	2.2816
392.2883	0.2	son	41	noun	list	3	6	nomatch	avec	-1	1	p	2.2816
392.4883	0.0	+	41	noun	list	3	7	nomatch	avec	-1	1	p	2.2816
392.88829999999996	0.2	beaucoup	41	noun	list	3	8	nomatch	avec	-1	1	p	2.2816
393.0882	0.0	+	41	noun	list	3	9	nomatch	avec	-1	1	p	2.2816
393.4882	0.2	casier	41	noun	list	3	10	nomatch	avec	-1	1	p	2.2816
393.6882	0.0	+	41	noun	list	3	11	nomatch	avec	-1	1	p	2.2816
394.0882	0.0	+	41	noun	list	3	12	nomatch	avec	-1	1	p	2.2816
396.08799999999997	0.0	AVEC	41	noun	list	3	13	nomatch	avec	-1	1	p	2.2816
398.4378	0.0	+	41	noun	list	3	14	nomatch	avec	-1	1	p	2.2816
398.3696	0.0	[response]	41	noun	list	3	15	nomatch	avec	-1	1	p	2.2816
398.5044	0.0	+	42	verb	list	2	1	nomatch	jongler	-1	0	TIMEOUT	-1.0
399.0377	0.2	dgznrkj	42	verb	list	2	2	nomatch	jongler	-1	0	TIMEOUT	-1.0
399.23769999999996	0.0	+	42	verb	list	2	3	nomatch	jongler	-1	0	TIMEOUT	-1.0
399.6377	0.2	wcbs	42	verb	list	2	4	nomatch	jongler	-1	0	TIMEOUT	-1.0
399.83759999999995	0.0	+	42	verb	list	2	5	nomatch	jongler	-1	0	TIMEOUT	-1.0
400.2376	0.2	cn	42	verb	list	2	6	nomatch	jongler	-1	0	TIMEOUT	-1.0
400.4376	0.0	+	42	verb	list	2	7	nomatch	jongler	-1	0	TIMEOUT	-1.0
400.83759999999995	0.2	petit	42	verb	list	2	8	nomatch	jongler	-1	0	TIMEOUT	-1.0
401.03749999999997	0.0	+	42	verb	list	2	9	nomatch	jongler	-1	0	TIMEOUT	-1.0
401.4375	0.2	plonger	42	verb	list	2	10	nomatch	jongler	-1	0	TIMEOUT	-1.0
401.6375	0.0	+	42	verb	list	2	11	nomatch	jongler	-1	0	TIMEOUT	-1.0
402.0374	0.0	+	42	verb	list	2	12	nomatch	jongler	-1	0	TIMEOUT	-1.0
404.03729999999996	0.0	JONGLER	42	verb	list	2	13	nomatch	jongler	-1	0	TIMEOUT	-1.0
406.45369999999997	0.0	+	43	noun	list	4	1	match	tôt	5	0	TIMEOUT	-1.0
407.037	0.2	jxrt	43	noun	list	4	2	match	tôt	5	0	TIMEOUT	-1.0
407.23699999999997	0.0	+	43	noun	list	4	3	match	tôt	5	0	TIMEOUT	-1.0
407.63689999999997	0.2	sur	43	noun	list	4	4	match	tôt	5	0	TIMEOUT	-1.0
407.83689999999996	0.0	+	43	noun	list	4	5	match	tôt	5	0	TIMEOUT	-1.0
408.2369	0.2	va	43	noun	list	4	6	match	tôt	5	0	TIMEOUT	-1.0
408.4369	0.0	+	43	noun	list	4	7	match	tôt	5	0	TIMEOUT	-1.0
408.8368	0.2	casier	43	noun	list	4	8	match	tôt	5	0	TIMEOUT	-1.0
409.03679999999997	0.0	+	43	noun	list	4	9	match	tôt	5	0	TIMEOUT	-1.0
409.4368	0.2	tôt	43	noun	list	4	10	match	tôt	5	0	TIMEOUT	-1.0
409.6368	0.0	+	43	noun	list	4	11	match	tôt	5	0	TIMEOUT	-1.0
410.0367	0.0	+	43	noun	list	4	12	match	tôt	5	0	TIMEOUT	-1.0
412.0365	0.0	TÔT	43	noun	list	4	13	match	tôt	5	0	TIMEOUT	-1.0
414.453	0.0	+	44	noun	phrase	1	1	match	panier	5	0	TIMEOUT	-1.0
415.0363	0.2	rwpmfh	44	noun	phrase	1	2	match	panier	5	0	TIMEOUT	-1.0
415.2362	0.0	+	44	noun	phrase	1	3	match	panier	5	0	TIMEOUT	-1.0
415.6362	0.2	kszh	44	noun	phrase	1	4	match	panier	5	0	TIMEOUT	-1.0
415.83619999999996	0.0	+	44	noun	phrase	1	5	match	panier	5	0	TIMEOUT	-1.0
416.2362	0.2	lgcv	44	noun	phrase	1	6	match	panier	5	0	TIMEOUT	-1.0
416.43609999999995	0.0	+	44	noun	phrase	1	7	match	panier	5	0	TIMEOUT	-1.0
416.8361	0.2	fhrs	44	noun	phrase	1	8	match	panier	5	0	TIMEOUT	-1.0
417.0361	0.0	+	44	noun	phrase	1	9	match	panier	5	0	TIMEOUT	-1.0
417.43609999999995	0.2	panier	44	noun	phrase	1	10	match	panier	5	0	TIMEOUT	-1.0
417.63599999999997	0.0	+	44	noun	phrase	1	11	match	panier	5	0	TIMEOUT	-1.0
418.036	0.0	+	44	noun	phrase	1	12	match	panier	5	0	TIMEOUT	-1.0
420.0358	0.0	PANIER	44	noun	phrase	1	13	match	panier	5	0	TIMEOUT	-1.0
422.4523	0.0	+	45	noun	list	1	1	match	tablier	5	0	TIMEOUT	-1.0
423.03549999999996	0.2	bjxfhld	45	noun	list	1	2	match	tablier	5	0	TIMEOUT	-1.0
423.2355	0.0	+	45	noun	list	1	3	match	tablier	5	0	TIMEOUT	-1.0
423.6355	0.2	wvln	45	noun	list	1	4	match	tablier	5	0	TIMEOUT	-1.0
423.83549999999997	0.0	+	45	noun	list	1	5	match	tablier	5	0	TIMEOUT	-1.0
424.23539999999997	0.2	rbh	45	noun	list	1	6	match	tablier	5	0	TIMEOUT	-1.0
424.43539999999996	0.0	+	45	noun	list	1	7	match	tablier	5	0	TIMEOUT	-1.0
424.8354	0.2	tzds	45	noun	list	1	8	match	tablier	5	0	TIMEOUT	-1.0
425.0354	0.0	+	45	noun	list	1	9	match	tablier	5	0	TIMEOUT	-1.0
425.4353	0.2	tablier	45	noun	list	1	10	match	tablier	5	0	TIMEOUT	-1.0
425.6353	0.0	+	45	noun	list	1	11	match	tablier	5	0	TIMEOUT	-1.0
426.0353	0.0	+	45	noun	list	1	12	match	tablier	5	0	TIMEOUT	-1.0
428.0351	0.0	TABLIER	45	noun	list	1	13	match	tablier	5	0	TIMEOUT	-1.0
430.45149999999995	0.0	+	46	verb	list	3	1	match	vieux	4	0	p	2.1754
431.0349	0.2	cskwrv	46	verb	list	3	2	match	vieux	4	0	p	2.1754
431.23479999999995	0.0	+	46	verb	list	3	3	match	vieux	4	0	p	2.1754
431.65139999999997	0.2	scjw	46	verb	list	3	4	match	vieux	4	0	p	2.1754
431.85139999999996	0.0	+	46	verb	list	3	5	match	vieux	4	0	p	2.1754
432.2514	0.2	doit	46	verb	list	3	6	match	vieux	4	0	p	2.1754
432.4514	0.0	+	46	verb	list	3	7	match	vieux	4	0	p	2.1754
432.8513	0.2	vieux	46	verb	list	3	8	match	vieux	4	0	p	2.1754
433.05129999999997	0.0	+	46	verb	list	3	9	match	vieux	4	0	p	2.1754
433.4513	0.2	danser	46	verb	list	3	10	match	vieux	4	0	p	2.1754
433.65119999999996	0.0	+	46	verb	list	3	11	match	vieux	4	0	p	2.1754
434.0512	0.0	+	46	verb	list	3	12	match	vieux	4	0	p	2.1754
436.051	0.0	VIEUX	46	verb	list	3	13	match	vieux	4	0	p	2.1754
438.2842	0.0	+	46	verb	list	3	14	match	vieux	4	0	p	2.1754
438.22639999999996	0.0	[response]	46	verb	list	3	15	match	vieux	4	0	p	2.1754
438.45079999999996	0.0	+	47	verb	phrase	4	1	nomatch	grenier	-1	0	TIMEOUT	-1.0
439.00079999999997	0.2	gpwjqb	47	verb	phrase	4	2	nomatch	grenier	-1	0	TIMEOUT	-1.0
439.2007	0.0	+	47	verb	phrase	4	3	nomatch	grenier	-1	0	TIMEOUT	-1.0
439.60069999999996	0.2	paul	47	verb	phrase	4	4	nomatch	grenier	-1	0	TIMEOUT	-1.0
439.8007	0.0	+	47	verb	phrase	4	5	nomatch	grenier	-1	0	TIMEOUT	-1.0
440.2007	0.2	va	47	verb	phrase	4	6	nomatch	grenier	-1	0	TIMEOUT	-1.0
440.4006	0.0	+	47	verb	phrase	4	7	nomatch	grenier	-1	0	TIMEOUT	-1.0
440.8006	0.2	beaucoup	47	verb	phrase	4	8	nomatch	grenier	-1	0	TIMEOUT	-1.0
441.00059999999996	0.0	+	47	verb	phrase	4	9	nomatch	grenier	-1	0	TIMEOUT	-1.0
441.4006	0.2	nager	47	verb	phrase	4	10	nomatch	grenier	-1	0	TIMEOUT	-1.0
441.60049999999995	0.0	+	47	verb	phrase	4	11	nomatch	grenier	-1	0	TIMEOUT	-1.0
442.0005	0.0	+	47	verb	phrase	4	12	nomatch	grenier	-1	0	TIMEOUT	-1.0
444.0003	0.0	GRENIER	47	verb	phrase	4	13	nomatch	grenier	-1	0	TIMEOUT	-1.0
446.40009999999995	0.0	+	48	noun	phrase	1	1	match	vieux	5	0	TIMEOUT	-1.0
447.0	0.2	nqpf	48	noun	phrase	1	2	match	vieux	5	0	TIMEOUT	-1.0
447.2	0.0	+	48	noun	phrase	1	3	match	vieux	5	0	TIMEOUT	-1.0
447.59999999999997	0.2	xrfg	48	noun	phrase	1	4	match	vieux	5	0	TIMEOUT	-1.0
447.79999999999995	0.0	+	48	noun	phrase	1	5	match	vieux	5	0	TIMEOUT	-1.0
448.19989999999996	0.2	rbh	48	noun	phrase	1	6	match	vieux	5	0	TIMEOUT	-1.0
448.3999	0.0	+	48	noun	phrase	1	7	match	vieux	5	0	TIMEOUT	-1.0
448.7999	0.2	lcvhfq	48	noun	phrase	1	8	match	vieux	5	0	TIMEOUT	-1.0
448.99989999999997	0.0	+	48	noun	phrase	1	9	match	vieux	5	0	TIMEOUT	-1.0
449.39979999999997	0.2	vieux	48	noun	phrase	1	10	match	vieux	5	0	TIMEOUT	-1.0
449.59979999999996	0.0	+	48	noun	phrase	1	11	match	vieux	5	0	TIMEOUT	-1.0
449.9998	0.0	+	48	noun	phrase	1	12	match	vieux	5	0	TIMEOUT	-1.0
451.99959999999993	0.0	VIEUX	48	noun	phrase	1	13	match	vieux	5	0	TIMEOUT	-1.0
454.39939999999996	0.0	+	49	verb	list	4	1	match	sans	2	0	TIMEOUT	-1.0
454.9993	0.2	rpscx	49	verb	list	4	2	match	sans	2	0	TIMEOUT	-1.0
455.19929999999994	0.0	+	49	verb	list	4	3	match	sans	2	0	TIMEOUT	-1.0
455.5993	0.2	sans	49	verb	list	4	4	match	sans	2	0	TIMEOUT	-1.0
455.7992	0.0	+	49	verb	list	4	5	match	sans	2	0	TIMEOUT	-1.0
456.19919999999996	0.2	va	49	verb	list	4	6	match	sans	2	0	TIMEOUT	-1.0
456.3992	0.0	+	49	verb	list	4	7	match	sans	2	0	TIMEOUT	-1.0
456.7992	0.2	petit	49	verb	list	4	8	match	sans	2	0	TIMEOUT	-1.0
456.99909999999994	0.0	+	49	verb	list	4	9	match	sans	2	0	TIMEOUT	-1.0
457.39910000000003	0.2	jongler	49	verb	list	4	10	match	sans	2	0	TIMEOUT	-1.0
457.59909999999996	0.0	+	49	verb	list	4	11	match	sans	2	0	TIMEOUT	-1.0
457.99909999999994	0.0	+	49	verb	list	4	12	match	sans	2	0	TIMEOUT	-1.0
459.9989	0.0	SANS	49	verb	list	4	13	match	sans	2	0	TIMEOUT	-1.0
462.39859999999993	0.0	+	50	verb	list	2	1	match	noir	5	0	TIMEOUT	-1.0
462.99859999999995	0.2	nxftlm	50	verb	list	2	2	match	noir	5	0	TIMEOUT	-1.0
463.1986	0.0	+	50	verb	list	2	3	match	noir	5	0	TIMEOUT	-1.0
463.5985	0.2	rmkt	50	verb	list	2	4	match	noir	5	0	TIMEOUT	-1.0
463.79849999999993	0.0	+	50	verb	list	2	5	match	noir	5	0	TIMEOUT	-1.0
464.1985	0.2	rbh	50	verb	list	2	6	match	noir	5	0	TIMEOUT	-1.0
464.39849999999996	0.0	+	50	verb	list	2	7	match	noir	5	0	TIMEOUT	-1.0
464.79839999999996	0.2	plonger	50	verb	list	2	8	match	noir	5	0	TIMEOUT	-1.0
464.9984	0.0	+	50	verb	list	2	9	match	noir	5	0	TIMEOUT	-1.0
465.3984	0.2	noir	50	verb	list	2	10	match	noir	5	0	TIMEOUT	-1.0
465.5984	0.0	+	50	verb	list	2	11	match	noir	5	0	TIMEOUT	-1.0
465.99830000000003	0.0	+	50	verb	list	2	12	match	noir	5	0	TIMEOUT	-1.0
467.99809999999997	0.0	NOIR	50	verb	list	2	13	match	noir	5	0	TIMEOUT	-1.0
470.3979	0.0	+	51	verb	phrase	4	1	match	peut	3	0	TIMEOUT	-1.0
470.9979	0.2	jnfvbtr	51	verb	phrase	4	2	match	peut	3	0	TIMEOUT	-1.0
471.19789999999995	0.0	+	51	verb	phrase	4	3	match	peut	3	0	TIMEOUT	-1.0
471.59779999999995	0.2	paul	51	verb	phrase	4	4	match	peut	3	0	TIMEOUT	-1.0
471.7978	0.0	+	51	verb	phrase	4	5	match	peut	3	0	TIMEOUT	-1.0
472.1978	0.2	peut	51	verb	phrase	4	6	match	peut	3	0	TIMEOUT	-1.0
472.3978	0.0	+	51	verb	phrase	4	7	match	peut	3	0	TIMEOUT	-1.0
472.7977	0.2	danser	51	verb	phrase	4	8	match	peut	3	0	TIMEOUT	-1.0
472.99769999999995	0.0	+	51	verb	phrase	4	9	match	peut	3	0	TIMEOUT	-1.0
473.39769999999993	0.2	tôt	51	verb	phrase	4	10	match	peut	3	0	TIMEOUT	-1.0
473.5976	0.0	+	51	verb	phrase	4	11	match	peut	3	0	TIMEOUT	-1.0
473.9976	0.0	+	51	verb	phrase	4	12	match	peut	3	0	TIMEOUT	-1.0
475.9974	0.0	PEUT	51	verb	phrase	4	13	match	peut	3	0	TIMEOUT	-1.0
478.39719999999994	0.0	+	52	noun	list	4	1	match	son	3	0	TIMEOUT	-1.0
478.99719999999996	0.2	zrkwn	52	noun	list	4	2	match	son	3	0	TIMEOUT	-1.0
479.19710000000003	0.0	+	52	noun	list	4	3	match	son	3	0	TIMEOUT	-1.0
479.5971	0.2	jean	52	noun	list	4	4	match	son	3	0	TIMEOUT	-1.0
479.79709999999994	0.0	+	52	noun	list	4	5	match	son	3	0	TIMEOUT	-1.0
480.19699999999995	0.2	son	52	noun	list	4	6	match	son	3	0	TIMEOUT	-1.0
480.397	0.0	+	52	noun	list	4	7	match	son	3	0	TIMEOUT	-1.0
480.79699999999997	0.2	beaucoup	52	noun	list	4	8	match	son	3	0	TIMEOUT	-1.0
480.997	0.0	+	52	noun	list	4	9	match	son	3	0	TIMEOUT	-1.0
481.3969	0.2	cendrier	52	noun	list	4	10	match	son	3	0	TIMEOUT	-1.0
481.59689999999995	0.0	+	52	noun	list	4	11	match	son	3	0	TIMEOUT	-1.0
481.9968999999999	0.0	+	52	noun	list	4	12	match	son	3	0	TIMEOUT	-1.0
483.9967	0.0	SON	52	noun	list	4	13	match	son	3	0	TIMEOUT	-1.0
486.3965	0.0	+	53	noun	phrase	3	1	nomatch	leur	-1	0	y	1.7271
486.99639999999994	0.2	sdcgbl	53	noun	phrase	3	2	nomatch	leur	-1	0	y	1.7271
487.1964	0.0	+	53	noun	phrase	3	3	nomatch	leur	-1	0	y	1.7271
487.59639999999996	0.2	wcbs	53	noun	phrase	3	4	nomatch	leur	-1	0	y	1.7271
487.7964	0.0	+	53	noun	phrase	3	5	nomatch	leur	-1	0	y	1.7271
488.1963	0.2	mon	53	noun	phrase	3	6	nomatch	leur	-1	0	y	1.7271
488.39629999999994	0.0	+	53	noun	phrase	3	7	nomatch	leur	-1	0	y	1.7271
488.79630000000003	0.2	casier	53	noun	phrase	3	8	nomatch	leur	-1	0	y	1.7271
488.99629999999996	0.0	+	53	noun	phrase	3	9	nomatch	leur	-1	0	y	1.7271
489.39619999999996	0.2	blanc	53	noun	phrase	3	10	nomatch	leur	-1	0	y	1.7271
489.5962	0.0	+	53	noun	phrase	3	11	nomatch	leur	-1	0	y	1.7271
489.9962	0.0	+	53	noun	phrase	3	12	nomatch	leur	-1	0	y	1.7271
491.9959999999999	0.0	LEUR	53	noun	phrase	3	13	nomatch	leur	-1	0	y	1.7271
493.7791	0.0	+	53	noun	phrase	3	14	nomatch	leur	-1	0	y	1.7271
493.7231	0.0	[response]	53	noun	phrase	3	15	nomatch	leur	-1	0	y	1.7271
494.39579999999995	0.0	+	54	verb	phrase	3	1	nomatch	tard	-1	1	p	0.92965
494.94569999999993	0.2	zwtpdf	54	verb	phrase	3	2	nomatch	tard	-1	1	p	0.92965
495.1457	0.0	+	54	verb	phrase	3	3	nomatch	tard	-1	1	p	0.92965
495.54569999999995	0.2	mpdb	54	verb	phrase	3	4	nomatch	tard	-1	1	p	0.92965
495.7456	0.0	+	54	verb	phrase	3	5	nomatch	tard	-1	1	p	0.92965
496.1456	0.2	doit	54	verb	phrase	3	6	nomatch	tard	-1	1	p	0.92965
496.34559999999993	0.0	+	54	verb	phrase	3	7	nomatch	tard	-1	1	p	0.92965
496.7456	0.2	danser	54	verb	phrase	3	8	nomatch	tard	-1	1	p	0.92965
496.9455	0.0	+	54	verb	phrase	3	9	nomatch	tard	-1	1	p	0.92965
497.34549999999996	0.2	ainsi	54	verb	phrase	3	10	nomatch	tard	-1	1	p	0.92965
497.5455	0.0	+	54	verb	phrase	3	11	nomatch	tard	-1	1	p	0.92965
497.9454	0.0	+	54	verb	phrase	3	12	nomatch	tard	-1	1	p	0.92965
499.94530000000003	0.0	TARD	54	verb	phrase	3	13	nomatch	tard	-1	1	p	0.92965
500.94519999999994	0.0	+	54	verb	phrase	3	14	nomatch	tard	-1	1	p	0.92965
500.87489999999997	0.0	[response]	54	verb	phrase	3	15	nomatch	tard	-1	1	p	0.92965
510.34430000000003	0.0	+	55	noun	phrase	1	1	nomatch	nager	-1	0	TIMEOUT	-1.0
510.8943	0.2	pztw	55	noun	phrase	1	2	nomatch	nager	-1	0	TIMEOUT	-1.0
511.09430000000003	0.0	+	55	noun	phrase	1	3	nomatch	nager	-1	0	TIMEOUT	-1.0
511.49420000000003	0.2	xmv	55	noun	phrase	1	4	nomatch	nager	-1	0	TIMEOUT	-1.0
511.69419999999997	0.0	+	55	noun	phrase	1	5	nomatch	nager	-1	0	TIMEOUT	-1.0
512.0942	0.2	rbh	55	noun	phrase	1	6	nomatch	nager	-1	0	TIMEOUT	-1.0
512.2941000000001	0.0	+	55	noun	phrase	1	7	nomatch	nager	-1	0	TIMEOUT	-1.0
512.6941	0.2	ltbwz	55	noun	phrase	1	8	nomatch	nager	-1	0	TIMEOUT	-1.0
512.8941	0.0	+	55	noun	phrase	1	9	nomatch	nager	-1	0	TIMEOUT	-1.0
513.2941000000001	0.2	casier	55	noun	phrase	1	10	nomatch	nager	-1	0	TIMEOUT	-1.0
513.494	0.0	+	55	noun	phrase	1	11	nomatch	nager	-1	0	TIMEOUT	-1.0
513.894	0.0	+	55	noun	phrase	1	12	nomatch	nager	-1	0	TIMEOUT	-1.0
515.8938	0.0	NAGER	55	noun	phrase	1	13	nomatch	nager	-1	0	TIMEOUT	-1.0
518.3103	0.0	+	56	verb	phrase	2	1	match	moins	4	0	p	1.0493
518.8936	0.2	kcvw	56	verb	phrase	2	2	match	moins	4	0	p	1.0493
519.0935000000001	0.0	+	56	verb	phrase	2	3	match	moins	4	0	p	1.0493
519.4935	0.2	pxbj	56	verb	phrase	2	4	match	moins	4	0	p	1.0493
519.6935000000001	0.0	+	56	verb	phrase	2	5	match	moins	4	0	p	1.0493
520.0934000000001	0.2	svhw	56	verb	phrase	2	6	match	moins	4	0	p	1.0493
520.2934	0.0	+	56	verb	phrase	2	7	match	moins	4	0	p	1.0493
520.6934	0.2	moins	56	verb	phrase	2	8	match	moins	4	0	p	1.0493
520.8934	0.0	+	56	verb	phrase	2	9	match	moins	4	0	p	1.0493
521.2933	0.2	voyager	56	verb	phrase	2	10	match	moins	4	0	p	1.0493
521.4933000000001	0.0	+	56	verb	phrase	2	11	match	moins	4	0	p	1.0493
521.8933000000001	0.0	+	56	verb	phrase	2	12	match	moins	4	0	p	1.0493
523.8931	0.0	MOINS	56	verb	phrase	2	13	match	moins	4	0	p	1.0493
525.0097000000001	0.0	+	56	verb	phrase	2	14	match	moins	4	0	p	1.0493
524.9424	0.0	[response]	56	verb	phrase	2	15	match	moins	4	0	p	1.0493
526.2929	0.0	+	57	noun	list	2	1	nomatch	beau	-1	0	TIMEOUT	-1.0
526.8428	0.2	mdpkzv	57	noun	list	2	2	nomatch	beau	-1	0	TIMEOUT	-1.0
527.0428	0.0	+	57	noun	list	2	3	nomatch	beau	-1	0	TIMEOUT	-1.0
527.4428	0.2	scjw	57	noun	list	2	4	nomatch	beau	-1	0	TIMEOUT	-1.0
527.6428000000001	0.0	+	57	noun	list	2	5	nomatch	beau	-1	0	TIMEOUT	-1.0
528.0427000000001	0.2	tpgs	57	noun	list	2	6	nomatch	beau	-1	0	TIMEOUT	-1.0
528.2427	0.0	+	57	noun	list	2	7	nomatch	beau	-1	0	TIMEOUT	-1.0
528.6427	0.2	tablier	57	noun	list	2	8	nomatch	beau	-1	0	TIMEOUT	-1.0
528.8427	0.0	+	57	noun	list	2	9	nomatch	beau	-1	0	TIMEOUT	-1.0
529.2426	0.2	tôt	57	noun	list	2	10	nomatch	beau	-1	0	TIMEOUT	-1.0
529.4426000000001	0.0	+	57	noun	list	2	11	nomatch	beau	-1	0	TIMEOUT	-1.0
529.8426000000001	0.0	+	57	noun	list	2	12	nomatch	beau	-1	0	TIMEOUT	-1.0
531.8424	0.0	BEAU	57	noun	list	2	13	nomatch	beau	-1	0	TIMEOUT	-1.0
534.2422	0.0	+	58	noun	phrase	3	1	nomatch	plus	-1	0	TIMEOUT	-1.0
534.8421000000001	0.2	ntdbsqx	58	noun	phrase	3	2	nomatch	plus	-1	0	TIMEOUT	-1.0
535.0421	0.0	+	58	noun	phrase	3	3	nomatch	plus	-1	0	TIMEOUT	-1.0
535.4421	0.2	xmv	58	noun	phrase	3	4	nomatch	plus	-1	0	TIMEOUT	-1.0
535.642	0.0	+	58	noun	phrase	3	5	nomatch	plus	-1	0	TIMEOUT	-1.0
536.042	0.2	mon	58	noun	phrase	3	6	nomatch	plus	-1	0	TIMEOUT	-1.0
536.2420000000001	0.0	+	58	noun	phrase	3	7	nomatch	plus	-1	0	TIMEOUT	-1.0
536.6419000000001	0.2	voilier	58	noun	phrase	3	8	nomatch	plus	-1	0	TIMEOUT	-1.0
536.8419	0.0	+	58	noun	phrase	3	9	nomatch	plus	-1	0	TIMEOUT	-1.0
537.2419	0.2	noir	58	noun	phrase	3	10	nomatch	plus	-1	0	TIMEOUT	-1.0
537.4419	0.0	+	58	noun	phrase	3	11	nomatch	plus	-1	0	TIMEOUT	-1.0
537.8418	0.0	+	58	noun	phrase	3	12	nomatch	plus	-1	0	TIMEOUT	-1.0
539.8417000000001	0.0	PLUS	58	noun	phrase	3	13	nomatch	plus	-1	0	TIMEOUT	-1.0
542.2414	0.0	+	59	verb	list	2	1	match	blanc	5	0	p	1.3571
542.8414	0.2	bfdvth	59	verb	list	2	2	match	blanc	5	0	p	1.3571
543.0414000000001	0.0	+	59	verb	list	2	3	match	blanc	5	0	p	1.3571
543.4413000000001	0.2	dmgj	59	verb	list	2	4	match	blanc	5	0	p	1.3571
543.6413	0.0	+	59	verb	list	2	5	match	blanc	5	0	p	1.3571
544.0413000000001	0.2	vft	59	verb	list	2	6	match	blanc	5	0	p	1.3571
544.2413	0.0	+	59	verb	list	2	7	match	blanc	5	0	p	1.3571
544.6412	0.2	voyager	59	verb	list	2	8	match	blanc	5	0	p	1.3571
544.8412000000001	0.0	+	59	verb	list	2	9	match	blanc	5	0	p	1.3571
545.2412	0.2	blanc	59	verb	list	2	10	match	blanc	5	0	p	1.3571
545.4412	0.0	+	59	verb	list	2	11	match	blanc	5	0	p	1.3571
545.8411	0.0	+	59	verb	list	2	12	match	blanc	5	0	p	1.3571
547.8409	0.0	BLANC	59	verb	list	2	13	match	blanc	5	0	p	1.3571
549.2575	0.0	+	59	verb	list	2	14	match	blanc	5	0	p	1.3571
549.1981000000001	0.0	[response]	59	verb	list	2	15	match	blanc	5	0	p	1.3571
550.2407000000001	0.0	+	60	noun	list	1	1	nomatch	rocher	-1	1	p	0.81156
550.7907	0.2	hwrkf	60	noun	list	1	2	nomatch	rocher	-1	1	p	0.81156
550.9907000000001	0.0	+	60	noun	list	1	3	nomatch	rocher	-1	1	p	0.81156
551.3906000000001	0.2	wvln	60	noun	list	1	4	nomatch	rocher	-1	1	p	0.81156
551.5906	0.0	+	60	noun	list	1	5	nomatch	rocher	-1	1	p	0.81156
551.9906000000001	0.2	rbh	60	noun	list	1	6	nomatch	rocher	-1	1	p	0.81156
552.1905	0.0	+	60	noun	list	1	7	nomatch	rocher	-1	1	p	0.81156
552.5905	0.2	tzds	60	noun	list	1	8	nomatch	rocher	-1	1	p	0.81156
552.7905000000001	0.0	+	60	noun	list	1	9	nomatch	rocher	-1	1	p	0.81156
553.1905	0.2	casier	60	noun	list	1	10	nomatch	rocher	-1	1	p	0.81156
553.3904	0.0	+	60	noun	list	1	11	nomatch	rocher	-1	1	p	0.81156
553.7904000000001	0.0	+	60	noun	list	1	12	nomatch	rocher	-1	1	p	0.81156
555.7902	0.0	ROCHER	60	noun	list	1	13	nomatch	rocher	-1	1	p	0.81156
556.6568000000001	0.0	+	60	noun	list	1	14	nomatch	rocher	-1	1	p	0.81156
556.6018	0.0	[response]	60	noun	list	1	15	nomatch	rocher	-1	1	p	0.81156
558.19	0.0	+	61	noun	phrase	1	1	match	beau	5	1	y	0.53417
558.74	0.2	kmsnbcq	61	noun	phrase	1	2	match	beau	5	1	y	0.53417
558.9399000000001	0.0	+	61	noun	phrase	1	3	match	beau	5	1	y	0.53417
559.3399000000001	0.2	wcbs	61	noun	phrase	1	4	match	beau	5	1	y	0.53417
559.5399	0.0	+	61	noun	phrase	1	5	match	beau	5	1	y	0.53417
559.9398	0.2	lgcv	61	noun	phrase	1	6	match	beau	5	1	y	0.53417
560.1398	0.0	+	61	noun	phrase	1	7	match	beau	5	1	y	0.53417
560.5398	0.2	fdhrjzs	61	noun	phrase	1	8	match	beau	5	1	y	0.53417
560.7398000000001	0.0	+	61	noun	phrase	1	9	match	beau	5	1	y	0.53417
561.1397000000001	0.2	beau	61	noun	phrase	1	10	match	beau	5	1	y	0.53417
561.3397	0.0	+	61	noun	phrase	1	11	match	beau	5	1	y	0.53417
561.7397000000001	0.0	+	61	noun	phrase	1	12	match	beau	5	1	y	0.53417
563.7395	0.0	BEAU	61	noun	phrase	1	13	match	beau	5	1	y	0.53417
564.3394000000001	0.0	+	61	noun	phrase	1	14	match	beau	5	1	y	0.53417
564.2737000000001	0.0	[response]	61	noun	phrase	1	15	match	beau	5	1	y	0.53417
566.1393	0.0	+	62	verb	phrase	1	1	match	nager	5	0	TIMEOUT	-1.0
566.6892	0.2	kxdf	62	verb	phrase	1	2	match	nager	5	0	TIMEOUT	-1.0
566.8892000000001	0.0	+	62	verb	phrase	1	3	match	nager	5	0	TIMEOUT	-1.0
567.2892	0.2	rmkt	62	verb	phrase	1	4	match	nager	5	0	TIMEOUT	-1.0
567.4892	0.0	+	62	verb	phrase	1	5	match	nager	5	0	TIMEOUT	-1.0
567.8891	0.2	svhw	62	verb	phrase	1	6	match	nager	5	0	TIMEOUT	-1.0
568.0891	0.0	+	62	verb	phrase	1	7	match	nager	5	0	TIMEOUT	-1.0
568.4891	0.2	jpl	62	verb	phrase	1	8	match	nager	5	0	TIMEOUT	-1.0
568.6891	0.0	+	62	verb	phrase	1	9	match	nager	5	0	TIMEOUT	-1.0
569.089	0.2	nager	62	verb	phrase	1	10	match	nager	5	0	TIMEOUT	-1.0
569.289	0.0	+	62	verb	phrase	1	11	match	nager	5	0	TIMEOUT	-1.0
569.6890000000001	0.0	+	62	verb	phrase	1	12	match	nager	5	0	TIMEOUT	-1.0
571.6888	0.0	NAGER	62	verb	phrase	1	13	match	nager	5	0	TIMEOUT	-1.0
574.1219	0.0	+	63	verb	phrase	3	1	nomatch	danser	-1	0	TIMEOUT	-1.0
574.6885000000001	0.2	gsjdvr	63	verb	phrase	3	2	nomatch	danser	-1	0	TIMEOUT	-1.0
574.8885	0.0	+	63	verb	phrase	3	3	nomatch	danser	-1	0	TIMEOUT	-1.0
575.2885	0.2	mpdb	63	verb	phrase	3	4	nomatch	danser	-1	0	TIMEOUT	-1.0
575.4884000000001	0.0	+	63	verb	phrase	3	5	nomatch	danser	-1	0	TIMEOUT	-1.0
575.8884	0.2	va	63	verb	phrase	3	6	nomatch	danser	-1	0	TIMEOUT	-1.0
576.0884	0.0	+	63	verb	phrase	3	7	nomatch	danser	-1	0	TIMEOUT	-1.0
576.4883	0.2	voyager	63	verb	phrase	3	8	nomatch	danser	-1	0	TIMEOUT	-1.0
576.6883	0.0	+	63	verb	phrase	3	9	nomatch	danser	-1	0	TIMEOUT	-1.0
577.0883	0.2	ainsi	63	verb	phrase	3	10	nomatch	danser	-1	0	TIMEOUT	-1.0
577.2883	0.0	+	63	verb	phrase	3	11	nomatch	danser	-1	0	TIMEOUT	-1.0
577.6882	0.0	+	63	verb	phrase	3	12	nomatch	danser	-1	0	TIMEOUT	-1.0
579.6881000000001	0.0	DANSER	63	verb	phrase	3	13	nomatch	danser	-1	0	TIMEOUT	-1.0
582.1045	0.0	+	64	noun	list	4	1	nomatch	clavier	-1	0	y	2.3756
582.6878	0.2	kjp	64	noun	list	4	2	nomatch	clavier	-1	0	y	2.3756
582.8878000000001	0.0	+	64	noun	list	4	3	nomatch	clavier	-1	0	y	2.3756
583.2877000000001	0.2	vers	64	noun	list	4	4	nomatch	clavier	-1	0	y	2.3756
583.4877	0.0	+	64	noun	list	4	5	nomatch	clavier	-1	0	y	2.3756
583.8877	0.2	peut	64	noun	list	4	6	nomatch	clavier	-1	0	y	2.3756
584.0877	0.0	+	64	noun	list	4	7	nomatch	clavier	-1	0	y	2.3756
584.4876	0.2	tablier	64	noun	list	4	8	nomatch	clavier	-1	0	y	2.3756
584.6876000000001	0.0	+	64	noun	list	4	9	nomatch	clavier	-1	0	y	2.3756
585.0876000000001	0.2	loin	64	noun	list	4	10	nomatch	clavier	-1	0	y	2.3756
585.2876	0.0	+	64	noun	list	4	11	nomatch	clavier	-1	0	y	2.3756
585.6875	0.0	+	64	noun	list	4	12	nomatch	clavier	-1	0	y	2.3756
587.6873	0.0	CLAVIER	64	noun	list	4	13	nomatch	clavier	-1	0	y	2.3756
590.1204	0.0	+	64	noun	list	4	14	nomatch	clavier	-1	0	y	2.3756
590.0629	0.0	[response]	64	noun	list	4	15	nomatch	clavier	-1	0	y	2.3756
598.0864	0.0	+	65	noun	phrase	1	1	match	blanc	5	1	y	1.8606000000000003
598.6363	0.2	npsq	65	noun	phrase	1	2	match	blanc	5	1	y	1.8606000000000003
598.8363	0.0	+	65	noun	phrase	1	3	match	blanc	5	1	y	1.8606000000000003
599.2363	0.2	kszh	65	noun	phrase	1	4	match	blanc	5	1	y	1.8606000000000003
599.4363000000001	0.0	+	65	noun	phrase	1	5	match	blanc	5	1	y	1.8606000000000003
599.8362000000001	0.2	lgcv	65	noun	phrase	1	6	match	blanc	5	1	y	1.8606000000000003
600.0362	0.0	+	65	noun	phrase	1	7	match	blanc	5	1	y	1.8606000000000003
600.4362	0.2	bxlqtjp	65	noun	phrase	1	8	match	blanc	5	1	y	1.8606000000000003
600.6362	0.0	+	65	noun	phrase	1	9	match	blanc	5	1	y	1.8606000000000003
601.0361	0.2	blanc	65	noun	phrase	1	10	match	blanc	5	1	y	1.8606000000000003
601.2361000000001	0.0	+	65	noun	phrase	1	11	match	blanc	5	1	y	1.8606000000000003
601.6361	0.0	+	65	noun	phrase	1	12	match	blanc	5	1	y	1.8606000000000003
603.6359	0.0	BLANC	65	noun	phrase	1	13	match	blanc	5	1	y	1.8606000000000003
605.5524	0.0	+	65	noun	phrase	1	14	match	blanc	5	1	y	1.8606000000000003
605.4965000000001	0.0	[response]	65	noun	phrase	1	15	match	blanc	5	1	y	1.8606000000000003
606.0357	0.0	+	66	verb	phrase	1	1	match	moins	5	0	TIMEOUT	-1.0
606.5856	0.2	dcrbngh	66	verb	phrase	1	2	match	moins	5	0	TIMEOUT	-1.0
606.7856	0.0	+	66	verb	phrase	1	3	match	moins	5	0	TIMEOUT	-1.0
607.1856	0.2	dmgj	66	verb	phrase	1	4	match	moins	5	0	TIMEOUT	-1.0
607.3856000000001	0.0	+	66	verb	phrase	1	5	match	moins	5	0	TIMEOUT	-1.0
607.7855000000001	0.2	cn	66	verb	phrase	1	6	match	moins	5	0	TIMEOUT	-1.0
607.9855	0.0	+	66	verb	phrase	1	7	match	moins	5	0	TIMEOUT	-1.0
608.3855	0.2	fbgdnrv	66	verb	phrase	1	8	match	moins	5	0	TIMEOUT	-1.0
608.5854	0.0	+	66	verb	phrase	1	9	match	moins	5	0	TIMEOUT	-1.0
608.9854	0.2	moins	66	verb	phrase	1	10	match	moins	5	0	TIMEOUT	-1.0
609.1854000000001	0.0	+	66	verb	phrase	1	11	match	moins	5	0	TIMEOUT	-1.0
609.5854	0.0	+	66	verb	phrase	1	12	match	moins	5	0	TIMEOUT	-1.0
611.5852	0.0	MOINS	66	verb	phrase	1	13	match	moins	5	0	TIMEOUT	-1.0
614.0016	0.0	+	67	verb	phrase	1	1	match	vite	5	1	y	0.60508
614.5849000000001	0.2	ldt	67	verb	phrase	1	2	match	vite	5	1	y	0.60508
614.7849	0.0	+	67	verb	phrase	1	3	match	vite	5	1	y	0.60508
615.1849000000001	0.2	pxbj	67	verb	phrase	1	4	match	vite	5	1	y	0.60508
615.3848	0.0	+	67	verb	phrase	1	5	match	vite	5	1	y	0.60508
615.7848	0.2	tpgs	67	verb	phrase	1	6	match	vite	5	1	y	0.60508
615.9848000000001	0.0	+	67	verb	phrase	1	7	match	vite	5	1	y	0.60508
616.4014000000001	0.2	fxtjzkv	67	verb	phrase	1	8	match	vite	5	1	y	0.60508
616.6014	0.0	+	67	verb	phrase	1	9	match	vite	5	1	y	0.60508
617.0014	0.2	vite	67	verb	phrase	1	10	match	vite	5	1	y	0.60508
617.2013000000001	0.0	+	67	verb	phrase	1	11	match	vite	5	1	y	0.60508
617.6013	0.0	+	67	verb	phrase	1	12	match	vite	5	1	y	0.60508
619.6011000000001	0.0	VITE	67	verb	phrase	1	13	match	vite	5	1	y	0.60508
620.2677	0.0	+	67	verb	phrase	1	14	match	vite	5	1	y	0.60508
620.2062000000001	0.0	[response]	67	verb	phrase	1	15	match	vite	5	1	y	0.60508
622.0009	0.0	+	68	verb	list	1	1	nomatch	rouge	-1	1	p	0.60611
622.5509000000001	0.2	kcwsdbf	68	verb	list	1	2	nomatch	rouge	-1	1	p	0.60611
622.7508	0.0	+	68	verb	list	1	3	nomatch	rouge	-1	1	p	0.60611
623.1508	0.2	rmkt	68	verb	list	1	4	nomatch	rouge	-1	1	p	0.60611
623.3508	0.0	+	68	verb	list	1	5	nomatch	rouge	-1	1	p	0.60611
623.7507	0.2	rbh	68	verb	list	1	6	nomatch	rouge	-1	1	p	0.60611
623.9507	0.0	+	68	verb	list	1	7	nomatch	rouge	-1	1	p	0.60611
624.3507000000001	0.2	xfsphc	68	verb	list	1	8	nomatch	rouge	-1	1	p	0.60611
624.5507	0.0	+	68	verb	list	1	9	nomatch	rouge	-1	1	p	0.60611
624.9506	0.2	bleu	68	verb	list	1	10	nomatch	rouge	-1	1	p	0.60611
625.1506	0.0	+	68	verb	list	1	11	nomatch	rouge	-1	1	p	0.60611
625.552	0.0	+	68	verb	list	1	12	nomatch	rouge	-1	1	p	0.60611
627.5504000000001	0.0	ROUGE	68	verb	list	1	13	nomatch	rouge	-1	1	p	0.60611
628.217	0.0	+	68	verb	list	1	14	nomatch	rouge	-1	1	p	0.60611
628.1565	0.0	[response]	68	verb	list	1	15	nomatch	rouge	-1	1	p	0.60611
629.9502	0.0	+	69	verb	list	1	1	match	voyager	5	1	y	0.40638
630.5001000000001	0.2	glv	69	verb	list	1	2	match	voyager	5	1	y	0.40638
630.7001	0.0	+	69	verb	list	1	3	match	voyager	5	1	y	0.40638
631.1001	0.2	wcbs	69	verb	list	1	4	match	voyager	5	1	y	0.40638
631.3001	0.0	+	69	verb	list	1	5	match	voyager	5	1	y	0.40638
631.7	0.2	tpgs	69	verb	list	1	6	match	voyager	5	1	y	0.40638
631.9000000000001	0.0	+	69	verb	list	1	7	match	voyager	5	1	y	0.40638
632.3000000000001	0.2	wxnmf	69	verb	list	1	8	match	voyager	5	1	y	0.40638
632.5	0.0	+	69	verb	list	1	9	match	voyager	5	1	y	0.40638
632.8999	0.2	voyager	69	verb	list	1	10	match	voyager	5	1	y	0.40638
633.0999	0.0	+	69	verb	list	1	11	match	voyager	5	1	y	0.40638
633.4999	0.0	+	69	verb	list	1	12	match	voyager	5	1	y	0.40638
635.4997000000001	0.0	VOYAGER	69	verb	list	1	13	match	voyager	5	1	y	0.40638
635.9663	0.0	+	69	verb	list	1	14	match	voyager	5	1	y	0.40638
635.9061	0.0	[response]	69	verb	list	1	15	match	voyager	5	1	y	0.40638
637.8995	0.0	+	70	verb	phrase	3	1	nomatch	noir	-1	0	y	0.88689
638.4494000000001	0.2	zqhfsnd	70	verb	phrase	3	2	nomatch	noir	-1	0	y	0.88689
638.6494	0.0	+	70	verb	phrase	3	3	nomatch	noir	-1	0	y	0.88689
639.0494	0.2	wvln	70	verb	phrase	3	4	nomatch	noir	-1	0	y	0.88689
639.2493000000001	0.0	+	70	verb	phrase	3	5	nomatch	noir	-1	0	y	0.88689
639.6493	0.2	doit	70	verb	phrase	3	6	nomatch	noir	-1	0	y	0.88689
639.8493000000001	0.0	+	70	verb	phrase	3	7	nomatch	noir	-1	0	y	0.88689
640.2493000000001	0.2	mieux	70	verb	phrase	3	8	nomatch	noir	-1	0	y	0.88689
640.4492	0.0	+	70	verb	phrase	3	9	nomatch	noir	-1	0	y	0.88689
640.8492	0.2	galoper	70	verb	phrase	3	10	nomatch	noir	-1	0	y	0.88689
641.0492	0.0	+	70	verb	phrase	3	11	nomatch	noir	-1	0	y	0.88689
641.4491	0.0	+	70	verb	phrase	3	12	nomatch	noir	-1	0	y	0.88689
643.4490000000001	0.0	NOIR	70	verb	phrase	3	13	nomatch	noir	-1	0	y	0.88689
644.3989	0.0	+	70	verb	phrase	3	14	nomatch	noir	-1	0	y	0.88689
644.3359	0.0	[response]	70	verb	phrase	3	15	nomatch	noir	-1	0	y	0.88689
645.8487	0.0	+	71	noun	list	1	1	nomatch	vieux	-1	1	p	1.3838
646.3987000000001	0.2	qpcxvmr	71	noun	list	1	2	nomatch	vieux	-1	1	p	1.3838
646.5987	0.0	+	71	noun	list	1	3	nomatch	vieux	-1	1	p	1.3838
646.9986	0.2	xmv	71	noun	list	1	4	nomatch	vieux	-1	1	p	1.3838
647.1986	0.0	+	71	noun	list	1	5	nomatch	vieux	-1	1	p	1.3838
647.5986	0.2	tpgs	71	noun	list	1	6	nomatch	vieux	-1	1	p	1.3838
647.7986000000001	0.0	+	71	noun	list	1	7	nomatch	vieux	-1	1	p	1.3838
648.1985000000001	0.2	qvjpbr	71	noun	list	1	8	nomatch	vieux	-1	1	p	1.3838
648.3985	0.0	+	71	noun	list	1	9	nomatch	vieux	-1	1	p	1.3838
648.7985	0.2	loin	71	noun	list	1	10	nomatch	vieux	-1	1	p	1.3838
648.9985	0.0	+	71	noun	list	1	11	nomatch	vieux	-1	1	p	1.3838
649.3984	0.0	+	71	noun	list	1	12	nomatch	vieux	-1	1	p	1.3838
651.3982000000001	0.0	VIEUX	71	noun	list	1	13	nomatch	vieux	-1	1	p	1.3838
652.8481	0.0	+	71	noun	list	1	14	nomatch	vieux	-1	1	p	1.3838
652.7820000000002	0.0	[response]	71	noun	list	1	15	nomatch	vieux	-1	1	p	1.3838
653.798	0.0	+	72	verb	phrase	1	1	nomatch	luc	-1	0	TIMEOUT	-1.0
654.3480000000001	0.2	tdhp	72	verb	phrase	1	2	nomatch	luc	-1	0	TIMEOUT	-1.0
654.548	0.0	+	72	verb	phrase	1	3	nomatch	luc	-1	0	TIMEOUT	-1.0
654.9479	0.2	mpdb	72	verb	phrase	1	4	nomatch	luc	-1	0	TIMEOUT	-1.0
655.1479	0.0	+	72	verb	phrase	1	5	nomatch	luc	-1	0	TIMEOUT	-1.0
655.5479	0.2	svhw	72	verb	phrase	1	6	nomatch	luc	-1	0	TIMEOUT	-1.0
655.7479000000001	0.0	+	72	verb	phrase	1	7	nomatch	luc	-1	0	TIMEOUT	-1.0
656.1478000000001	0.2	tzds	72	verb	phrase	1	8	nomatch	luc	-1	0	TIMEOUT	-1.0
656.3478	0.0	+	72	verb	phrase	1	9	nomatch	luc	-1	0	TIMEOUT	-1.0
656.7478	0.2	jongler	72	verb	phrase	1	10	nomatch	luc	-1	0	TIMEOUT	-1.0
656.9477	0.0	+	72	verb	phrase	1	11	nomatch	luc	-1	0	TIMEOUT	-1.0
657.3477	0.0	+	72	verb	phrase	1	12	nomatch	luc	-1	0	TIMEOUT	-1.0
659.3475000000001	0.0	LUC	72	verb	phrase	1	13	nomatch	luc	-1	0	TIMEOUT	-1.0
685.7451	0.0	+	73	verb	phrase	3	1	match	peut	3	0	TIMEOUT	-1.0
686.3451	0.2	xtp	73	verb	phrase	3	2	match	peut	3	0	TIMEOUT	-1.0
686.5451	0.0	+	73	verb	phrase	3	3	match	peut	3	0	TIMEOUT	-1.0
686.945	0.2	rmkt	73	verb	phrase	3	4	match	peut	3	0	TIMEOUT	-1.0
687.145	0.0	+	73	verb	phrase	3	5	match	peut	3	0	TIMEOUT	-1.0
687.5450000000001	0.2	peut	73	verb	phrase	3	6	match	peut	3	0	TIMEOUT	-1.0
687.745	0.0	+	73	verb	phrase	3	7	match	peut	3	0	TIMEOUT	-1.0
688.1449	0.2	moins	73	verb	phrase	3	8	match	peut	3	0	TIMEOUT	-1.0
688.3449	0.0	+	73	verb	phrase	3	9	match	peut	3	0	TIMEOUT	-1.0
688.7449	0.2	chasser	73	verb	phrase	3	10	match	peut	3	0	TIMEOUT	-1.0
688.9449000000001	0.0	+	73	verb	phrase	3	11	match	peut	3	0	TIMEOUT	-1.0
689.3448000000001	0.0	+	73	verb	phrase	3	12	match	peut	3	0	TIMEOUT	-1.0
691.3446	0.0	PEUT	73	verb	phrase	3	13	match	peut	3	0	TIMEOUT	-1.0
693.7444	0.0	+	74	verb	phrase	1	1	match	voyager	5	0	TIMEOUT	-1.0
694.3444000000001	0.2	vljrpnc	74	verb	phrase	1	2	match	voyager	5	0	TIMEOUT	-1.0
694.5444	0.0	+	74	verb	phrase	1	3	match	voyager	5	0	TIMEOUT	-1.0
694.9443	0.2	mpdb	74	verb	phrase	1	4	match	voyager	5	0	TIMEOUT	-1.0
695.1443	0.0	+	74	verb	phrase	1	5	match	voyager	5	0	TIMEOUT	-1.0
695.5443	0.2	svhw	74	verb	phrase	1	6	match	voyager	5	0	TIMEOUT	-1.0
695.7442000000001	0.0	+	74	verb	phrase	1	7	match	voyager	5	0	TIMEOUT	-1.0
696.1442000000001	0.2	lsgz	74	verb	phrase	1	8	match	voyager	5	0	TIMEOUT	-1.0
696.3442	0.0	+	74	verb	phrase	1	9	match	voyager	5	0	TIMEOUT	-1.0
696.7441	0.2	voyager	74	verb	phrase	1	10	match	voyager	5	0	TIMEOUT	-1.0
696.9441	0.0	+	74	verb	phrase	1	11	match	voyager	5	0	TIMEOUT	-1.0
697.3441	0.0	+	74	verb	phrase	1	12	match	voyager	5	0	TIMEOUT	-1.0
699.3439000000001	0.0	VOYAGER	74	verb	phrase	1	13	match	voyager	5	0	TIMEOUT	-1.0
709.743	0.0	+	75	noun	phrase	1	1	nomatch	panier	-1	0	TIMEOUT	-1.0
710.3429	0.2	vxrnbq	75	noun	phrase	1	2	nomatch	panier	-1	0	TIMEOUT	-1.0
710.5429	0.0	+	75	noun	phrase	1	3	nomatch	panier	-1	0	TIMEOUT	-1.0
710.9429	0.2	xrfg	75	noun	phrase	1	4	nomatch	panier	-1	0	TIMEOUT	-1.0
711.1428000000001	0.0	+	75	noun	phrase	1	5	nomatch	panier	-1	0	TIMEOUT	-1.0
711.5428	0.2	lgcv	75	noun	phrase	1	6	nomatch	panier	-1	0	TIMEOUT	-1.0
711.7428	0.0	+	75	noun	phrase	1	7	nomatch	panier	-1	0	TIMEOUT	-1.0
712.1428000000001	0.2	xdtrblp	75	noun	phrase	1	8	nomatch	panier	-1	0	TIMEOUT	-1.0
712.3427	0.0	+	75	noun	phrase	1	9	nomatch	panier	-1	0	TIMEOUT	-1.0
712.7427	0.2	tablier	75	noun	phrase	1	10	nomatch	panier	-1	0	TIMEOUT	-1.0
712.9427000000001	0.0	+	75	noun	phrase	1	11	nomatch	panier	-1	0	TIMEOUT	-1.0
713.3426000000001	0.0	+	75	noun	phrase	1	12	nomatch	panier	-1	0	TIMEOUT	-1.0
715.3425000000001	0.0	PANIER	75	noun	phrase	1	13	nomatch	panier	-1	0	TIMEOUT	-1.0
717.7422	0.0	+	76	verb	phrase	2	1	match	tôt	5	0	TIMEOUT	-1.0
718.3422	0.2	rchzp	76	verb	phrase	2	2	match	tôt	5	0	TIMEOUT	-1.0
718.5422	0.0	+	76	verb	phrase	2	3	match	tôt	5	0	TIMEOUT	-1.0
718.9421	0.2	mpdb	76	verb	phrase	2	4	match	tôt	5	0	TIMEOUT	-1.0
719.1421	0.0	+	76	verb	phrase	2	5	match	tôt	5	0	TIMEOUT	-1.0
719.5421	0.2	svhw	76	verb	phrase	2	6	match	tôt	5	0	TIMEOUT	-1.0
719.7421	0.0	+	76	verb	phrase	2	7	match	tôt	5	0	TIMEOUT	-1.0
720.142	0.2	jongler	76	verb	phrase	2	8	match	tôt	5	0	TIMEOUT	-1.0
720.342	0.0	+	76	verb	phrase	2	9	match	tôt	5	0	TIMEOUT	-1.0
720.7420000000001	0.2	tôt	76	verb	phrase	2	10	match	tôt	5	0	TIMEOUT	-1.0
720.942	0.0	+	76	verb	phrase	2	11	match	tôt	5	0	TIMEOUT	-1.0
721.3419	0.0	+	76	verb	phrase	2	12	match	tôt	5	0	TIMEOUT	-1.0
723.3417000000001	0.0	TÔT	76	verb	phrase	2	13	match	tôt	5	0	TIMEOUT	-1.0
725.7415000000001	0.0	+	77	verb	list	4	1	nomatch	nager	-1	0	TIMEOUT	-1.0
726.3415	0.2	kvclnx	77	verb	list	4	2	nomatch	nager	-1	0	TIMEOUT	-1.0
726.5415	0.0	+	77	verb	list	4	3	nomatch	nager	-1	0	TIMEOUT	-1.0
726.9414	0.2	paul	77	verb	list	4	4	nomatch	nager	-1	0	TIMEOUT	-1.0
727.1414000000001	0.0	+	77	verb	list	4	5	nomatch	nager	-1	0	TIMEOUT	-1.0
727.5414000000001	0.2	mon	77	verb	list	4	6	nomatch	nager	-1	0	TIMEOUT	-1.0
727.7413	0.0	+	77	verb	list	4	7	nomatch	nager	-1	0	TIMEOUT	-1.0
728.1413	0.2	voyager	77	verb	list	4	8	nomatch	nager	-1	0	TIMEOUT	-1.0
728.3413	0.0	+	77	verb	list	4	9	nomatch	nager	-1	0	TIMEOUT	-1.0
728.7413	0.2	vert	77	verb	list	4	10	nomatch	nager	-1	0	TIMEOUT	-1.0
728.9412	0.0	+	77	verb	list	4	11	nomatch	nager	-1	0	TIMEOUT	-1.0
729.3412000000001	0.0	+	77	verb	list	4	12	nomatch	nager	-1	0	TIMEOUT	-1.0
731.341	0.0	NAGER	77	verb	list	4	13	nomatch	nager	-1	0	TIMEOUT	-1.0
733.7408	0.0	+	78	verb	list	1	1	nomatch	parader	-1	0	TIMEOUT	-1.0
734.3408000000001	0.2	xmb	78	verb	list	1	2	nomatch	parader	-1	0	TIMEOUT	-1.0
734.5407	0.0	+	78	verb	list	1	3	nomatch	parader	-1	0	TIMEOUT	-1.0
734.9407	0.2	kszh	78	verb	list	1	4	nomatch	parader	-1	0	TIMEOUT	-1.0
735.1407	0.0	+	78	verb	list	1	5	nomatch	parader	-1	0	TIMEOUT	-1.0
735.5406	0.2	svhw	78	verb	list	1	6	nomatch	parader	-1	0	TIMEOUT	-1.0
735.7406000000001	0.0	+	78	verb	list	1	7	nomatch	parader	-1	0	TIMEOUT	-1.0
736.1406000000001	0.2	xvsdk	78	verb	list	1	8	nomatch	parader	-1	0	TIMEOUT	-1.0
736.3406	0.0	+	78	verb	list	1	9	nomatch	parader	-1	0	TIMEOUT	-1.0
736.7405	0.2	jongler	78	verb	list	1	10	nomatch	parader	-1	0	TIMEOUT	-1.0
736.9405	0.0	+	78	verb	list	1	11	nomatch	parader	-1	0	TIMEOUT	-1.0
737.3405	0.0	+	78	verb	list	1	12	nomatch	parader	-1	0	TIMEOUT	-1.0
739.3403000000001	0.0	PARADER	78	verb	list	1	13	nomatch	parader	-1	0	TIMEOUT	-1.0
749.7394	0.0	+	79	verb	phrase	2	1	nomatch	danser	-1	0	TIMEOUT	-1.0
750.3393	0.2	dth	79	verb	phrase	2	2	nomatch	danser	-1	0	TIMEOUT	-1.0
750.5393	0.0	+	79	verb	phrase	2	3	nomatch	danser	-1	0	TIMEOUT	-1.0
750.9393	0.2	dmgj	79	verb	phrase	2	4	nomatch	danser	-1	0	TIMEOUT	-1.0
751.1392000000001	0.0	+	79	verb	phrase	2	5	nomatch	danser	-1	0	TIMEOUT	-1.0
751.5392	0.2	tpgs	79	verb	phrase	2	6	nomatch	danser	-1	0	TIMEOUT	-1.0
751.7392	0.0	+	79	verb	phrase	2	7	nomatch	danser	-1	0	TIMEOUT	-1.0
752.1391	0.2	voyager	79	verb	phrase	2	8	nomatch	danser	-1	0	TIMEOUT	-1.0
752.3391	0.0	+	79	verb	phrase	2	9	nomatch	danser	-1	0	TIMEOUT	-1.0
752.7391	0.2	tard	79	verb	phrase	2	10	nomatch	danser	-1	0	TIMEOUT	-1.0
752.9391	0.0	+	79	verb	phrase	2	11	nomatch	danser	-1	0	TIMEOUT	-1.0
753.339	0.0	+	79	verb	phrase	2	12	nomatch	danser	-1	0	TIMEOUT	-1.0
755.3389000000001	0.0	DANSER	79	verb	phrase	2	13	nomatch	danser	-1	0	TIMEOUT	-1.0
757.7386	0.0	+	80	verb	phrase	1	1	nomatch	trop	-1	0	TIMEOUT	-1.0
758.3386	0.2	zhr	80	verb	phrase	1	2	nomatch	trop	-1	0	TIMEOUT	-1.0
758.5386000000001	0.0	+	80	verb	phrase	1	3	nomatch	trop	-1	0	TIMEOUT	-1.0
758.9385000000001	0.2	vtwj	80	verb	phrase	1	4	nomatch	trop	-1	0	TIMEOUT	-1.0
759.1385	0.0	+	80	verb	phrase	1	5	nomatch	trop	-1	0	TIMEOUT	-1.0
759.5385	0.2	cn	80	verb	phrase	1	6	nomatch	trop	-1	0	TIMEOUT	-1.0
759.7385	0.0	+	80	verb	phrase	1	7	nomatch	trop	-1	0	TIMEOUT	-1.0
760.1384	0.2	rcvhxtm	80	verb	phrase	1	8	nomatch	trop	-1	0	TIMEOUT	-1.0
760.3384	0.0	+	80	verb	phrase	1	9	nomatch	trop	-1	0	TIMEOUT	-1.0
760.7384000000001	0.2	plus	80	verb	phrase	1	10	nomatch	trop	-1	0	TIMEOUT	-1.0
760.9383	0.0	+	80	verb	phrase	1	11	nomatch	trop	-1	0	TIMEOUT	-1.0
761.3383	0.0	+	80	verb	phrase	1	12	nomatch	trop	-1	0	TIMEOUT	-1.0
763.3381	0.0	TROP	80	verb	phrase	1	13	nomatch	trop	-1	0	TIMEOUT	-1.0
765.7546	0.0	+	80	verb	phrase	1	14	nomatch	trop	-1	0	TIMEOUT	-1.0
766.5045	0.0	+	80	verb	phrase	1	15	nomatch	trop	-1	0	TIMEOUT	-1.0
766.6045	0.0	+	80	verb	phrase	1	16	nomatch	trop	-1	0	TIMEOUT	-1.0
767.9877	0.0	+	80	verb	phrase	1	17	nomatch	trop	-1	0	TIMEOUT	-1.0
768.0877	0.0	+	80	verb	phrase	1	18	nomatch	trop	-1	0	TIMEOUT	-1.0
769.5042000000001	0.0	+	80	verb	phrase	1	19	nomatch	trop	-1	0	TIMEOUT	-1.0
769.6042	0.0	+	80	verb	phrase	1	20	nomatch	trop	-1	0	TIMEOUT	-1.0
770.9874	0.0	+	80	verb	phrase	1	21	nomatch	trop	-1	0	TIMEOUT	-1.0
771.0874	0.0	+	80	verb	phrase	1	22	nomatch	trop	-1	0	TIMEOUT	-1.0
772.504	0.0	+	80	verb	phrase	1	23	nomatch	trop	-1	0	TIMEOUT	-1.0
772.604	0.0	+	80	verb	phrase	1	24	nomatch	trop	-1	0	TIMEOUT	-1.0
773.9872	0.0	+	80	verb	phrase	1	25	nomatch	trop	-1	0	TIMEOUT	-1.0
774.0872	0.0	+	80	verb	phrase	1	26	nomatch	trop	-1	0	TIMEOUT	-1.0
775.5037	0.0	+	80	verb	phrase	1	27	nomatch	trop	-1	0	TIMEOUT	-1.0
775.6037	0.0	+	80	verb	phrase	1	28	nomatch	trop	-1	0	TIMEOUT	-1.0
776.9869	0.0	+	80	verb	phrase	1	29	nomatch	trop	-1	0	TIMEOUT	-1.0
777.0869	0.0	+	80	verb	phrase	1	30	nomatch	trop	-1	0	TIMEOUT	-1.0
778.5034	0.0	+	80	verb	phrase	1	31	nomatch	trop	-1	0	TIMEOUT	-1.0
778.6034000000001	0.0	+	80	verb	phrase	1	32	nomatch	trop	-1	0	TIMEOUT	-1.0
784.8529000000001	0.0	+	80	verb	phrase	1	33	nomatch	trop	-1	0	TIMEOUT	-1.0
