onset	duration	stim	trial_number	trial_type	trial_structure	trial_length	sequential_position	probe_type	probe	probe_position	response_correct	response_key	response_time
0.06530000000000769	0.0	+	1	verb	phrase	2	1	match	parader	5	1	y	0.59453
0.5486000000000075	0.2	lrfnzp	1	verb	phrase	2	2	match	parader	5	1	y	0.59453
0.7486000000000104	0.0	+	1	verb	phrase	2	3	match	parader	5	1	y	0.59453
1.1484999999999985	0.2	cvq	1	verb	phrase	2	4	match	parader	5	1	y	0.59453
1.3485000000000014	0.0	+	1	verb	phrase	2	5	match	parader	5	1	y	0.59453
1.748500000000007	0.2	tpgs	1	verb	phrase	2	6	match	parader	5	1	y	0.59453
1.94850000000001	0.0	+	1	verb	phrase	2	7	match	parader	5	1	y	0.59453
2.348399999999998	0.2	beaucoup	1	verb	phrase	2	8	match	parader	5	1	y	0.59453
2.548400000000001	0.0	+	1	verb	phrase	2	9	match	parader	5	1	y	0.59453
2.9484000000000066	0.2	parader	1	verb	phrase	2	10	match	parader	5	1	y	0.59453
3.1484000000000094	0.0	+	1	verb	phrase	2	11	match	parader	5	1	y	0.59453
3.5482999999999976	0.0	+	1	verb	phrase	2	12	match	parader	5	1	y	0.59453
5.548100000000005	0.0	PARADER	1	verb	phrase	2	13	match	parader	5	1	y	0.59453
6.198100000000011	0.0	+	1	verb	phrase	2	14	match	parader	5	1	y	0.59453
6.142700000000005	0.0	[response]	1	verb	phrase	2	15	match	parader	5	1	y	0.59453
7.947900000000004	0.0	+	2	noun	phrase	3	1	match	son	3	1	y	0.59131
8.497900000000001	0.2	wjd	2	noun	phrase	3	2	match	son	3	1	y	0.59131
8.697900000000004	0.0	+	2	noun	phrase	3	3	match	son	3	1	y	0.59131
9.097800000000007	0.2	wcbs	2	noun	phrase	3	4	match	son	3	1	y	0.59131
9.29780000000001	0.0	+	2	noun	phrase	3	5	match	son	3	1	y	0.59131
9.6978	0.2	son	2	noun	phrase	3	6	match	son	3	1	y	0.59131
9.897800000000004	0.0	+	2	noun	phrase	3	7	match	son	3	1	y	0.59131
10.297700000000006	0.2	panier	2	noun	phrase	3	8	match	son	3	1	y	0.59131
10.497700000000009	0.0	+	2	noun	phrase	3	9	match	son	3	1	y	0.59131
10.8977	0.2	rouge	2	noun	phrase	3	10	match	son	3	1	y	0.59131
11.0976	0.0	+	2	noun	phrase	3	11	match	son	3	1	y	0.59131
11.497600000000006	0.0	+	2	noun	phrase	3	12	match	son	3	1	y	0.59131
13.497399999999999	0.0	SON	2	noun	phrase	3	13	match	son	3	1	y	0.59131
14.147400000000005	0.0	+	2	noun	phrase	3	14	match	son	3	1	y	0.59131
14.088700000000003	0.0	[response]	2	noun	phrase	3	15	match	son	3	1	y	0.59131
15.897199999999998	0.0	+	3	noun	phrase	3	1	nomatch	adam	-1	1	p	0.5299900000000001
16.44720000000001	0.2	pjsw	3	noun	phrase	3	2	nomatch	adam	-1	1	p	0.5299900000000001
16.64710000000001	0.0	+	3	noun	phrase	3	3	nomatch	adam	-1	1	p	0.5299900000000001
17.0471	0.2	xmv	3	noun	phrase	3	4	nomatch	adam	-1	1	p	0.5299900000000001
17.247100000000003	0.0	+	3	noun	phrase	3	5	nomatch	adam	-1	1	p	0.5299900000000001
17.64710000000001	0.2	leur	3	noun	phrase	3	6	nomatch	adam	-1	1	p	0.5299900000000001
17.84700000000001	0.0	+	3	noun	phrase	3	7	nomatch	adam	-1	1	p	0.5299900000000001
18.247	0.2	petit	3	noun	phrase	3	8	nomatch	adam	-1	1	p	0.5299900000000001
18.447000000000003	0.0	+	3	noun	phrase	3	9	nomatch	adam	-1	1	p	0.5299900000000001
18.84700000000001	0.2	tablier	3	noun	phrase	3	10	nomatch	adam	-1	1	p	0.5299900000000001
19.046899999999994	0.0	+	3	noun	phrase	3	11	nomatch	adam	-1	1	p	0.5299900000000001
19.4469	0.0	+	3	noun	phrase	3	12	nomatch	adam	-1	1	p	0.5299900000000001
21.446699999999993	0.0	ADAM	3	noun	phrase	3	13	nomatch	adam	-1	1	p	0.5299900000000001
22.046700000000016	0.0	+	3	noun	phrase	3	14	nomatch	adam	-1	1	p	0.5299900000000001
21.976699999999994	0.0	[response]	3	noun	phrase	3	15	nomatch	adam	-1	1	p	0.5299900000000001
23.846499999999992	0.0	+	4	noun	phrase	1	1	nomatch	vert	-1	1	p	0.47056000000000003
24.3964	0.2	zshfj	4	noun	phrase	1	2	nomatch	vert	-1	1	p	0.47056000000000003
24.596400000000017	0.0	+	4	noun	phrase	1	3	nomatch	vert	-1	1	p	0.47056000000000003
24.996399999999994	0.2	scjw	4	noun	phrase	1	4	nomatch	vert	-1	1	p	0.47056000000000003
25.19640000000001	0.0	+	4	noun	phrase	1	5	nomatch	vert	-1	1	p	0.47056000000000003
25.596300000000014	0.2	rbh	4	noun	phrase	1	6	nomatch	vert	-1	1	p	0.47056000000000003
25.796300000000002	0.0	+	4	noun	phrase	1	7	nomatch	vert	-1	1	p	0.47056000000000003
26.196300000000008	0.2	lcvhfq	4	noun	phrase	1	8	nomatch	vert	-1	1	p	0.47056000000000003
26.396299999999997	0.0	+	4	noun	phrase	1	9	nomatch	vert	-1	1	p	0.47056000000000003
26.7962	0.2	bleu	4	noun	phrase	1	10	nomatch	vert	-1	1	p	0.47056000000000003
26.996200000000016	0.0	+	4	noun	phrase	1	11	nomatch	vert	-1	1	p	0.47056000000000003
27.396199999999993	0.0	+	4	noun	phrase	1	12	nomatch	vert	-1	1	p	0.47056000000000003
29.396000000000015	0.0	VERT	4	noun	phrase	1	13	nomatch	vert	-1	1	p	0.47056000000000003
29.929300000000012	0.0	+	4	noun	phrase	1	14	nomatch	vert	-1	1	p	0.47056000000000003
29.866600000000005	0.0	[response]	4	noun	phrase	1	15	nomatch	vert	-1	1	p	0.47056000000000003
31.795800000000014	0.0	+	5	noun	list	2	1	nomatch	rocher	-1	1	p	0.6189
32.345699999999994	0.2	vlkqncr	5	noun	list	2	2	nomatch	rocher	-1	1	p	0.6189
32.54570000000001	0.0	+	5	noun	list	2	3	nomatch	rocher	-1	1	p	0.6189
32.945700000000016	0.2	dmgj	5	noun	list	2	4	nomatch	rocher	-1	1	p	0.6189
33.145700000000005	0.0	+	5	noun	list	2	5	nomatch	rocher	-1	1	p	0.6189
33.54560000000001	0.2	lgcv	5	noun	list	2	6	nomatch	rocher	-1	1	p	0.6189
33.745599999999996	0.0	+	5	noun	list	2	7	nomatch	rocher	-1	1	p	0.6189
34.1456	0.2	moins	5	noun	list	2	8	nomatch	rocher	-1	1	p	0.6189
34.34559999999999	0.0	+	5	noun	list	2	9	nomatch	rocher	-1	1	p	0.6189
34.74549999999999	0.2	cendrier	5	noun	list	2	10	nomatch	rocher	-1	1	p	0.6189
34.94550000000001	0.0	+	5	noun	list	2	11	nomatch	rocher	-1	1	p	0.6189
35.345500000000015	0.0	+	5	noun	list	2	12	nomatch	rocher	-1	1	p	0.6189
37.34530000000001	0.0	ROCHER	5	noun	list	2	13	nomatch	rocher	-1	1	p	0.6189
38.02850000000001	0.0	+	5	noun	list	2	14	nomatch	rocher	-1	1	p	0.6189
37.964200000000005	0.0	[response]	5	noun	list	2	15	nomatch	rocher	-1	1	p	0.6189
39.74510000000001	0.0	+	6	noun	phrase	1	1	nomatch	vieux	-1	1	p	0.75593
40.295000000000016	0.2	vjrd	6	noun	phrase	1	2	nomatch	vieux	-1	1	p	0.75593
40.495000000000005	0.0	+	6	noun	phrase	1	3	nomatch	vieux	-1	1	p	0.75593
40.89500000000001	0.2	jkhs	6	noun	phrase	1	4	nomatch	vieux	-1	1	p	0.75593
41.094899999999996	0.0	+	6	noun	phrase	1	5	nomatch	vieux	-1	1	p	0.75593
41.4949	0.2	vft	6	noun	phrase	1	6	nomatch	vieux	-1	1	p	0.75593
41.69490000000002	0.0	+	6	noun	phrase	1	7	nomatch	vieux	-1	1	p	0.75593
42.094899999999996	0.2	bxlqtjp	6	noun	phrase	1	8	nomatch	vieux	-1	1	p	0.75593
42.29480000000001	0.0	+	6	noun	phrase	1	9	nomatch	vieux	-1	1	p	0.75593
42.69540000000001	0.2	petit	6	noun	phrase	1	10	nomatch	vieux	-1	1	p	0.75593
42.894800000000004	0.0	+	6	noun	phrase	1	11	nomatch	vieux	-1	1	p	0.75593
43.294700000000006	0.0	+	6	noun	phrase	1	12	nomatch	vieux	-1	1	p	0.75593
45.2946	0.0	VIEUX	6	noun	phrase	1	13	nomatch	vieux	-1	1	p	0.75593
46.11109999999999	0.0	+	6	noun	phrase	1	14	nomatch	vieux	-1	1	p	0.75593
46.0505	0.0	[response]	6	noun	phrase	1	15	nomatch	vieux	-1	1	p	0.75593
47.6944	0.0	+	7	noun	list	1	1	match	moins	5	1	y	0.47227
48.24430000000001	0.2	ljthbqv	7	noun	list	1	2	match	moins	5	1	y	0.47227
48.4443	0.0	+	7	noun	list	1	3	match	moins	5	1	y	0.47227
48.8442	0.2	mpdb	7	noun	list	1	4	match	moins	5	1	y	0.47227
49.04420000000002	0.0	+	7	noun	list	1	5	match	moins	5	1	y	0.47227
49.444199999999995	0.2	lgcv	7	noun	list	1	6	match	moins	5	1	y	0.47227
49.64420000000001	0.0	+	7	noun	list	1	7	match	moins	5	1	y	0.47227
50.044100000000014	0.2	fdhrjzs	7	noun	list	1	8	match	moins	5	1	y	0.47227
50.2441	0.0	+	7	noun	list	1	9	match	moins	5	1	y	0.47227
50.64410000000001	0.2	moins	7	noun	list	1	10	match	moins	5	1	y	0.47227
50.8441	0.0	+	7	noun	list	1	11	match	moins	5	1	y	0.47227
51.244	0.0	+	7	noun	list	1	12	match	moins	5	1	y	0.47227
53.24379999999999	0.0	MOINS	7	noun	list	1	13	match	moins	5	1	y	0.47227
53.77710000000002	0.0	+	7	noun	list	1	14	match	moins	5	1	y	0.47227
53.71610000000001	0.0	[response]	7	noun	list	1	15	match	moins	5	1	y	0.47227
55.64359999999999	0.0	+	8	noun	phrase	4	1	match	mon	3	1	y	1.2245
56.1936	0.2	sqrkbc	8	noun	phrase	4	2	match	mon	3	1	y	1.2245
56.39359999999999	0.0	+	8	noun	phrase	4	3	match	mon	3	1	y	1.2245
56.793499999999995	0.2	sur	8	noun	phrase	4	4	match	mon	3	1	y	1.2245
56.99350000000001	0.0	+	8	noun	phrase	4	5	match	mon	3	1	y	1.2245
57.39350000000002	0.2	mon	8	noun	phrase	4	6	match	mon	3	1	y	1.2245
57.593500000000006	0.0	+	8	noun	phrase	4	7	match	mon	3	1	y	1.2245
57.99340000000001	0.2	casier	8	noun	phrase	4	8	match	mon	3	1	y	1.2245
58.1934	0.0	+	8	noun	phrase	4	9	match	mon	3	1	y	1.2245
58.5934	0.2	vert	8	noun	phrase	4	10	match	mon	3	1	y	1.2245
58.793300000000016	0.0	+	8	noun	phrase	4	11	match	mon	3	1	y	1.2245
59.193299999999994	0.0	+	8	noun	phrase	4	12	match	mon	3	1	y	1.2245
61.193100000000015	0.0	MON	8	noun	phrase	4	13	match	mon	3	1	y	1.2245
62.47630000000001	0.0	+	8	noun	phrase	4	14	match	mon	3	1	y	1.2245
62.417699999999996	0.0	[response]	8	noun	phrase	4	15	match	mon	3	1	y	1.2245
71.59219999999999	0.0	+	9	noun	phrase	1	1	nomatch	panier	-1	1	p	0.6219500000000001
72.1421	0.2	jdm	9	noun	phrase	1	2	nomatch	panier	-1	1	p	0.6219500000000001
72.34210000000002	0.0	+	9	noun	phrase	1	3	nomatch	panier	-1	1	p	0.6219500000000001
72.7421	0.2	xrfg	9	noun	phrase	1	4	nomatch	panier	-1	1	p	0.6219500000000001
72.94220000000001	0.0	+	9	noun	phrase	1	5	nomatch	panier	-1	1	p	0.6219500000000001
73.34200000000001	0.2	vft	9	noun	phrase	1	6	nomatch	panier	-1	1	p	0.6219500000000001
73.542	0.0	+	9	noun	phrase	1	7	nomatch	panier	-1	1	p	0.6219500000000001
73.94200000000001	0.2	hkngm	9	noun	phrase	1	8	nomatch	panier	-1	1	p	0.6219500000000001
74.142	0.0	+	9	noun	phrase	1	9	nomatch	panier	-1	1	p	0.6219500000000001
74.5419	0.2	grenier	9	noun	phrase	1	10	nomatch	panier	-1	1	p	0.6219500000000001
74.74190000000002	0.0	+	9	noun	phrase	1	11	nomatch	panier	-1	1	p	0.6219500000000001
75.14189999999999	0.0	+	9	noun	phrase	1	12	nomatch	panier	-1	1	p	0.6219500000000001
77.14170000000001	0.0	PANIER	9	noun	phrase	1	13	nomatch	panier	-1	1	p	0.6219500000000001
77.82500000000002	0.0	+	9	noun	phrase	1	14	nomatch	panier	-1	1	p	0.6219500000000001
77.7636	0.0	[response]	9	noun	phrase	1	15	nomatch	panier	-1	1	p	0.6219500000000001
79.54150000000001	0.0	+	10	noun	phrase	4	1	match	pour	2	1	y	0.93825
80.0914	0.2	gvqmj	10	noun	phrase	4	2	match	pour	2	1	y	0.93825
80.29140000000001	0.0	+	10	noun	phrase	4	3	match	pour	2	1	y	0.93825
80.69140000000002	0.2	pour	10	noun	phrase	4	4	match	pour	2	1	y	0.93825
80.8913	0.0	+	10	noun	phrase	4	5	match	pour	2	1	y	0.93825
81.2913	0.2	mon	10	noun	phrase	4	6	match	pour	2	1	y	0.93825
81.4913	0.0	+	10	noun	phrase	4	7	match	pour	2	1	y	0.93825
81.8913	0.2	tablier	10	noun	phrase	4	8	match	pour	2	1	y	0.93825
82.09120000000001	0.0	+	10	noun	phrase	4	9	match	pour	2	1	y	0.93825
82.49119999999999	0.2	vert	10	noun	phrase	4	10	match	pour	2	1	y	0.93825
82.69120000000001	0.0	+	10	noun	phrase	4	11	match	pour	2	1	y	0.93825
83.09120000000001	0.0	+	10	noun	phrase	4	12	match	pour	2	1	y	0.93825
85.09100000000001	0.0	POUR	10	noun	phrase	4	13	match	pour	2	1	y	0.93825
86.0909	0.0	+	10	noun	phrase	4	14	match	pour	2	1	y	0.93825
86.0292	0.0	[response]	10	noun	phrase	4	15	match	pour	2	1	y	0.93825
87.4907	0.0	+	11	verb	list	2	1	match	vieux	4	1	y	0.49285
88.04070000000002	0.2	gdfxhq	11	verb	list	2	2	match	vieux	4	1	y	0.49285
88.2407	0.0	+	11	verb	list	2	3	match	vieux	4	1	y	0.49285
88.64070000000001	0.2	scjw	11	verb	list	2	4	match	vieux	4	1	y	0.49285
88.8406	0.0	+	11	verb	list	2	5	match	vieux	4	1	y	0.49285
89.2406	0.2	svhw	11	verb	list	2	6	match	vieux	4	1	y	0.49285
89.44060000000002	0.0	+	11	verb	list	2	7	match	vieux	4	1	y	0.49285
89.84049999999999	0.2	vieux	11	verb	list	2	8	match	vieux	4	1	y	0.49285
90.04050000000001	0.0	+	11	verb	list	2	9	match	vieux	4	1	y	0.49285
90.44050000000001	0.2	danser	11	verb	list	2	10	match	vieux	4	1	y	0.49285
90.6405	0.0	+	11	verb	list	2	11	match	vieux	4	1	y	0.49285
91.0404	0.0	+	11	verb	list	2	12	match	vieux	4	1	y	0.49285
93.0403	0.0	VIEUX	11	verb	list	2	13	match	vieux	4	1	y	0.49285
93.59020000000001	0.0	+	11	verb	list	2	14	match	vieux	4	1	y	0.49285
93.53309999999999	0.0	[response]	11	verb	list	2	15	match	vieux	4	1	y	0.49285
95.44	0.0	+	12	noun	list	3	1	match	vite	5	1	y	0.59329
95.99000000000001	0.2	mcqlbzp	12	noun	list	3	2	match	vite	5	1	y	0.59329
96.19	0.0	+	12	noun	list	3	3	match	vite	5	1	y	0.59329
96.5899	0.2	jkhs	12	noun	list	3	4	match	vite	5	1	y	0.59329
96.78990000000002	0.0	+	12	noun	list	3	5	match	vite	5	1	y	0.59329
97.1899	0.2	doit	12	noun	list	3	6	match	vite	5	1	y	0.59329
97.38990000000001	0.0	+	12	noun	list	3	7	match	vite	5	1	y	0.59329
97.78980000000001	0.2	rocher	12	noun	list	3	8	match	vite	5	1	y	0.59329
97.9898	0.0	+	12	noun	list	3	9	match	vite	5	1	y	0.59329
98.38980000000001	0.2	vite	12	noun	list	3	10	match	vite	5	1	y	0.59329
98.5898	0.0	+	12	noun	list	3	11	match	vite	5	1	y	0.59329
98.9897	0.0	+	12	noun	list	3	12	match	vite	5	1	y	0.59329
100.98949999999999	0.0	VITE	12	noun	list	3	13	match	vite	5	1	y	0.59329
101.6395	0.0	+	12	noun	list	3	14	match	vite	5	1	y	0.59329
101.58280000000002	0.0	[response]	12	noun	list	3	15	match	vite	5	1	y	0.59329
103.38929999999999	0.0	+	13	noun	phrase	2	1	nomatch	noir	-1	1	p	0.65382
103.9393	0.2	lxdmt	13	noun	phrase	2	2	nomatch	noir	-1	1	p	0.65382
104.13929999999999	0.0	+	13	noun	phrase	2	3	nomatch	noir	-1	1	p	0.65382
104.5392	0.2	kszh	13	noun	phrase	2	4	nomatch	noir	-1	1	p	0.65382
104.73920000000001	0.0	+	13	noun	phrase	2	5	nomatch	noir	-1	1	p	0.65382
105.13920000000002	0.2	lgcv	13	noun	phrase	2	6	nomatch	noir	-1	1	p	0.65382
105.3391	0.0	+	13	noun	phrase	2	7	nomatch	noir	-1	1	p	0.65382
105.73910000000001	0.2	vieux	13	noun	phrase	2	8	nomatch	noir	-1	1	p	0.65382
105.9391	0.0	+	13	noun	phrase	2	9	nomatch	noir	-1	1	p	0.65382
106.3391	0.2	cendrier	13	noun	phrase	2	10	nomatch	noir	-1	1	p	0.65382
106.53900000000002	0.0	+	13	noun	phrase	2	11	nomatch	noir	-1	1	p	0.65382
106.939	0.0	+	13	noun	phrase	2	12	nomatch	noir	-1	1	p	0.65382
108.93880000000001	0.0	NOIR	13	noun	phrase	2	13	nomatch	noir	-1	1	p	0.65382
109.65540000000001	0.0	+	13	noun	phrase	2	14	nomatch	noir	-1	1	p	0.65382
109.5926	0.0	[response]	13	noun	phrase	2	15	nomatch	noir	-1	1	p	0.65382
111.33860000000001	0.0	+	14	verb	list	1	1	match	nouveau	5	1	y	0.4463
111.8886	0.2	zsmvb	14	verb	list	1	2	match	nouveau	5	1	y	0.4463
112.08850000000001	0.0	+	14	verb	list	1	3	match	nouveau	5	1	y	0.4463
112.48850000000002	0.2	qpnm	14	verb	list	1	4	match	nouveau	5	1	y	0.4463
112.6885	0.0	+	14	verb	list	1	5	match	nouveau	5	1	y	0.4463
113.08840000000001	0.2	svhw	14	verb	list	1	6	match	nouveau	5	1	y	0.4463
113.2884	0.0	+	14	verb	list	1	7	match	nouveau	5	1	y	0.4463
113.6884	0.2	fbgdnrv	14	verb	list	1	8	match	nouveau	5	1	y	0.4463
113.88840000000002	0.0	+	14	verb	list	1	9	match	nouveau	5	1	y	0.4463
114.28829999999999	0.2	nouveau	14	verb	list	1	10	match	nouveau	5	1	y	0.4463
114.48830000000001	0.0	+	14	verb	list	1	11	match	nouveau	5	1	y	0.4463
114.88830000000002	0.0	+	14	verb	list	1	12	match	nouveau	5	1	y	0.4463
116.88810000000001	0.0	NOUVEAU	14	verb	list	1	13	match	nouveau	5	1	y	0.4463
117.40469999999999	0.0	+	14	verb	list	1	14	match	nouveau	5	1	y	0.4463
117.33440000000002	0.0	[response]	14	verb	list	1	15	match	nouveau	5	1	y	0.4463
119.28790000000001	0.0	+	15	noun	list	4	1	match	grenier	4	1	y	0.64909
119.83780000000002	0.2	xtcqk	15	noun	list	4	2	match	grenier	4	1	y	0.64909
120.0378	0.0	+	15	noun	list	4	3	match	grenier	4	1	y	0.64909
120.43780000000001	0.2	pour	15	noun	list	4	4	match	grenier	4	1	y	0.64909
120.6378	0.0	+	15	noun	list	4	5	match	grenier	4	1	y	0.64909
121.0377	0.2	peut	15	noun	list	4	6	match	grenier	4	1	y	0.64909
121.23770000000002	0.0	+	15	noun	list	4	7	match	grenier	4	1	y	0.64909
121.6377	0.2	grenier	15	noun	list	4	8	match	grenier	4	1	y	0.64909
121.83770000000001	0.0	+	15	noun	list	4	9	match	grenier	4	1	y	0.64909
122.23760000000001	0.2	vite	15	noun	list	4	10	match	grenier	4	1	y	0.64909
122.4376	0.0	+	15	noun	list	4	11	match	grenier	4	1	y	0.64909
122.83760000000001	0.0	+	15	noun	list	4	12	match	grenier	4	1	y	0.64909
124.8374	0.0	GRENIER	15	noun	list	4	13	match	grenier	4	1	y	0.64909
125.554	0.0	+	15	noun	list	4	14	match	grenier	4	1	y	0.64909
125.48650000000004	0.0	[response]	15	noun	list	4	15	match	grenier	4	1	y	0.64909
135.2364	0.0	+	16	noun	phrase	3	1	nomatch	panier	-1	1	p	0.86406
135.78640000000001	0.2	xpgct	16	noun	phrase	3	2	nomatch	panier	-1	1	p	0.86406
135.9864	0.0	+	16	noun	phrase	3	3	nomatch	panier	-1	1	p	0.86406
136.3863	0.2	scjw	16	noun	phrase	3	4	nomatch	panier	-1	1	p	0.86406
136.5863	0.0	+	16	noun	phrase	3	5	nomatch	panier	-1	1	p	0.86406
136.9863	0.2	leur	16	noun	phrase	3	6	nomatch	panier	-1	1	p	0.86406
137.18630000000002	0.0	+	16	noun	phrase	3	7	nomatch	panier	-1	1	p	0.86406
137.5862	0.2	rocher	16	noun	phrase	3	8	nomatch	panier	-1	1	p	0.86406
137.7862	0.0	+	16	noun	phrase	3	9	nomatch	panier	-1	1	p	0.86406
138.1862	0.2	blanc	16	noun	phrase	3	10	nomatch	panier	-1	1	p	0.86406
138.3862	0.0	+	16	noun	phrase	3	11	nomatch	panier	-1	1	p	0.86406
138.7861	0.0	+	16	noun	phrase	3	12	nomatch	panier	-1	1	p	0.86406
140.7859	0.0	PANIER	16	noun	phrase	3	13	nomatch	panier	-1	1	p	0.86406
141.7192	0.0	+	16	noun	phrase	3	14	nomatch	panier	-1	1	p	0.86406
141.65000000000003	0.0	[response]	16	noun	phrase	3	15	nomatch	panier	-1	1	p	0.86406
143.1857	0.0	+	17	verb	phrase	2	1	nomatch	vieux	-1	1	p	0.9848
143.7357	0.2	xvztkcs	17	verb	phrase	2	2	nomatch	vieux	-1	1	p	0.9848
143.9357	0.0	+	17	verb	phrase	2	3	nomatch	vieux	-1	1	p	0.9848
144.3356	0.2	mpdb	17	verb	phrase	2	4	nomatch	vieux	-1	1	p	0.9848
144.53560000000002	0.0	+	17	verb	phrase	2	5	nomatch	vieux	-1	1	p	0.9848
144.9356	0.2	cn	17	verb	phrase	2	6	nomatch	vieux	-1	1	p	0.9848
145.1355	0.0	+	17	verb	phrase	2	7	nomatch	vieux	-1	1	p	0.9848
145.5355	0.2	trop	17	verb	phrase	2	8	nomatch	vieux	-1	1	p	0.9848
145.7355	0.0	+	17	verb	phrase	2	9	nomatch	vieux	-1	1	p	0.9848
146.1355	0.2	plonger	17	verb	phrase	2	10	nomatch	vieux	-1	1	p	0.9848
146.3354	0.0	+	17	verb	phrase	2	11	nomatch	vieux	-1	1	p	0.9848
146.7354	0.0	+	17	verb	phrase	2	12	nomatch	vieux	-1	1	p	0.9848
148.7352	0.0	VIEUX	17	verb	phrase	2	13	nomatch	vieux	-1	1	p	0.9848
149.78510000000003	0.0	+	17	verb	phrase	2	14	nomatch	vieux	-1	1	p	0.9848
149.72	0.0	[response]	17	verb	phrase	2	15	nomatch	vieux	-1	1	p	0.9848
159.1509	0.0	+	18	noun	list	2	1	nomatch	paul	-1	1	p	0.60914
159.70090000000002	0.2	vdbrnqj	18	noun	list	2	2	nomatch	paul	-1	1	p	0.60914
159.9009	0.0	+	18	noun	list	2	3	nomatch	paul	-1	1	p	0.60914
160.30089999999998	0.2	wvln	18	noun	list	2	4	nomatch	paul	-1	1	p	0.60914
160.5008	0.0	+	18	noun	list	2	5	nomatch	paul	-1	1	p	0.60914
160.90080000000003	0.2	vft	18	noun	list	2	6	nomatch	paul	-1	1	p	0.60914
161.10080000000002	0.0	+	18	noun	list	2	7	nomatch	paul	-1	1	p	0.60914
161.50070000000002	0.2	beaucoup	18	noun	list	2	8	nomatch	paul	-1	1	p	0.60914
161.7007	0.0	+	18	noun	list	2	9	nomatch	paul	-1	1	p	0.60914
162.1007	0.2	voilier	18	noun	list	2	10	nomatch	paul	-1	1	p	0.60914
162.30069999999998	0.0	+	18	noun	list	2	11	nomatch	paul	-1	1	p	0.60914
162.70059999999998	0.0	+	18	noun	list	2	12	nomatch	paul	-1	1	p	0.60914
164.7005	0.0	PAUL	18	noun	list	2	13	nomatch	paul	-1	1	p	0.60914
165.36710000000002	0.0	+	18	noun	list	2	14	nomatch	paul	-1	1	p	0.60914
165.30960000000002	0.0	[response]	18	noun	list	2	15	nomatch	paul	-1	1	p	0.60914
167.1002	0.0	+	19	noun	list	1	1	match	moins	5	1	y	0.50345
167.6502	0.2	xhzqjs	19	noun	list	1	2	match	moins	5	1	y	0.50345
167.8502	0.0	+	19	noun	list	1	3	match	moins	5	1	y	0.50345
168.2501	0.2	cvq	19	noun	list	1	4	match	moins	5	1	y	0.50345
168.4501	0.0	+	19	noun	list	1	5	match	moins	5	1	y	0.50345
168.85010000000003	0.2	lgcv	19	noun	list	1	6	match	moins	5	1	y	0.50345
169.05010000000001	0.0	+	19	noun	list	1	7	match	moins	5	1	y	0.50345
169.45000000000002	0.2	mzswnbq	19	noun	list	1	8	match	moins	5	1	y	0.50345
169.65	0.0	+	19	noun	list	1	9	match	moins	5	1	y	0.50345
170.04999999999998	0.2	moins	19	noun	list	1	10	match	moins	5	1	y	0.50345
170.25000000000003	0.0	+	19	noun	list	1	11	match	moins	5	1	y	0.50345
170.64990000000003	0.0	+	19	noun	list	1	12	match	moins	5	1	y	0.50345
172.64970000000002	0.0	MOINS	19	noun	list	1	13	match	moins	5	1	y	0.50345
173.21630000000002	0.0	+	19	noun	list	1	14	match	moins	5	1	y	0.50345
173.1532	0.0	[response]	19	noun	list	1	15	match	moins	5	1	y	0.50345
175.0495	0.0	+	20	noun	phrase	2	1	nomatch	blanc	-1	1	p	1.2881
175.5995	0.2	swvq	20	noun	phrase	2	2	nomatch	blanc	-1	1	p	1.2881
175.79940000000002	0.0	+	20	noun	phrase	2	3	nomatch	blanc	-1	1	p	1.2881
176.1994	0.2	qpnm	20	noun	phrase	2	4	nomatch	blanc	-1	1	p	1.2881
176.39939999999999	0.0	+	20	noun	phrase	2	5	nomatch	blanc	-1	1	p	1.2881
176.79940000000002	0.2	rbh	20	noun	phrase	2	6	nomatch	blanc	-1	1	p	1.2881
176.99929999999998	0.0	+	20	noun	phrase	2	7	nomatch	blanc	-1	1	p	1.2881
177.3993	0.2	panier	20	noun	phrase	2	8	nomatch	blanc	-1	1	p	1.2881
177.5993	0.0	+	20	noun	phrase	2	9	nomatch	blanc	-1	1	p	1.2881
177.99929999999998	0.2	noir	20	noun	phrase	2	10	nomatch	blanc	-1	1	p	1.2881
178.1992	0.0	+	20	noun	phrase	2	11	nomatch	blanc	-1	1	p	1.2881
178.59920000000002	0.0	+	20	noun	phrase	2	12	nomatch	blanc	-1	1	p	1.2881
180.59900000000002	0.0	BLANC	20	noun	phrase	2	13	nomatch	blanc	-1	1	p	1.2881
181.9489	0.0	+	20	noun	phrase	2	14	nomatch	blanc	-1	1	p	1.2881
181.88719999999998	0.0	[response]	20	noun	phrase	2	15	nomatch	blanc	-1	1	p	1.2881
182.9988	0.0	+	21	noun	list	1	1	match	ainsi	5	1	y	0.46795
183.54870000000003	0.2	kqz	21	noun	list	1	2	match	ainsi	5	1	y	0.46795
183.7487	0.0	+	21	noun	list	1	3	match	ainsi	5	1	y	0.46795
184.1487	0.2	wcbs	21	noun	list	1	4	match	ainsi	5	1	y	0.46795
184.34869999999998	0.0	+	21	noun	list	1	5	match	ainsi	5	1	y	0.46795
184.74859999999998	0.2	cn	21	noun	list	1	6	match	ainsi	5	1	y	0.46795
184.94860000000003	0.0	+	21	noun	list	1	7	match	ainsi	5	1	y	0.46795
185.3486	0.2	kpjtcgm	21	noun	list	1	8	match	ainsi	5	1	y	0.46795
185.5486	0.0	+	21	noun	list	1	9	match	ainsi	5	1	y	0.46795
185.9485	0.2	ainsi	21	noun	list	1	10	match	ainsi	5	1	y	0.46795
186.14849999999998	0.0	+	21	noun	list	1	11	match	ainsi	5	1	y	0.46795
186.54850000000002	0.0	+	21	noun	list	1	12	match	ainsi	5	1	y	0.46795
188.5483	0.0	AINSI	21	noun	list	1	13	match	ainsi	5	1	y	0.46795
189.0816	0.0	+	21	noun	list	1	14	match	ainsi	5	1	y	0.46795
189.0162	0.0	[response]	21	noun	list	1	15	match	ainsi	5	1	y	0.46795
190.94809999999998	0.0	+	22	noun	list	1	1	nomatch	vite	-1	1	p	0.56663
191.49800000000002	0.2	fwdng	22	noun	list	1	2	nomatch	vite	-1	1	p	0.56663
191.698	0.0	+	22	noun	list	1	3	nomatch	vite	-1	1	p	0.56663
192.09799999999998	0.2	wvln	22	noun	list	1	4	nomatch	vite	-1	1	p	0.56663
192.29800000000003	0.0	+	22	noun	list	1	5	nomatch	vite	-1	1	p	0.56663
192.69790000000003	0.2	vft	22	noun	list	1	6	nomatch	vite	-1	1	p	0.56663
192.89790000000002	0.0	+	22	noun	list	1	7	nomatch	vite	-1	1	p	0.56663
193.2979	0.2	qvjpbr	22	noun	list	1	8	nomatch	vite	-1	1	p	0.56663
193.4979	0.0	+	22	noun	list	1	9	nomatch	vite	-1	1	p	0.56663
193.8978	0.2	trop	22	noun	list	1	10	nomatch	vite	-1	1	p	0.56663
194.09779999999998	0.0	+	22	noun	list	1	11	nomatch	vite	-1	1	p	0.56663
194.4978	0.0	+	22	noun	list	1	12	nomatch	vite	-1	1	p	0.56663
196.4976	0.0	VITE	22	noun	list	1	13	nomatch	vite	-1	1	p	0.56663
197.1308	0.0	+	22	noun	list	1	14	nomatch	vite	-1	1	p	0.56663
197.06420000000006	0.0	[response]	22	noun	list	1	15	nomatch	vite	-1	1	p	0.56663
206.8966	0.0	+	23	verb	list	3	1	match	beau	4	1	y	0.66819
207.44660000000002	0.2	nkfs	23	verb	list	3	2	match	beau	4	1	y	0.66819
207.6466	0.0	+	23	verb	list	3	3	match	beau	4	1	y	0.66819
208.0465	0.2	wcbs	23	verb	list	3	4	match	beau	4	1	y	0.66819
208.2465	0.0	+	23	verb	list	3	5	match	beau	4	1	y	0.66819
208.64650000000003	0.2	doit	23	verb	list	3	6	match	beau	4	1	y	0.66819
208.84650000000002	0.0	+	23	verb	list	3	7	match	beau	4	1	y	0.66819
209.24640000000002	0.2	beau	23	verb	list	3	8	match	beau	4	1	y	0.66819
209.4464	0.0	+	23	verb	list	3	9	match	beau	4	1	y	0.66819
209.8464	0.2	nager	23	verb	list	3	10	match	beau	4	1	y	0.66819
210.04639999999998	0.0	+	23	verb	list	3	11	match	beau	4	1	y	0.66819
210.44629999999998	0.0	+	23	verb	list	3	12	match	beau	4	1	y	0.66819
212.44610000000003	0.0	BEAU	23	verb	list	3	13	match	beau	4	1	y	0.66819
213.17940000000002	0.0	+	23	verb	list	3	14	match	beau	4	1	y	0.66819
213.1143	0.0	[response]	23	verb	list	3	15	match	beau	4	1	y	0.66819
214.8459	0.0	+	24	noun	phrase	3	1	match	leur	3	1	y	1.1068
215.3959	0.2	nfqwrbd	24	noun	phrase	3	2	match	leur	3	1	y	1.1068
215.5959	0.0	+	24	noun	phrase	3	3	match	leur	3	1	y	1.1068
215.9958	0.2	scjw	24	noun	phrase	3	4	match	leur	3	1	y	1.1068
216.1958	0.0	+	24	noun	phrase	3	5	match	leur	3	1	y	1.1068
216.59580000000003	0.2	leur	24	noun	phrase	3	6	match	leur	3	1	y	1.1068
216.79569999999998	0.0	+	24	noun	phrase	3	7	match	leur	3	1	y	1.1068
217.19570000000002	0.2	vieux	24	noun	phrase	3	8	match	leur	3	1	y	1.1068
217.3957	0.0	+	24	noun	phrase	3	9	match	leur	3	1	y	1.1068
217.79569999999998	0.2	rocher	24	noun	phrase	3	10	match	leur	3	1	y	1.1068
217.9956	0.0	+	24	noun	phrase	3	11	match	leur	3	1	y	1.1068
218.39560000000003	0.0	+	24	noun	phrase	3	12	match	leur	3	1	y	1.1068
220.39540000000002	0.0	LEUR	24	noun	phrase	3	13	match	leur	3	1	y	1.1068
221.56199999999998	0.0	+	24	noun	phrase	3	14	match	leur	3	1	y	1.1068
221.5022	0.0	[response]	24	noun	phrase	3	15	match	leur	3	1	y	1.1068
222.7952	0.0	+	25	verb	list	1	1	match	nager	5	1	y	0.62147
223.3452	0.2	shmb	25	verb	list	1	2	match	nager	5	1	y	0.62147
223.54510000000002	0.0	+	25	verb	list	1	3	match	nager	5	1	y	0.62147
223.9451	0.2	xmv	25	verb	list	1	4	match	nager	5	1	y	0.62147
224.14509999999999	0.0	+	25	verb	list	1	5	match	nager	5	1	y	0.62147
224.545	0.2	tpgs	25	verb	list	1	6	match	nager	5	1	y	0.62147
224.74499999999998	0.0	+	25	verb	list	1	7	match	nager	5	1	y	0.62147
225.145	0.2	xvsdk	25	verb	list	1	8	match	nager	5	1	y	0.62147
225.345	0.0	+	25	verb	list	1	9	match	nager	5	1	y	0.62147
225.7449	0.2	nager	25	verb	list	1	10	match	nager	5	1	y	0.62147
225.9449	0.0	+	25	verb	list	1	11	match	nager	5	1	y	0.62147
226.34490000000002	0.0	+	25	verb	list	1	12	match	nager	5	1	y	0.62147
228.34470000000002	0.0	NAGER	25	verb	list	1	13	match	nager	5	1	y	0.62147
229.028	0.0	+	25	verb	list	1	14	match	nager	5	1	y	0.62147
228.9662	0.0	[response]	25	verb	list	1	15	match	nager	5	1	y	0.62147
230.7445	0.0	+	26	noun	list	3	1	match	va	3	1	y	0.53457
231.29440000000002	0.2	kvpt	26	noun	list	3	2	match	va	3	1	y	0.53457
231.4944	0.0	+	26	noun	list	3	3	match	va	3	1	y	0.53457
231.8944	0.2	wcbs	26	noun	list	3	4	match	va	3	1	y	0.53457
232.09439999999998	0.0	+	26	noun	list	3	5	match	va	3	1	y	0.53457
232.49429999999998	0.2	va	26	noun	list	3	6	match	va	3	1	y	0.53457
232.69430000000003	0.0	+	26	noun	list	3	7	match	va	3	1	y	0.53457
233.0943	0.2	casier	26	noun	list	3	8	match	va	3	1	y	0.53457
233.2943	0.0	+	26	noun	list	3	9	match	va	3	1	y	0.53457
233.6942	0.2	tôt	26	noun	list	3	10	match	va	3	1	y	0.53457
233.89419999999998	0.0	+	26	noun	list	3	11	match	va	3	1	y	0.53457
234.29420000000002	0.0	+	26	noun	list	3	12	match	va	3	1	y	0.53457
236.294	0.0	VA	26	noun	list	3	13	match	va	3	1	y	0.53457
236.8939	0.0	+	26	noun	list	3	14	match	va	3	1	y	0.53457
236.82860000000008	0.0	[response]	26	noun	list	3	15	match	va	3	1	y	0.53457
238.69379999999998	0.0	+	27	noun	list	3	1	nomatch	moins	-1	1	p	0.6587
239.24370000000002	0.2	swlrq	27	noun	list	3	2	nomatch	moins	-1	1	p	0.6587
239.4437	0.0	+	27	noun	list	3	3	nomatch	moins	-1	1	p	0.6587
239.84369999999998	0.2	cvq	27	noun	list	3	4	nomatch	moins	-1	1	p	0.6587
240.0436	0.0	+	27	noun	list	3	5	nomatch	moins	-1	1	p	0.6587
240.44360000000003	0.2	leur	27	noun	list	3	6	nomatch	moins	-1	1	p	0.6587
240.64360000000002	0.0	+	27	noun	list	3	7	nomatch	moins	-1	1	p	0.6587
241.0436	0.2	trop	27	noun	list	3	8	nomatch	moins	-1	1	p	0.6587
241.2435	0.0	+	27	noun	list	3	9	nomatch	moins	-1	1	p	0.6587
241.6435	0.2	voilier	27	noun	list	3	10	nomatch	moins	-1	1	p	0.6587
241.84349999999998	0.0	+	27	noun	list	3	11	nomatch	moins	-1	1	p	0.6587
242.24339999999998	0.0	+	27	noun	list	3	12	nomatch	moins	-1	1	p	0.6587
244.2433	0.0	MOINS	27	noun	list	3	13	nomatch	moins	-1	1	p	0.6587
244.95989999999998	0.0	+	27	noun	list	3	14	nomatch	moins	-1	1	p	0.6587
244.90200000000002	0.0	[response]	27	noun	list	3	15	nomatch	moins	-1	1	p	0.6587
246.643	0.0	+	28	noun	list	2	1	match	beaucoup	4	0	p	1.3194
247.193	0.2	skvdxzq	28	noun	list	2	2	match	beaucoup	4	0	p	1.3194
247.393	0.0	+	28	noun	list	2	3	match	beaucoup	4	0	p	1.3194
247.7929	0.2	vtwj	28	noun	list	2	4	match	beaucoup	4	0	p	1.3194
247.9929	0.0	+	28	noun	list	2	5	match	beaucoup	4	0	p	1.3194
248.39290000000003	0.2	rbh	28	noun	list	2	6	match	beaucoup	4	0	p	1.3194
248.59290000000001	0.0	+	28	noun	list	2	7	match	beaucoup	4	0	p	1.3194
248.99280000000002	0.2	beaucoup	28	noun	list	2	8	match	beaucoup	4	0	p	1.3194
249.1928	0.0	+	28	noun	list	2	9	match	beaucoup	4	0	p	1.3194
249.59279999999998	0.2	clavier	28	noun	list	2	10	match	beaucoup	4	0	p	1.3194
249.79280000000003	0.0	+	28	noun	list	2	11	match	beaucoup	4	0	p	1.3194
250.19270000000003	0.0	+	28	noun	list	2	12	match	beaucoup	4	0	p	1.3194
252.19250000000002	0.0	BEAUCOUP	28	noun	list	2	13	match	beaucoup	4	0	p	1.3194
253.5757	0.0	+	28	noun	list	2	14	match	beaucoup	4	0	p	1.3194
253.51200000000003	0.0	[response]	28	noun	list	2	15	match	beaucoup	4	0	p	1.3194
254.5923	0.0	+	29	noun	list	1	1	match	tard	5	1	y	0.67347
255.1423	0.2	pfldr	29	noun	list	1	2	match	tard	5	1	y	0.67347
255.3423	0.0	+	29	noun	list	1	3	match	tard	5	1	y	0.67347
255.7422	0.2	scjw	29	noun	list	1	4	match	tard	5	1	y	0.67347
255.94219999999999	0.0	+	29	noun	list	1	5	match	tard	5	1	y	0.67347
256.34220000000005	0.2	cn	29	noun	list	1	6	match	tard	5	1	y	0.67347
256.5422	0.0	+	29	noun	list	1	7	match	tard	5	1	y	0.67347
256.9421	0.2	fdhrjzs	29	noun	list	1	8	match	tard	5	1	y	0.67347
257.1421	0.0	+	29	noun	list	1	9	match	tard	5	1	y	0.67347
257.5421	0.2	tard	29	noun	list	1	10	match	tard	5	1	y	0.67347
257.74199999999996	0.0	+	29	noun	list	1	11	match	tard	5	1	y	0.67347
258.14200000000005	0.0	+	29	noun	list	1	12	match	tard	5	1	y	0.67347
260.1418	0.0	TARD	29	noun	list	1	13	match	tard	5	1	y	0.67347
260.8751	0.0	+	29	noun	list	1	14	match	tard	5	1	y	0.67347
260.8153	0.0	[response]	29	noun	list	1	15	match	tard	5	1	y	0.67347
262.5416	0.0	+	30	noun	list	1	1	match	rocher	5	1	y	0.62999
263.09159999999997	0.2	gmjsvq	30	noun	list	1	2	match	rocher	5	1	y	0.62999
263.29150000000004	0.0	+	30	noun	list	1	3	match	rocher	5	1	y	0.62999
263.6915	0.2	cvq	30	noun	list	1	4	match	rocher	5	1	y	0.62999
263.89149999999995	0.0	+	30	noun	list	1	5	match	rocher	5	1	y	0.62999
264.29150000000004	0.2	vft	30	noun	list	1	6	match	rocher	5	1	y	0.62999
264.4914	0.0	+	30	noun	list	1	7	match	rocher	5	1	y	0.62999
264.8914	0.2	mkzvpfbs	30	noun	list	1	8	match	rocher	5	1	y	0.62999
265.0914	0.0	+	30	noun	list	1	9	match	rocher	5	1	y	0.62999
265.4914	0.2	rocher	30	noun	list	1	10	match	rocher	5	1	y	0.62999
265.69129999999996	0.0	+	30	noun	list	1	11	match	rocher	5	1	y	0.62999
266.09130000000005	0.0	+	30	noun	list	1	12	match	rocher	5	1	y	0.62999
268.0911	0.0	ROCHER	30	noun	list	1	13	match	rocher	5	1	y	0.62999
268.79100000000005	0.0	+	30	noun	list	1	14	match	rocher	5	1	y	0.62999
268.7211	0.0	[response]	30	noun	list	1	15	match	rocher	5	1	y	0.62999
270.4909	0.0	+	31	verb	phrase	3	1	match	doit	3	1	y	0.62064
271.0408	0.2	mfkw	31	verb	phrase	3	2	match	doit	3	1	y	0.62064
271.24080000000004	0.0	+	31	verb	phrase	3	3	match	doit	3	1	y	0.62064
271.6408	0.2	pxbj	31	verb	phrase	3	4	match	doit	3	1	y	0.62064
271.84080000000006	0.0	+	31	verb	phrase	3	5	match	doit	3	1	y	0.62064
272.24070000000006	0.2	doit	31	verb	phrase	3	6	match	doit	3	1	y	0.62064
272.4407	0.0	+	31	verb	phrase	3	7	match	doit	3	1	y	0.62064
272.84069999999997	0.2	beaucoup	31	verb	phrase	3	8	match	doit	3	1	y	0.62064
273.0407	0.0	+	31	verb	phrase	3	9	match	doit	3	1	y	0.62064
273.4406	0.2	jongler	31	verb	phrase	3	10	match	doit	3	1	y	0.62064
273.64059999999995	0.0	+	31	verb	phrase	3	11	match	doit	3	1	y	0.62064
274.04060000000004	0.0	+	31	verb	phrase	3	12	match	doit	3	1	y	0.62064
276.0404	0.0	DOIT	31	verb	phrase	3	13	match	doit	3	1	y	0.62064
276.7237	0.0	+	31	verb	phrase	3	14	match	doit	3	1	y	0.62064
276.66100000000006	0.0	[response]	31	verb	phrase	3	15	match	doit	3	1	y	0.62064
278.4402	0.0	+	32	noun	list	4	1	nomatch	bleu	-1	1	p	1.0225
278.9901	0.2	jbqw	32	noun	list	4	2	nomatch	bleu	-1	1	p	1.0225
279.19010000000003	0.0	+	32	noun	list	4	3	nomatch	bleu	-1	1	p	1.0225
279.5901	0.2	paul	32	noun	list	4	4	nomatch	bleu	-1	1	p	1.0225
279.79010000000005	0.0	+	32	noun	list	4	5	nomatch	bleu	-1	1	p	1.0225
280.19000000000005	0.2	leur	32	noun	list	4	6	nomatch	bleu	-1	1	p	1.0225
280.39	0.0	+	32	noun	list	4	7	nomatch	bleu	-1	1	p	1.0225
280.78999999999996	0.2	mieux	32	noun	list	4	8	nomatch	bleu	-1	1	p	1.0225
280.98990000000003	0.0	+	32	noun	list	4	9	nomatch	bleu	-1	1	p	1.0225
281.3899	0.2	casier	32	noun	list	4	10	nomatch	bleu	-1	1	p	1.0225
281.58990000000006	0.0	+	32	noun	list	4	11	nomatch	bleu	-1	1	p	1.0225
281.98990000000003	0.0	+	32	noun	list	4	12	nomatch	bleu	-1	1	p	1.0225
283.98969999999997	0.0	BLEU	32	noun	list	4	13	nomatch	bleu	-1	1	p	1.0225
285.0729	0.0	+	32	noun	list	4	14	nomatch	bleu	-1	1	p	1.0225
285.01210000000003	0.0	[response]	32	noun	list	4	15	nomatch	bleu	-1	1	p	1.0225
286.3895	0.0	+	33	verb	phrase	4	1	nomatch	nager	-1	0	TIMEOUT	-1.0
286.9394	0.2	nrq	33	verb	phrase	4	2	nomatch	nager	-1	0	TIMEOUT	-1.0
287.1394	0.0	+	33	verb	phrase	4	3	nomatch	nager	-1	0	TIMEOUT	-1.0
287.5394	0.2	jean	33	verb	phrase	4	4	nomatch	nager	-1	0	TIMEOUT	-1.0
287.73929999999996	0.0	+	33	verb	phrase	4	5	nomatch	nager	-1	0	TIMEOUT	-1.0
288.13930000000005	0.2	doit	33	verb	phrase	4	6	nomatch	nager	-1	0	TIMEOUT	-1.0
288.3393	0.0	+	33	verb	phrase	4	7	nomatch	nager	-1	0	TIMEOUT	-1.0
288.7392	0.2	trop	33	verb	phrase	4	8	nomatch	nager	-1	0	TIMEOUT	-1.0
288.9392	0.0	+	33	verb	phrase	4	9	nomatch	nager	-1	0	TIMEOUT	-1.0
289.3392	0.2	danser	33	verb	phrase	4	10	nomatch	nager	-1	0	TIMEOUT	-1.0
289.53920000000005	0.0	+	33	verb	phrase	4	11	nomatch	nager	-1	0	TIMEOUT	-1.0
289.93910000000005	0.0	+	33	verb	phrase	4	12	nomatch	nager	-1	0	TIMEOUT	-1.0
291.93899999999996	0.0	NAGER	33	verb	phrase	4	13	nomatch	nager	-1	0	TIMEOUT	-1.0
294.3387	0.0	+	34	noun	list	3	1	nomatch	ainsi	-1	1	p	0.72047
294.93870000000004	0.2	zdc	34	noun	list	3	2	nomatch	ainsi	-1	1	p	0.72047
295.1387	0.0	+	34	noun	list	3	3	nomatch	ainsi	-1	1	p	0.72047
295.5386	0.2	wvln	34	noun	list	3	4	nomatch	ainsi	-1	1	p	0.72047
295.7386	0.0	+	34	noun	list	3	5	nomatch	ainsi	-1	1	p	0.72047
296.1386	0.2	son	34	noun	list	3	6	nomatch	ainsi	-1	1	p	0.72047
296.33860000000004	0.0	+	34	noun	list	3	7	nomatch	ainsi	-1	1	p	0.72047
296.73850000000004	0.2	mieux	34	noun	list	3	8	nomatch	ainsi	-1	1	p	0.72047
296.9385	0.0	+	34	noun	list	3	9	nomatch	ainsi	-1	1	p	0.72047
297.33849999999995	0.2	grenier	34	noun	list	3	10	nomatch	ainsi	-1	1	p	0.72047
297.5385	0.0	+	34	noun	list	3	11	nomatch	ainsi	-1	1	p	0.72047
297.9384	0.0	+	34	noun	list	3	12	nomatch	ainsi	-1	1	p	0.72047
299.93820000000005	0.0	AINSI	34	noun	list	3	13	nomatch	ainsi	-1	1	p	0.72047
300.7215	0.0	+	34	noun	list	3	14	nomatch	ainsi	-1	1	p	0.72047
300.65869999999995	0.0	[response]	34	noun	list	3	15	nomatch	ainsi	-1	1	p	0.72047
302.33799999999997	0.0	+	35	noun	phrase	1	1	nomatch	jongler	-1	1	p	0.6031000000000001
302.88800000000003	0.2	rtz	35	noun	phrase	1	2	nomatch	jongler	-1	1	p	0.6031000000000001
303.0879	0.0	+	35	noun	phrase	1	3	nomatch	jongler	-1	1	p	0.6031000000000001
303.48789999999997	0.2	wcbs	35	noun	phrase	1	4	nomatch	jongler	-1	1	p	0.6031000000000001
303.6879	0.0	+	35	noun	phrase	1	5	nomatch	jongler	-1	1	p	0.6031000000000001
304.0879	0.2	vft	35	noun	phrase	1	6	nomatch	jongler	-1	1	p	0.6031000000000001
304.28780000000006	0.0	+	35	noun	phrase	1	7	nomatch	jongler	-1	1	p	0.6031000000000001
304.68780000000004	0.2	xvsdk	35	noun	phrase	1	8	nomatch	jongler	-1	1	p	0.6031000000000001
304.88779999999997	0.0	+	35	noun	phrase	1	9	nomatch	jongler	-1	1	p	0.6031000000000001
305.28780000000006	0.2	voilier	35	noun	phrase	1	10	nomatch	jongler	-1	1	p	0.6031000000000001
305.4877	0.0	+	35	noun	phrase	1	11	nomatch	jongler	-1	1	p	0.6031000000000001
305.8877	0.0	+	35	noun	phrase	1	12	nomatch	jongler	-1	1	p	0.6031000000000001
307.88750000000005	0.0	JONGLER	35	noun	phrase	1	13	nomatch	jongler	-1	1	p	0.6031000000000001
308.55409999999995	0.0	+	35	noun	phrase	1	14	nomatch	jongler	-1	1	p	0.6031000000000001
308.4906	0.0	[response]	35	noun	phrase	1	15	nomatch	jongler	-1	1	p	0.6031000000000001
310.28729999999996	0.0	+	36	verb	list	3	1	nomatch	son	-1	1	p	0.61751
310.83720000000005	0.2	nqcs	36	verb	list	3	2	nomatch	son	-1	1	p	0.61751
311.0372	0.0	+	36	verb	list	3	3	nomatch	son	-1	1	p	0.61751
311.43719999999996	0.2	dmgj	36	verb	list	3	4	nomatch	son	-1	1	p	0.61751
311.6372	0.0	+	36	verb	list	3	5	nomatch	son	-1	1	p	0.61751
312.0371	0.2	leur	36	verb	list	3	6	nomatch	son	-1	1	p	0.61751
312.23710000000005	0.0	+	36	verb	list	3	7	nomatch	son	-1	1	p	0.61751
312.63710000000003	0.2	danser	36	verb	list	3	8	nomatch	son	-1	1	p	0.61751
312.83709999999996	0.0	+	36	verb	list	3	9	nomatch	son	-1	1	p	0.61751
313.23699999999997	0.2	vert	36	verb	list	3	10	nomatch	son	-1	1	p	0.61751
313.437	0.0	+	36	verb	list	3	11	nomatch	son	-1	1	p	0.61751
313.837	0.0	+	36	verb	list	3	12	nomatch	son	-1	1	p	0.61751
315.83680000000004	0.0	SON	36	verb	list	3	13	nomatch	son	-1	1	p	0.61751
316.52009999999996	0.0	+	36	verb	list	3	14	nomatch	son	-1	1	p	0.61751
316.4543	0.0	[response]	36	verb	list	3	15	nomatch	son	-1	1	p	0.61751
326.2359	0.0	+	37	noun	phrase	1	1	nomatch	grenier	-1	1	p	0.55661
326.7858	0.2	cshv	37	noun	phrase	1	2	nomatch	grenier	-1	1	p	0.55661
326.98580000000004	0.0	+	37	noun	phrase	1	3	nomatch	grenier	-1	1	p	0.55661
327.3858	0.2	xmv	37	noun	phrase	1	4	nomatch	grenier	-1	1	p	0.55661
327.5857	0.0	+	37	noun	phrase	1	5	nomatch	grenier	-1	1	p	0.55661
327.98569999999995	0.2	lgcv	37	noun	phrase	1	6	nomatch	grenier	-1	1	p	0.55661
328.1857	0.0	+	37	noun	phrase	1	7	nomatch	grenier	-1	1	p	0.55661
328.5856	0.2	mlxk	37	noun	phrase	1	8	nomatch	grenier	-1	1	p	0.55661
328.78560000000004	0.0	+	37	noun	phrase	1	9	nomatch	grenier	-1	1	p	0.55661
329.1856	0.2	tablier	37	noun	phrase	1	10	nomatch	grenier	-1	1	p	0.55661
329.38559999999995	0.0	+	37	noun	phrase	1	11	nomatch	grenier	-1	1	p	0.55661
329.78549999999996	0.0	+	37	noun	phrase	1	12	nomatch	grenier	-1	1	p	0.55661
331.7854	0.0	GRENIER	37	noun	phrase	1	13	nomatch	grenier	-1	1	p	0.55661
332.40200000000004	0.0	+	37	noun	phrase	1	14	nomatch	grenier	-1	1	p	0.55661
332.342	0.0	[response]	37	noun	phrase	1	15	nomatch	grenier	-1	1	p	0.55661
334.18510000000003	0.0	+	38	noun	phrase	1	1	nomatch	beau	-1	0	TIMEOUT	-1.0
334.7351	0.2	slr	38	noun	phrase	1	2	nomatch	beau	-1	0	TIMEOUT	-1.0
334.93510000000003	0.0	+	38	noun	phrase	1	3	nomatch	beau	-1	0	TIMEOUT	-1.0
335.33500000000004	0.2	scjw	38	noun	phrase	1	4	nomatch	beau	-1	0	TIMEOUT	-1.0
335.53499999999997	0.0	+	38	noun	phrase	1	5	nomatch	beau	-1	0	TIMEOUT	-1.0
335.93500000000006	0.2	rbh	38	noun	phrase	1	6	nomatch	beau	-1	0	TIMEOUT	-1.0
336.135	0.0	+	38	noun	phrase	1	7	nomatch	beau	-1	0	TIMEOUT	-1.0
336.5349	0.2	bzvt	38	noun	phrase	1	8	nomatch	beau	-1	0	TIMEOUT	-1.0
336.73490000000004	0.0	+	38	noun	phrase	1	9	nomatch	beau	-1	0	TIMEOUT	-1.0
337.1349	0.2	voilier	38	noun	phrase	1	10	nomatch	beau	-1	0	TIMEOUT	-1.0
337.33489999999995	0.0	+	38	noun	phrase	1	11	nomatch	beau	-1	0	TIMEOUT	-1.0
337.73479999999995	0.0	+	38	noun	phrase	1	12	nomatch	beau	-1	0	TIMEOUT	-1.0
339.7513	0.0	BEAU	38	noun	phrase	1	13	nomatch	beau	-1	0	TIMEOUT	-1.0
342.15110000000004	0.0	+	39	verb	list	3	1	match	petit	4	1	y	1.2177
342.751	0.2	nqzc	39	verb	list	3	2	match	petit	4	1	y	1.2177
342.951	0.0	+	39	verb	list	3	3	match	petit	4	1	y	1.2177
343.351	0.2	qpnm	39	verb	list	3	4	match	petit	4	1	y	1.2177
343.55100000000004	0.0	+	39	verb	list	3	5	match	petit	4	1	y	1.2177
343.95090000000005	0.2	peut	39	verb	list	3	6	match	petit	4	1	y	1.2177
344.1509	0.0	+	39	verb	list	3	7	match	petit	4	1	y	1.2177
344.55089999999996	0.2	petit	39	verb	list	3	8	match	petit	4	1	y	1.2177
344.7509	0.0	+	39	verb	list	3	9	match	petit	4	1	y	1.2177
345.1508	0.2	galoper	39	verb	list	3	10	match	petit	4	1	y	1.2177
345.35080000000005	0.0	+	39	verb	list	3	11	match	petit	4	1	y	1.2177
345.7508	0.0	+	39	verb	list	3	12	match	petit	4	1	y	1.2177
347.75059999999996	0.0	PETIT	39	verb	list	3	13	match	petit	4	1	y	1.2177
349.03380000000004	0.0	+	39	verb	list	3	14	match	petit	4	1	y	1.2177
348.9683	0.0	[response]	39	verb	list	3	15	match	petit	4	1	y	1.2177
350.1504	0.0	+	40	verb	list	1	1	match	parader	5	1	y	0.62648
350.70029999999997	0.2	xvhrfj	40	verb	list	1	2	match	parader	5	1	y	0.62648
350.9003	0.0	+	40	verb	list	1	3	match	parader	5	1	y	0.62648
351.3003	0.2	mpdb	40	verb	list	1	4	match	parader	5	1	y	0.62648
351.50019999999995	0.0	+	40	verb	list	1	5	match	parader	5	1	y	0.62648
351.90020000000004	0.2	vft	40	verb	list	1	6	match	parader	5	1	y	0.62648
352.1002	0.0	+	40	verb	list	1	7	match	parader	5	1	y	0.62648
352.50019999999995	0.2	ltbwz	40	verb	list	1	8	match	parader	5	1	y	0.62648
352.7001	0.0	+	40	verb	list	1	9	match	parader	5	1	y	0.62648
353.1001	0.2	parader	40	verb	list	1	10	match	parader	5	1	y	0.62648
353.30010000000004	0.0	+	40	verb	list	1	11	match	parader	5	1	y	0.62648
353.70000000000005	0.0	+	40	verb	list	1	12	match	parader	5	1	y	0.62648
355.69989999999996	0.0	PARADER	40	verb	list	1	13	match	parader	5	1	y	0.62648
356.3831	0.0	+	40	verb	list	1	14	match	parader	5	1	y	0.62648
356.32630000000006	0.0	[response]	40	verb	list	1	15	match	parader	5	1	y	0.62648
358.0996	0.0	+	41	noun	phrase	1	1	match	vert	5	0	TIMEOUT	-1.0
358.64959999999996	0.2	rbsdqx	41	noun	phrase	1	2	match	vert	5	0	TIMEOUT	-1.0
358.8496	0.0	+	41	noun	phrase	1	3	match	vert	5	0	TIMEOUT	-1.0
359.2495	0.2	qpnm	41	noun	phrase	1	4	match	vert	5	0	TIMEOUT	-1.0
359.44950000000006	0.0	+	41	noun	phrase	1	5	match	vert	5	0	TIMEOUT	-1.0
359.84950000000003	0.2	lgcv	41	noun	phrase	1	6	match	vert	5	0	TIMEOUT	-1.0
360.04949999999997	0.0	+	41	noun	phrase	1	7	match	vert	5	0	TIMEOUT	-1.0
360.44939999999997	0.2	qvjpbr	41	noun	phrase	1	8	match	vert	5	0	TIMEOUT	-1.0
360.6494	0.0	+	41	noun	phrase	1	9	match	vert	5	0	TIMEOUT	-1.0
361.0494	0.2	vert	41	noun	phrase	1	10	match	vert	5	0	TIMEOUT	-1.0
361.24940000000004	0.0	+	41	noun	phrase	1	11	match	vert	5	0	TIMEOUT	-1.0
361.64930000000004	0.0	+	41	noun	phrase	1	12	match	vert	5	0	TIMEOUT	-1.0
363.6491	0.0	VERT	41	noun	phrase	1	13	match	vert	5	0	TIMEOUT	-1.0
366.0489	0.0	+	42	noun	list	1	1	nomatch	voilier	-1	1	p	0.9186900000000001
366.6489	0.2	srk	42	noun	list	1	2	nomatch	voilier	-1	1	p	0.9186900000000001
366.84889999999996	0.0	+	42	noun	list	1	3	nomatch	voilier	-1	1	p	0.9186900000000001
367.24879999999996	0.2	cvq	42	noun	list	1	4	nomatch	voilier	-1	1	p	0.9186900000000001
367.4488	0.0	+	42	noun	list	1	5	nomatch	voilier	-1	1	p	0.9186900000000001
367.8488	0.2	rbh	42	noun	list	1	6	nomatch	voilier	-1	1	p	0.9186900000000001
368.04870000000005	0.0	+	42	noun	list	1	7	nomatch	voilier	-1	1	p	0.9186900000000001
368.44870000000003	0.2	lcvhfq	42	noun	list	1	8	nomatch	voilier	-1	1	p	0.9186900000000001
368.64869999999996	0.0	+	42	noun	list	1	9	nomatch	voilier	-1	1	p	0.9186900000000001
369.04870000000005	0.2	beaucoup	42	noun	list	1	10	nomatch	voilier	-1	1	p	0.9186900000000001
369.2486	0.0	+	42	noun	list	1	11	nomatch	voilier	-1	1	p	0.9186900000000001
369.6486	0.0	+	42	noun	list	1	12	nomatch	voilier	-1	1	p	0.9186900000000001
371.64840000000004	0.0	VOILIER	42	noun	list	1	13	nomatch	voilier	-1	1	p	0.9186900000000001
372.6317	0.0	+	42	noun	list	1	14	nomatch	voilier	-1	1	p	0.9186900000000001
372.5671	0.0	[response]	42	noun	list	1	15	nomatch	voilier	-1	1	p	0.9186900000000001
374.04819999999995	0.0	+	43	verb	list	3	1	nomatch	jean	-1	1	p	0.75524
374.5982	0.2	dmblnct	43	verb	list	3	2	nomatch	jean	-1	1	p	0.75524
374.7981	0.0	+	43	verb	list	3	3	nomatch	jean	-1	1	p	0.75524
375.19809999999995	0.2	pxbj	43	verb	list	3	4	nomatch	jean	-1	1	p	0.75524
375.3981	0.0	+	43	verb	list	3	5	nomatch	jean	-1	1	p	0.75524
375.798	0.2	mon	43	verb	list	3	6	nomatch	jean	-1	1	p	0.75524
375.99800000000005	0.0	+	43	verb	list	3	7	nomatch	jean	-1	1	p	0.75524
376.398	0.2	galoper	43	verb	list	3	8	nomatch	jean	-1	1	p	0.75524
376.59799999999996	0.0	+	43	verb	list	3	9	nomatch	jean	-1	1	p	0.75524
376.99789999999996	0.2	rouge	43	verb	list	3	10	nomatch	jean	-1	1	p	0.75524
377.1979	0.0	+	43	verb	list	3	11	nomatch	jean	-1	1	p	0.75524
377.5979	0.0	+	43	verb	list	3	12	nomatch	jean	-1	1	p	0.75524
379.59770000000003	0.0	JEAN	43	verb	list	3	13	nomatch	jean	-1	1	p	0.75524
380.4143	0.0	+	43	verb	list	3	14	nomatch	jean	-1	1	p	0.75524
380.3529	0.0	[response]	43	verb	list	3	15	nomatch	jean	-1	1	p	0.75524
389.9968	0.0	+	44	verb	list	1	1	match	beau	5	1	y	0.7681
390.5467	0.2	sdmhz	44	verb	list	1	2	match	beau	5	1	y	0.7681
390.74670000000003	0.0	+	44	verb	list	1	3	match	beau	5	1	y	0.7681
391.1467	0.2	xmv	44	verb	list	1	4	match	beau	5	1	y	0.7681
391.34659999999997	0.0	+	44	verb	list	1	5	match	beau	5	1	y	0.7681
391.74660000000006	0.2	tpgs	44	verb	list	1	6	match	beau	5	1	y	0.7681
391.9466	0.0	+	44	verb	list	1	7	match	beau	5	1	y	0.7681
392.34659999999997	0.2	fxtjzkv	44	verb	list	1	8	match	beau	5	1	y	0.7681
392.54650000000004	0.0	+	44	verb	list	1	9	match	beau	5	1	y	0.7681
392.9465	0.2	beau	44	verb	list	1	10	match	beau	5	1	y	0.7681
393.14650000000006	0.0	+	44	verb	list	1	11	match	beau	5	1	y	0.7681
393.54639999999995	0.0	+	44	verb	list	1	12	match	beau	5	1	y	0.7681
395.5463	0.0	BEAU	44	verb	list	1	13	match	beau	5	1	y	0.7681
396.3795	0.0	+	44	verb	list	1	14	match	beau	5	1	y	0.7681
396.3144	0.0	[response]	44	verb	list	1	15	match	beau	5	1	y	0.7681
397.946	0.0	+	45	verb	list	1	1	match	voyager	5	1	y	0.6246800000000001
398.496	0.2	blnkpg	45	verb	list	1	2	match	voyager	5	1	y	0.6246800000000001
398.696	0.0	+	45	verb	list	1	3	match	voyager	5	1	y	0.6246800000000001
399.09590000000003	0.2	pxbj	45	verb	list	1	4	match	voyager	5	1	y	0.6246800000000001
399.29589999999996	0.0	+	45	verb	list	1	5	match	voyager	5	1	y	0.6246800000000001
399.69590000000005	0.2	vft	45	verb	list	1	6	match	voyager	5	1	y	0.6246800000000001
399.8959	0.0	+	45	verb	list	1	7	match	voyager	5	1	y	0.6246800000000001
400.2958	0.2	mpvhd	45	verb	list	1	8	match	voyager	5	1	y	0.6246800000000001
400.49580000000003	0.0	+	45	verb	list	1	9	match	voyager	5	1	y	0.6246800000000001
400.8958	0.2	voyager	45	verb	list	1	10	match	voyager	5	1	y	0.6246800000000001
401.09580000000005	0.0	+	45	verb	list	1	11	match	voyager	5	1	y	0.6246800000000001
401.49570000000006	0.0	+	45	verb	list	1	12	match	voyager	5	1	y	0.6246800000000001
403.4955	0.0	VOYAGER	45	verb	list	1	13	match	voyager	5	1	y	0.6246800000000001
404.1788	0.0	+	45	verb	list	1	14	match	voyager	5	1	y	0.6246800000000001
404.12020000000007	0.0	[response]	45	verb	list	1	15	match	voyager	5	1	y	0.6246800000000001
405.8953	0.0	+	46	verb	list	2	1	match	vieux	4	0	TIMEOUT	-1.0
406.4453000000001	0.2	qkhbgcv	46	verb	list	2	2	match	vieux	4	0	TIMEOUT	-1.0
406.6453	0.0	+	46	verb	list	2	3	match	vieux	4	0	TIMEOUT	-1.0
407.0452	0.2	kszh	46	verb	list	2	4	match	vieux	4	0	TIMEOUT	-1.0
407.24520000000007	0.0	+	46	verb	list	2	5	match	vieux	4	0	TIMEOUT	-1.0
407.64520000000005	0.2	tpgs	46	verb	list	2	6	match	vieux	4	0	TIMEOUT	-1.0
407.8452	0.0	+	46	verb	list	2	7	match	vieux	4	0	TIMEOUT	-1.0
408.2451	0.2	vieux	46	verb	list	2	8	match	vieux	4	0	TIMEOUT	-1.0
408.4451	0.0	+	46	verb	list	2	9	match	vieux	4	0	TIMEOUT	-1.0
408.8451	0.2	parader	46	verb	list	2	10	match	vieux	4	0	TIMEOUT	-1.0
409.0450000000001	0.0	+	46	verb	list	2	11	match	vieux	4	0	TIMEOUT	-1.0
409.44500000000005	0.0	+	46	verb	list	2	12	match	vieux	4	0	TIMEOUT	-1.0
411.4448	0.0	VIEUX	46	verb	list	2	13	match	vieux	4	0	TIMEOUT	-1.0
413.8446	0.0	+	47	noun	phrase	2	1	match	vert	5	1	y	0.54591
414.44460000000004	0.2	wqk	47	noun	phrase	2	2	match	vert	5	1	y	0.54591
414.6445	0.0	+	47	noun	phrase	2	3	match	vert	5	1	y	0.54591
415.0445000000001	0.2	xmv	47	noun	phrase	2	4	match	vert	5	1	y	0.54591
415.2445	0.0	+	47	noun	phrase	2	5	match	vert	5	1	y	0.54591
415.6444	0.2	lgcv	47	noun	phrase	2	6	match	vert	5	1	y	0.54591
415.84440000000006	0.0	+	47	noun	phrase	2	7	match	vert	5	1	y	0.54591
416.24440000000004	0.2	rocher	47	noun	phrase	2	8	match	vert	5	1	y	0.54591
416.4444000000001	0.0	+	47	noun	phrase	2	9	match	vert	5	1	y	0.54591
416.8443000000001	0.2	vert	47	noun	phrase	2	10	match	vert	5	1	y	0.54591
417.0443	0.0	+	47	noun	phrase	2	11	match	vert	5	1	y	0.54591
417.4443	0.0	+	47	noun	phrase	2	12	match	vert	5	1	y	0.54591
419.44410000000005	0.0	VERT	47	noun	phrase	2	13	match	vert	5	1	y	0.54591
420.044	0.0	+	47	noun	phrase	2	14	match	vert	5	1	y	0.54591
419.99	0.0	[response]	47	noun	phrase	2	15	match	vert	5	1	y	0.54591
421.8439000000001	0.0	+	48	verb	phrase	1	1	nomatch	tard	-1	1	p	1.0386
422.39380000000006	0.2	czwl	48	verb	phrase	1	2	nomatch	tard	-1	1	p	1.0386
422.5938	0.0	+	48	verb	phrase	1	3	nomatch	tard	-1	1	p	1.0386
422.9938000000001	0.2	vtwj	48	verb	phrase	1	4	nomatch	tard	-1	1	p	1.0386
423.1938	0.0	+	48	verb	phrase	1	5	nomatch	tard	-1	1	p	1.0386
423.5937	0.2	tpgs	48	verb	phrase	1	6	nomatch	tard	-1	1	p	1.0386
423.79370000000006	0.0	+	48	verb	phrase	1	7	nomatch	tard	-1	1	p	1.0386
424.19370000000004	0.2	jfqtwdc	48	verb	phrase	1	8	nomatch	tard	-1	1	p	1.0386
424.3937000000001	0.0	+	48	verb	phrase	1	9	nomatch	tard	-1	1	p	1.0386
424.7936000000001	0.2	loin	48	verb	phrase	1	10	nomatch	tard	-1	1	p	1.0386
424.9936	0.0	+	48	verb	phrase	1	11	nomatch	tard	-1	1	p	1.0386
425.3936	0.0	+	48	verb	phrase	1	12	nomatch	tard	-1	1	p	1.0386
427.39340000000004	0.0	TARD	48	verb	phrase	1	13	nomatch	tard	-1	1	p	1.0386
428.4933	0.0	+	48	verb	phrase	1	14	nomatch	tard	-1	1	p	1.0386
428.432	0.0	[response]	48	verb	phrase	1	15	nomatch	tard	-1	1	p	1.0386
429.79320000000007	0.0	+	49	noun	list	4	1	match	plus	4	0	TIMEOUT	-1.0
430.34310000000005	0.2	qtbwp	49	noun	list	4	2	match	plus	4	0	TIMEOUT	-1.0
430.5431	0.0	+	49	noun	list	4	3	match	plus	4	0	TIMEOUT	-1.0
430.9431000000001	0.2	luc	49	noun	list	4	4	match	plus	4	0	TIMEOUT	-1.0
431.14300000000003	0.0	+	49	noun	list	4	5	match	plus	4	0	TIMEOUT	-1.0
431.543	0.2	mon	49	noun	list	4	6	match	plus	4	0	TIMEOUT	-1.0
431.74300000000005	0.0	+	49	noun	list	4	7	match	plus	4	0	TIMEOUT	-1.0
432.14300000000003	0.2	plus	49	noun	list	4	8	match	plus	4	0	TIMEOUT	-1.0
432.3429	0.0	+	49	noun	list	4	9	match	plus	4	0	TIMEOUT	-1.0
432.7429000000001	0.2	rocher	49	noun	list	4	10	match	plus	4	0	TIMEOUT	-1.0
432.9429	0.0	+	49	noun	list	4	11	match	plus	4	0	TIMEOUT	-1.0
433.3428	0.0	+	49	noun	list	4	12	match	plus	4	0	TIMEOUT	-1.0
435.34270000000004	0.0	PLUS	49	noun	list	4	13	match	plus	4	0	TIMEOUT	-1.0
437.7424000000001	0.0	+	50	verb	list	1	1	nomatch	tôt	-1	1	p	1.0436
438.3424	0.2	qjlwbds	50	verb	list	1	2	nomatch	tôt	-1	1	p	1.0436
438.54240000000004	0.0	+	50	verb	list	1	3	nomatch	tôt	-1	1	p	1.0436
438.94230000000005	0.2	vtwj	50	verb	list	1	4	nomatch	tôt	-1	1	p	1.0436
439.1423	0.0	+	50	verb	list	1	5	nomatch	tôt	-1	1	p	1.0436
439.54230000000007	0.2	vft	50	verb	list	1	6	nomatch	tôt	-1	1	p	1.0436
439.7423	0.0	+	50	verb	list	1	7	nomatch	tôt	-1	1	p	1.0436
440.1422	0.2	cdlkjtx	50	verb	list	1	8	nomatch	tôt	-1	1	p	1.0436
440.34220000000005	0.0	+	50	verb	list	1	9	nomatch	tôt	-1	1	p	1.0436
440.7422	0.2	noir	50	verb	list	1	10	nomatch	tôt	-1	1	p	1.0436
440.94220000000007	0.0	+	50	verb	list	1	11	nomatch	tôt	-1	1	p	1.0436
441.3421000000001	0.0	+	50	verb	list	1	12	nomatch	tôt	-1	1	p	1.0436
443.3419	0.0	TÔT	50	verb	list	1	13	nomatch	tôt	-1	1	p	1.0436
444.44180000000006	0.0	+	50	verb	list	1	14	nomatch	tôt	-1	1	p	1.0436
444.3855	0.0	[response]	50	verb	list	1	15	nomatch	tôt	-1	1	p	1.0436
445.74170000000004	0.0	+	51	noun	phrase	1	1	nomatch	peut	-1	1	p	0.7066700000000001
446.2917	0.2	xntdwj	51	noun	phrase	1	2	nomatch	peut	-1	1	p	0.7066700000000001
446.49170000000004	0.0	+	51	noun	phrase	1	3	nomatch	peut	-1	1	p	0.7066700000000001
446.89160000000004	0.2	kszh	51	noun	phrase	1	4	nomatch	peut	-1	1	p	0.7066700000000001
447.0916000000001	0.0	+	51	noun	phrase	1	5	nomatch	peut	-1	1	p	0.7066700000000001
447.49160000000006	0.2	rbh	51	noun	phrase	1	6	nomatch	peut	-1	1	p	0.7066700000000001
447.6916	0.0	+	51	noun	phrase	1	7	nomatch	peut	-1	1	p	0.7066700000000001
448.0915	0.2	mlxk	51	noun	phrase	1	8	nomatch	peut	-1	1	p	0.7066700000000001
448.29150000000004	0.0	+	51	noun	phrase	1	9	nomatch	peut	-1	1	p	0.7066700000000001
448.6915	0.2	clavier	51	noun	phrase	1	10	nomatch	peut	-1	1	p	0.7066700000000001
448.8914000000001	0.0	+	51	noun	phrase	1	11	nomatch	peut	-1	1	p	0.7066700000000001
449.29140000000007	0.0	+	51	noun	phrase	1	12	nomatch	peut	-1	1	p	0.7066700000000001
451.2912	0.0	PEUT	51	noun	phrase	1	13	nomatch	peut	-1	1	p	0.7066700000000001
452.05780000000004	0.0	+	51	noun	phrase	1	14	nomatch	peut	-1	1	p	0.7066700000000001
451.9979000000002	0.0	[response]	51	noun	phrase	1	15	nomatch	peut	-1	1	p	0.7066700000000001
453.69100000000003	0.0	+	52	verb	phrase	1	1	match	galoper	5	1	y	2.0062
454.241	0.2	clhpqkm	52	verb	phrase	1	2	match	galoper	5	1	y	2.0062
454.44090000000006	0.0	+	52	verb	phrase	1	3	match	galoper	5	1	y	2.0062
454.84090000000003	0.2	mpdb	52	verb	phrase	1	4	match	galoper	5	1	y	2.0062
455.0409000000001	0.0	+	52	verb	phrase	1	5	match	galoper	5	1	y	2.0062
455.44090000000006	0.2	svhw	52	verb	phrase	1	6	match	galoper	5	1	y	2.0062
455.6408	0.0	+	52	verb	phrase	1	7	match	galoper	5	1	y	2.0062
456.0408	0.2	vwcgz	52	verb	phrase	1	8	match	galoper	5	1	y	2.0062
456.24080000000004	0.0	+	52	verb	phrase	1	9	match	galoper	5	1	y	2.0062
456.64070000000004	0.2	galoper	52	verb	phrase	1	10	match	galoper	5	1	y	2.0062
456.8407000000001	0.0	+	52	verb	phrase	1	11	match	galoper	5	1	y	2.0062
457.24070000000006	0.0	+	52	verb	phrase	1	12	match	galoper	5	1	y	2.0062
459.2405	0.0	GALOPER	52	verb	phrase	1	13	match	galoper	5	1	y	2.0062
461.307	0.0	+	52	verb	phrase	1	14	match	galoper	5	1	y	2.0062
461.24670000000003	0.0	[response]	52	verb	phrase	1	15	match	galoper	5	1	y	2.0062
461.6403	0.0	+	53	verb	phrase	3	1	match	parader	4	1	y	0.52709
462.1902	0.2	dgvhsn	53	verb	phrase	3	2	match	parader	4	1	y	0.52709
462.39020000000005	0.0	+	53	verb	phrase	3	3	match	parader	4	1	y	0.52709
462.7902	0.2	rmkt	53	verb	phrase	3	4	match	parader	4	1	y	0.52709
462.9902000000001	0.0	+	53	verb	phrase	3	5	match	parader	4	1	y	0.52709
463.3901000000001	0.2	peut	53	verb	phrase	3	6	match	parader	4	1	y	0.52709
463.5901	0.0	+	53	verb	phrase	3	7	match	parader	4	1	y	0.52709
463.9901	0.2	parader	53	verb	phrase	3	8	match	parader	4	1	y	0.52709
464.19010000000003	0.0	+	53	verb	phrase	3	9	match	parader	4	1	y	0.52709
464.59000000000003	0.2	tard	53	verb	phrase	3	10	match	parader	4	1	y	0.52709
464.7900000000001	0.0	+	53	verb	phrase	3	11	match	parader	4	1	y	0.52709
465.19000000000005	0.0	+	53	verb	phrase	3	12	match	parader	4	1	y	0.52709
467.1898	0.0	PARADER	53	verb	phrase	3	13	match	parader	4	1	y	0.52709
467.7731	0.0	+	53	verb	phrase	3	14	match	parader	4	1	y	0.52709
467.7169	0.0	[response]	53	verb	phrase	3	15	match	parader	4	1	y	0.52709
469.5896	0.0	+	54	noun	phrase	4	1	match	noir	5	1	y	0.73147
470.1395	0.2	xmzrdlp	54	noun	phrase	4	2	match	noir	5	1	y	0.73147
470.33950000000004	0.0	+	54	noun	phrase	4	3	match	noir	5	1	y	0.73147
470.7395	0.2	pour	54	noun	phrase	4	4	match	noir	5	1	y	0.73147
470.93950000000007	0.0	+	54	noun	phrase	4	5	match	noir	5	1	y	0.73147
471.33940000000007	0.2	son	54	noun	phrase	4	6	match	noir	5	1	y	0.73147
471.5394	0.0	+	54	noun	phrase	4	7	match	noir	5	1	y	0.73147
471.9394	0.2	cendrier	54	noun	phrase	4	8	match	noir	5	1	y	0.73147
472.13930000000005	0.0	+	54	noun	phrase	4	9	match	noir	5	1	y	0.73147
472.5393	0.2	noir	54	noun	phrase	4	10	match	noir	5	1	y	0.73147
472.73930000000007	0.0	+	54	noun	phrase	4	11	match	noir	5	1	y	0.73147
473.13930000000005	0.0	+	54	noun	phrase	4	12	match	noir	5	1	y	0.73147
475.1391	0.0	NOIR	54	noun	phrase	4	13	match	noir	5	1	y	0.73147
475.9390000000001	0.0	+	54	noun	phrase	4	14	match	noir	5	1	y	0.73147
475.8705	0.0	[response]	54	noun	phrase	4	15	match	noir	5	1	y	0.73147
477.5389	0.0	+	55	verb	phrase	1	1	match	nager	5	0	p	3.3563
478.0888	0.2	plrg	55	verb	phrase	1	2	match	nager	5	0	p	3.3563
478.28880000000004	0.0	+	55	verb	phrase	1	3	match	nager	5	0	p	3.3563
478.6888	0.2	rmkt	55	verb	phrase	1	4	match	nager	5	0	p	3.3563
478.8887000000001	0.0	+	55	verb	phrase	1	5	match	nager	5	0	p	3.3563
479.28870000000006	0.2	cn	55	verb	phrase	1	6	match	nager	5	0	p	3.3563
479.4887	0.0	+	55	verb	phrase	1	7	match	nager	5	0	p	3.3563
479.8886	0.2	mgqrh	55	verb	phrase	1	8	match	nager	5	0	p	3.3563
480.08860000000004	0.0	+	55	verb	phrase	1	9	match	nager	5	0	p	3.3563
480.4886	0.2	nager	55	verb	phrase	1	10	match	nager	5	0	p	3.3563
480.68860000000006	0.0	+	55	verb	phrase	1	11	match	nager	5	0	p	3.3563
481.08850000000007	0.0	+	55	verb	phrase	1	12	match	nager	5	0	p	3.3563
483.0884	0.0	NAGER	55	verb	phrase	1	13	match	nager	5	0	p	3.3563
486.50470000000007	0.0	+	55	verb	phrase	1	14	match	nager	5	0	p	3.3563
486.4447000000001	0.0	[response]	55	verb	phrase	1	15	match	nager	5	0	p	3.3563
493.4874	0.0	+	56	noun	phrase	4	1	match	blanc	5	0	TIMEOUT	-1.0
494.03740000000005	0.2	ctgdnvp	56	noun	phrase	4	2	match	blanc	5	0	TIMEOUT	-1.0
494.2373	0.0	+	56	noun	phrase	4	3	match	blanc	5	0	TIMEOUT	-1.0
494.6373	0.2	dans	56	noun	phrase	4	4	match	blanc	5	0	TIMEOUT	-1.0
494.8373	0.0	+	56	noun	phrase	4	5	match	blanc	5	0	TIMEOUT	-1.0
495.2373	0.2	leur	56	noun	phrase	4	6	match	blanc	5	0	TIMEOUT	-1.0
495.4372000000001	0.0	+	56	noun	phrase	4	7	match	blanc	5	0	TIMEOUT	-1.0
495.83720000000005	0.2	rocher	56	noun	phrase	4	8	match	blanc	5	0	TIMEOUT	-1.0
496.0372	0.0	+	56	noun	phrase	4	9	match	blanc	5	0	TIMEOUT	-1.0
496.4371	0.2	blanc	56	noun	phrase	4	10	match	blanc	5	0	TIMEOUT	-1.0
496.63710000000003	0.0	+	56	noun	phrase	4	11	match	blanc	5	0	TIMEOUT	-1.0
497.0371	0.0	+	56	noun	phrase	4	12	match	blanc	5	0	TIMEOUT	-1.0
499.03690000000006	0.0	BLANC	56	noun	phrase	4	13	match	blanc	5	0	TIMEOUT	-1.0
501.4534	0.0	+	57	verb	phrase	4	1	match	va	3	1	y	1.4362
502.0366	0.2	skf	57	verb	phrase	4	2	match	va	3	1	y	1.4362
502.23660000000007	0.0	+	57	verb	phrase	4	3	match	va	3	1	y	1.4362
502.63660000000004	0.2	adam	57	verb	phrase	4	4	match	va	3	1	y	1.4362
502.8366000000001	0.0	+	57	verb	phrase	4	5	match	va	3	1	y	1.4362
503.2365	0.2	va	57	verb	phrase	4	6	match	va	3	1	y	1.4362
503.4365	0.0	+	57	verb	phrase	4	7	match	va	3	1	y	1.4362
503.8365	0.2	jongler	57	verb	phrase	4	8	match	va	3	1	y	1.4362
504.03650000000005	0.0	+	57	verb	phrase	4	9	match	va	3	1	y	1.4362
504.43640000000005	0.2	tard	57	verb	phrase	4	10	match	va	3	1	y	1.4362
504.6364	0.0	+	57	verb	phrase	4	11	match	va	3	1	y	1.4362
505.03640000000007	0.0	+	57	verb	phrase	4	12	match	va	3	1	y	1.4362
507.03640000000007	0.0	VA	57	verb	phrase	4	13	match	va	3	1	y	1.4362
508.53600000000006	0.0	+	57	verb	phrase	4	14	match	va	3	1	y	1.4362
508.4725000000001	0.0	[response]	57	verb	phrase	4	15	match	va	3	1	y	1.4362
509.43600000000004	0.0	+	58	noun	list	4	1	nomatch	mon	-1	1	p	1.2943
509.9859	0.2	jwgqk	58	noun	list	4	2	nomatch	mon	-1	1	p	1.2943
510.18590000000006	0.0	+	58	noun	list	4	3	nomatch	mon	-1	1	p	1.2943
510.58590000000004	0.2	jean	58	noun	list	4	4	nomatch	mon	-1	1	p	1.2943
510.7859000000001	0.0	+	58	noun	list	4	5	nomatch	mon	-1	1	p	1.2943
511.1858000000001	0.2	leur	58	noun	list	4	6	nomatch	mon	-1	1	p	1.2943
511.3858	0.0	+	58	noun	list	4	7	nomatch	mon	-1	1	p	1.2943
511.7858	0.2	beaucoup	58	noun	list	4	8	nomatch	mon	-1	1	p	1.2943
511.98570000000007	0.0	+	58	noun	list	4	9	nomatch	mon	-1	1	p	1.2943
512.3857	0.2	voilier	58	noun	list	4	10	nomatch	mon	-1	1	p	1.2943
512.5857000000001	0.0	+	58	noun	list	4	11	nomatch	mon	-1	1	p	1.2943
512.9857000000001	0.0	+	58	noun	list	4	12	nomatch	mon	-1	1	p	1.2943
514.9855	0.0	MON	58	noun	list	4	13	nomatch	mon	-1	1	p	1.2943
516.3353000000001	0.0	+	58	noun	list	4	14	nomatch	mon	-1	1	p	1.2943
516.2798	0.0	[response]	58	noun	list	4	15	nomatch	mon	-1	1	p	1.2943
517.3852	0.0	+	59	noun	phrase	2	1	match	vert	5	0	TIMEOUT	-1.0
517.9352	0.2	fljgqwt	59	noun	phrase	2	2	match	vert	5	0	TIMEOUT	-1.0
518.1352	0.0	+	59	noun	phrase	2	3	match	vert	5	0	TIMEOUT	-1.0
518.5352	0.2	jkhs	59	noun	phrase	2	4	match	vert	5	0	TIMEOUT	-1.0
518.7351	0.0	+	59	noun	phrase	2	5	match	vert	5	0	TIMEOUT	-1.0
519.1351000000001	0.2	rbh	59	noun	phrase	2	6	match	vert	5	0	TIMEOUT	-1.0
519.3351	0.0	+	59	noun	phrase	2	7	match	vert	5	0	TIMEOUT	-1.0
519.735	0.2	cendrier	59	noun	phrase	2	8	match	vert	5	0	TIMEOUT	-1.0
519.9350000000001	0.0	+	59	noun	phrase	2	9	match	vert	5	0	TIMEOUT	-1.0
520.335	0.2	vert	59	noun	phrase	2	10	match	vert	5	0	TIMEOUT	-1.0
520.5350000000001	0.0	+	59	noun	phrase	2	11	match	vert	5	0	TIMEOUT	-1.0
520.9349000000001	0.0	+	59	noun	phrase	2	12	match	vert	5	0	TIMEOUT	-1.0
522.9348	0.0	VERT	59	noun	phrase	2	13	match	vert	5	0	TIMEOUT	-1.0
525.3512000000001	0.0	+	60	verb	phrase	1	1	nomatch	leur	-1	1	p	0.7348900000000002
525.9511	0.2	zvrfgq	60	verb	phrase	1	2	nomatch	leur	-1	1	p	0.7348900000000002
526.1511	0.0	+	60	verb	phrase	1	3	nomatch	leur	-1	1	p	0.7348900000000002
526.5511	0.2	rmkt	60	verb	phrase	1	4	nomatch	leur	-1	1	p	0.7348900000000002
526.7511000000001	0.0	+	60	verb	phrase	1	5	nomatch	leur	-1	1	p	0.7348900000000002
527.1510000000001	0.2	cn	60	verb	phrase	1	6	nomatch	leur	-1	1	p	0.7348900000000002
527.351	0.0	+	60	verb	phrase	1	7	nomatch	leur	-1	1	p	0.7348900000000002
527.751	0.2	szdw	60	verb	phrase	1	8	nomatch	leur	-1	1	p	0.7348900000000002
527.951	0.0	+	60	verb	phrase	1	9	nomatch	leur	-1	1	p	0.7348900000000002
528.3509	0.2	danser	60	verb	phrase	1	10	nomatch	leur	-1	1	p	0.7348900000000002
528.5509000000001	0.0	+	60	verb	phrase	1	11	nomatch	leur	-1	1	p	0.7348900000000002
528.9509	0.0	+	60	verb	phrase	1	12	nomatch	leur	-1	1	p	0.7348900000000002
530.9507	0.0	LEUR	60	verb	phrase	1	13	nomatch	leur	-1	1	p	0.7348900000000002
531.7506000000001	0.0	+	60	verb	phrase	1	14	nomatch	leur	-1	1	p	0.7348900000000002
531.6856000000001	0.0	[response]	60	verb	phrase	1	15	nomatch	leur	-1	1	p	0.7348900000000002
533.3505	0.0	+	61	noun	list	2	1	match	cendrier	4	1	y	5.501
533.9004	0.2	xrjb	61	noun	list	2	2	match	cendrier	4	1	y	5.501
534.1004	0.0	+	61	noun	list	2	3	match	cendrier	4	1	y	5.501
534.5004	0.2	wcbs	61	noun	list	2	4	match	cendrier	4	1	y	5.501
534.7004000000001	0.0	+	61	noun	list	2	5	match	cendrier	4	1	y	5.501
535.1003000000001	0.2	tpgs	61	noun	list	2	6	match	cendrier	4	1	y	5.501
535.3003	0.0	+	61	noun	list	2	7	match	cendrier	4	1	y	5.501
535.7003000000001	0.2	cendrier	61	noun	list	2	8	match	cendrier	4	1	y	5.501
535.9003	0.0	+	61	noun	list	2	9	match	cendrier	4	1	y	5.501
536.3002	0.2	ainsi	61	noun	list	2	10	match	cendrier	4	1	y	5.501
536.5002000000001	0.0	+	61	noun	list	2	11	match	cendrier	4	1	y	5.501
536.9002	0.0	+	61	noun	list	2	12	match	cendrier	4	1	y	5.501
538.9	0.0	CENDRIER	61	noun	list	2	13	match	cendrier	4	1	y	5.501
544.4661	0.0	+	61	noun	list	2	14	match	cendrier	4	1	y	5.501
544.4010000000001	0.0	[response]	61	noun	list	2	15	match	cendrier	4	1	y	5.501
565.2976	0.0	+	62	verb	phrase	2	1	match	beaucoup	4	1	y	2.0857
565.8475000000001	0.2	gvwt	62	verb	phrase	2	2	match	beaucoup	4	1	y	2.0857
566.0475	0.0	+	62	verb	phrase	2	3	match	beaucoup	4	1	y	2.0857
566.4475	0.2	cvq	62	verb	phrase	2	4	match	beaucoup	4	1	y	2.0857
566.6475	0.0	+	62	verb	phrase	2	5	match	beaucoup	4	1	y	2.0857
567.0474	0.2	cn	62	verb	phrase	2	6	match	beaucoup	4	1	y	2.0857
567.2474000000001	0.0	+	62	verb	phrase	2	7	match	beaucoup	4	1	y	2.0857
567.6474000000001	0.2	beaucoup	62	verb	phrase	2	8	match	beaucoup	4	1	y	2.0857
567.8474	0.0	+	62	verb	phrase	2	9	match	beaucoup	4	1	y	2.0857
568.2473	0.2	chasser	62	verb	phrase	2	10	match	beaucoup	4	1	y	2.0857
568.4473	0.0	+	62	verb	phrase	2	11	match	beaucoup	4	1	y	2.0857
568.8473	0.0	+	62	verb	phrase	2	12	match	beaucoup	4	1	y	2.0857
570.8471000000001	0.0	BEAUCOUP	62	verb	phrase	2	13	match	beaucoup	4	1	y	2.0857
572.9969	0.0	+	62	verb	phrase	2	14	match	beaucoup	4	1	y	2.0857
572.9328	0.0	[response]	62	verb	phrase	2	15	match	beaucoup	4	1	y	2.0857
589.2454	0.0	+	63	verb	list	1	1	nomatch	blanc	-1	1	p	0.62735
589.7954000000001	0.2	lqxdkrn	63	verb	list	1	2	nomatch	blanc	-1	1	p	0.62735
589.9954	0.0	+	63	verb	list	1	3	nomatch	blanc	-1	1	p	0.62735
590.3953	0.2	pxbj	63	verb	list	1	4	nomatch	blanc	-1	1	p	0.62735
590.5953000000001	0.0	+	63	verb	list	1	5	nomatch	blanc	-1	1	p	0.62735
590.9953	0.2	lgcv	63	verb	list	1	6	nomatch	blanc	-1	1	p	0.62735
591.1953000000001	0.0	+	63	verb	list	1	7	nomatch	blanc	-1	1	p	0.62735
591.5952	0.2	fbgdnrv	63	verb	list	1	8	nomatch	blanc	-1	1	p	0.62735
591.7952	0.0	+	63	verb	list	1	9	nomatch	blanc	-1	1	p	0.62735
592.1952	0.2	vert	63	verb	list	1	10	nomatch	blanc	-1	1	p	0.62735
592.3951000000001	0.0	+	63	verb	list	1	11	nomatch	blanc	-1	1	p	0.62735
592.7951	0.0	+	63	verb	list	1	12	nomatch	blanc	-1	1	p	0.62735
594.7949	0.0	BLANC	63	verb	list	1	13	nomatch	blanc	-1	1	p	0.62735
595.4782	0.0	+	63	verb	list	1	14	nomatch	blanc	-1	1	p	0.62735
595.4223000000001	0.0	[response]	63	verb	list	1	15	nomatch	blanc	-1	1	p	0.62735
597.1947	0.0	+	64	verb	phrase	2	1	nomatch	tard	-1	1	p	2.0616
597.7447000000001	0.2	pcvsw	64	verb	phrase	2	2	nomatch	tard	-1	1	p	2.0616
597.9446	0.0	+	64	verb	phrase	2	3	nomatch	tard	-1	1	p	2.0616
598.3446	0.2	rmkt	64	verb	phrase	2	4	nomatch	tard	-1	1	p	2.0616
598.5446000000001	0.0	+	64	verb	phrase	2	5	nomatch	tard	-1	1	p	2.0616
598.9446	0.2	cn	64	verb	phrase	2	6	nomatch	tard	-1	1	p	2.0616
599.1445	0.0	+	64	verb	phrase	2	7	nomatch	tard	-1	1	p	2.0616
599.5445000000001	0.2	moins	64	verb	phrase	2	8	nomatch	tard	-1	1	p	2.0616
599.7445	0.0	+	64	verb	phrase	2	9	nomatch	tard	-1	1	p	2.0616
600.1444	0.2	jongler	64	verb	phrase	2	10	nomatch	tard	-1	1	p	2.0616
600.3444000000001	0.0	+	64	verb	phrase	2	11	nomatch	tard	-1	1	p	2.0616
600.7444	0.0	+	64	verb	phrase	2	12	nomatch	tard	-1	1	p	2.0616
602.7442	0.0	TARD	64	verb	phrase	2	13	nomatch	tard	-1	1	p	2.0616
604.8607000000001	0.0	+	64	verb	phrase	2	14	nomatch	tard	-1	1	p	2.0616
604.8058000000001	0.0	[response]	64	verb	phrase	2	15	nomatch	tard	-1	1	p	2.0616
605.144	0.0	+	65	verb	list	4	1	match	vert	5	0	p	1.2223
605.6939	0.2	flks	65	verb	list	4	2	match	vert	5	0	p	1.2223
605.8939	0.0	+	65	verb	list	4	3	match	vert	5	0	p	1.2223
606.2939	0.2	adam	65	verb	list	4	4	match	vert	5	0	p	1.2223
606.4939	0.0	+	65	verb	list	4	5	match	vert	5	0	p	1.2223
606.8938	0.2	mon	65	verb	list	4	6	match	vert	5	0	p	1.2223
607.0938	0.0	+	65	verb	list	4	7	match	vert	5	0	p	1.2223
607.4938000000001	0.2	nager	65	verb	list	4	8	match	vert	5	0	p	1.2223
607.6938	0.0	+	65	verb	list	4	9	match	vert	5	0	p	1.2223
608.0937	0.2	vert	65	verb	list	4	10	match	vert	5	0	p	1.2223
608.2937000000001	0.0	+	65	verb	list	4	11	match	vert	5	0	p	1.2223
608.6937	0.0	+	65	verb	list	4	12	match	vert	5	0	p	1.2223
610.6935000000001	0.0	VERT	65	verb	list	4	13	match	vert	5	0	p	1.2223
611.9767	0.0	+	65	verb	list	4	14	match	vert	5	0	p	1.2223
611.9157	0.0	[response]	65	verb	list	4	15	match	vert	5	0	p	1.2223
613.0933	0.0	+	66	verb	phrase	1	1	match	galoper	5	1	y	0.61663
613.6432	0.2	jdtrw	66	verb	phrase	1	2	match	galoper	5	1	y	0.61663
613.8432	0.0	+	66	verb	phrase	1	3	match	galoper	5	1	y	0.61663
614.2432	0.2	pxbj	66	verb	phrase	1	4	match	galoper	5	1	y	0.61663
614.4432	0.0	+	66	verb	phrase	1	5	match	galoper	5	1	y	0.61663
614.8431	0.2	svhw	66	verb	phrase	1	6	match	galoper	5	1	y	0.61663
615.0431	0.0	+	66	verb	phrase	1	7	match	galoper	5	1	y	0.61663
615.4431000000001	0.2	jpl	66	verb	phrase	1	8	match	galoper	5	1	y	0.61663
615.643	0.0	+	66	verb	phrase	1	9	match	galoper	5	1	y	0.61663
616.043	0.2	galoper	66	verb	phrase	1	10	match	galoper	5	1	y	0.61663
616.243	0.0	+	66	verb	phrase	1	11	match	galoper	5	1	y	0.61663
616.643	0.0	+	66	verb	phrase	1	12	match	galoper	5	1	y	0.61663
618.6428000000001	0.0	GALOPER	66	verb	phrase	1	13	match	galoper	5	1	y	0.61663
619.326	0.0	+	66	verb	phrase	1	14	match	galoper	5	1	y	0.61663
619.2594	0.0	[response]	66	verb	phrase	1	15	match	galoper	5	1	y	0.61663
621.0426	0.0	+	67	verb	list	4	1	nomatch	blanc	-1	0	y	5.4912
621.5925000000001	0.2	btrshfm	67	verb	list	4	2	nomatch	blanc	-1	0	y	5.4912
621.7925	0.0	+	67	verb	list	4	3	nomatch	blanc	-1	0	y	5.4912
622.1925	0.2	avec	67	verb	list	4	4	nomatch	blanc	-1	0	y	5.4912
622.3924000000001	0.0	+	67	verb	list	4	5	nomatch	blanc	-1	0	y	5.4912
622.7924	0.2	doit	67	verb	list	4	6	nomatch	blanc	-1	0	y	5.4912
622.9924000000001	0.0	+	67	verb	list	4	7	nomatch	blanc	-1	0	y	5.4912
623.3923	0.2	grand	67	verb	list	4	8	nomatch	blanc	-1	0	y	5.4912
623.5923	0.0	+	67	verb	list	4	9	nomatch	blanc	-1	0	y	5.4912
623.9923	0.2	plonger	67	verb	list	4	10	nomatch	blanc	-1	0	y	5.4912
624.1923	0.0	+	67	verb	list	4	11	nomatch	blanc	-1	0	y	5.4912
624.5922	0.0	+	67	verb	list	4	12	nomatch	blanc	-1	0	y	5.4912
626.5921000000001	0.0	BLANC	67	verb	list	4	13	nomatch	blanc	-1	0	y	5.4912
632.1415000000001	0.0	+	67	verb	list	4	14	nomatch	blanc	-1	0	y	5.4912
632.0833	0.0	[response]	67	verb	list	4	15	nomatch	blanc	-1	0	y	5.4912
636.9911000000001	0.0	+	68	verb	phrase	4	1	match	parader	5	0	TIMEOUT	-1.0
637.5411	0.2	jgrn	68	verb	phrase	4	2	match	parader	5	0	TIMEOUT	-1.0
637.741	0.0	+	68	verb	phrase	4	3	match	parader	5	0	TIMEOUT	-1.0
638.1410000000001	0.2	paul	68	verb	phrase	4	4	match	parader	5	0	TIMEOUT	-1.0
638.341	0.0	+	68	verb	phrase	4	5	match	parader	5	0	TIMEOUT	-1.0
638.741	0.2	va	68	verb	phrase	4	6	match	parader	5	0	TIMEOUT	-1.0
638.9409	0.0	+	68	verb	phrase	4	7	match	parader	5	0	TIMEOUT	-1.0
639.3409	0.2	beaucoup	68	verb	phrase	4	8	match	parader	5	0	TIMEOUT	-1.0
639.5409000000001	0.0	+	68	verb	phrase	4	9	match	parader	5	0	TIMEOUT	-1.0
639.9409	0.2	parader	68	verb	phrase	4	10	match	parader	5	0	TIMEOUT	-1.0
640.1408	0.0	+	68	verb	phrase	4	11	match	parader	5	0	TIMEOUT	-1.0
640.5408	0.0	+	68	verb	phrase	4	12	match	parader	5	0	TIMEOUT	-1.0
642.5406	0.0	PARADER	68	verb	phrase	4	13	match	parader	5	0	TIMEOUT	-1.0
644.9571000000001	0.0	+	69	verb	list	1	1	nomatch	leur	-1	1	p	0.76318
645.5403	0.2	fqcnklj	69	verb	list	1	2	nomatch	leur	-1	1	p	0.76318
645.7403	0.0	+	69	verb	list	1	3	nomatch	leur	-1	1	p	0.76318
646.1403	0.2	rmkt	69	verb	list	1	4	nomatch	leur	-1	1	p	0.76318
646.3403000000001	0.0	+	69	verb	list	1	5	nomatch	leur	-1	1	p	0.76318
646.7402000000001	0.2	lgcv	69	verb	list	1	6	nomatch	leur	-1	1	p	0.76318
646.9402	0.0	+	69	verb	list	1	7	nomatch	leur	-1	1	p	0.76318
647.3402	0.2	mdbkqwz	69	verb	list	1	8	nomatch	leur	-1	1	p	0.76318
647.5402	0.0	+	69	verb	list	1	9	nomatch	leur	-1	1	p	0.76318
647.9401	0.2	blanc	69	verb	list	1	10	nomatch	leur	-1	1	p	0.76318
648.1401000000001	0.0	+	69	verb	list	1	11	nomatch	leur	-1	1	p	0.76318
648.5401	0.0	+	69	verb	list	1	12	nomatch	leur	-1	1	p	0.76318
650.5399	0.0	LEUR	69	verb	list	1	13	nomatch	leur	-1	1	p	0.76318
651.3731	0.0	+	69	verb	list	1	14	nomatch	leur	-1	1	p	0.76318
651.3031000000001	0.0	[response]	69	verb	list	1	15	nomatch	leur	-1	1	p	0.76318
652.9397	0.0	+	70	verb	list	4	1	match	doit	3	0	TIMEOUT	-1.0
653.4896	0.2	gjm	70	verb	list	4	2	match	doit	3	0	TIMEOUT	-1.0
653.6896	0.0	+	70	verb	list	4	3	match	doit	3	0	TIMEOUT	-1.0
654.0896	0.2	sur	70	verb	list	4	4	match	doit	3	0	TIMEOUT	-1.0
654.2896000000001	0.0	+	70	verb	list	4	5	match	doit	3	0	TIMEOUT	-1.0
654.6895000000001	0.2	doit	70	verb	list	4	6	match	doit	3	0	TIMEOUT	-1.0
654.8895	0.0	+	70	verb	list	4	7	match	doit	3	0	TIMEOUT	-1.0
655.2895000000001	0.2	grand	70	verb	list	4	8	match	doit	3	0	TIMEOUT	-1.0
655.4894	0.0	+	70	verb	list	4	9	match	doit	3	0	TIMEOUT	-1.0
655.8894	0.2	chasser	70	verb	list	4	10	match	doit	3	0	TIMEOUT	-1.0
656.0894000000001	0.0	+	70	verb	list	4	11	match	doit	3	0	TIMEOUT	-1.0
656.4894	0.0	+	70	verb	list	4	12	match	doit	3	0	TIMEOUT	-1.0
658.4892	0.0	DOIT	70	verb	list	4	13	match	doit	3	0	TIMEOUT	-1.0
660.889	0.0	+	71	verb	list	2	1	nomatch	parader	-1	1	p	2.3262
661.4889000000001	0.2	zvxw	71	verb	list	2	2	nomatch	parader	-1	1	p	2.3262
661.6889	0.0	+	71	verb	list	2	3	nomatch	parader	-1	1	p	2.3262
662.0888	0.2	mpdb	71	verb	list	2	4	nomatch	parader	-1	1	p	2.3262
662.2888	0.0	+	71	verb	list	2	5	nomatch	parader	-1	1	p	2.3262
662.6888	0.2	vft	71	verb	list	2	6	nomatch	parader	-1	1	p	2.3262
662.8888000000001	0.0	+	71	verb	list	2	7	nomatch	parader	-1	1	p	2.3262
663.2887000000001	0.2	galoper	71	verb	list	2	8	nomatch	parader	-1	1	p	2.3262
663.4887	0.0	+	71	verb	list	2	9	nomatch	parader	-1	1	p	2.3262
663.8887000000001	0.2	vert	71	verb	list	2	10	nomatch	parader	-1	1	p	2.3262
664.0887	0.0	+	71	verb	list	2	11	nomatch	parader	-1	1	p	2.3262
664.4886	0.0	+	71	verb	list	2	12	nomatch	parader	-1	1	p	2.3262
666.4885	0.0	PARADER	71	verb	list	2	13	nomatch	parader	-1	1	p	2.3262
668.8716000000001	0.0	+	71	verb	list	2	14	nomatch	parader	-1	1	p	2.3262
668.8146	0.0	[response]	71	verb	list	2	15	nomatch	parader	-1	1	p	2.3262
668.9382	0.0	+	72	verb	list	4	1	match	sans	2	0	TIMEOUT	-1.0
669.4382	0.2	rlshqj	72	verb	list	4	2	match	sans	2	0	TIMEOUT	-1.0
669.6382	0.0	+	72	verb	list	4	3	match	sans	2	0	TIMEOUT	-1.0
670.0381	0.2	sans	72	verb	list	4	4	match	sans	2	0	TIMEOUT	-1.0
670.2381	0.0	+	72	verb	list	4	5	match	sans	2	0	TIMEOUT	-1.0
670.6381	0.2	doit	72	verb	list	4	6	match	sans	2	0	TIMEOUT	-1.0
670.8381	0.0	+	72	verb	list	4	7	match	sans	2	0	TIMEOUT	-1.0
671.238	0.2	nouveau	72	verb	list	4	8	match	sans	2	0	TIMEOUT	-1.0
671.438	0.0	+	72	verb	list	4	9	match	sans	2	0	TIMEOUT	-1.0
671.8380000000001	0.2	nager	72	verb	list	4	10	match	sans	2	0	TIMEOUT	-1.0
672.0379	0.0	+	72	verb	list	4	11	match	sans	2	0	TIMEOUT	-1.0
672.4379	0.0	+	72	verb	list	4	12	match	sans	2	0	TIMEOUT	-1.0
674.4377000000001	0.0	SANS	72	verb	list	4	13	match	sans	2	0	TIMEOUT	-1.0
676.8542	0.0	+	73	verb	phrase	3	1	match	parader	5	0	TIMEOUT	-1.0
677.4375	0.2	zgfxd	73	verb	phrase	3	2	match	parader	5	0	TIMEOUT	-1.0
677.6374000000001	0.0	+	73	verb	phrase	3	3	match	parader	5	0	TIMEOUT	-1.0
678.0374	0.2	mpdb	73	verb	phrase	3	4	match	parader	5	0	TIMEOUT	-1.0
678.2374	0.0	+	73	verb	phrase	3	5	match	parader	5	0	TIMEOUT	-1.0
678.6374000000001	0.2	va	73	verb	phrase	3	6	match	parader	5	0	TIMEOUT	-1.0
678.8373	0.0	+	73	verb	phrase	3	7	match	parader	5	0	TIMEOUT	-1.0
679.2373	0.2	beaucoup	73	verb	phrase	3	8	match	parader	5	0	TIMEOUT	-1.0
679.4373	0.0	+	73	verb	phrase	3	9	match	parader	5	0	TIMEOUT	-1.0
679.8372	0.2	parader	73	verb	phrase	3	10	match	parader	5	0	TIMEOUT	-1.0
680.0372	0.0	+	73	verb	phrase	3	11	match	parader	5	0	TIMEOUT	-1.0
680.4372000000001	0.0	+	73	verb	phrase	3	12	match	parader	5	0	TIMEOUT	-1.0
682.437	0.0	PARADER	73	verb	phrase	3	13	match	parader	5	0	TIMEOUT	-1.0
684.8701	0.0	+	74	verb	phrase	1	1	match	jongler	5	1	y	0.73574
685.4367000000001	0.2	qnk	74	verb	phrase	1	2	match	jongler	5	1	y	0.73574
685.6367	0.0	+	74	verb	phrase	1	3	match	jongler	5	1	y	0.73574
686.0367	0.2	wvln	74	verb	phrase	1	4	match	jongler	5	1	y	0.73574
686.2367	0.0	+	74	verb	phrase	1	5	match	jongler	5	1	y	0.73574
686.6366	0.2	cn	74	verb	phrase	1	6	match	jongler	5	1	y	0.73574
686.8366000000001	0.0	+	74	verb	phrase	1	7	match	jongler	5	1	y	0.73574
687.2366000000001	0.2	kjtlc	74	verb	phrase	1	8	match	jongler	5	1	y	0.73574
687.4366	0.0	+	74	verb	phrase	1	9	match	jongler	5	1	y	0.73574
687.8365	0.2	jongler	74	verb	phrase	1	10	match	jongler	5	1	y	0.73574
688.0365	0.0	+	74	verb	phrase	1	11	match	jongler	5	1	y	0.73574
688.4365	0.0	+	74	verb	phrase	1	12	match	jongler	5	1	y	0.73574
690.4363000000001	0.0	JONGLER	74	verb	phrase	1	13	match	jongler	5	1	y	0.73574
691.2362	0.0	+	74	verb	phrase	1	14	match	jongler	5	1	y	0.73574
691.172	0.0	[response]	74	verb	phrase	1	15	match	jongler	5	1	y	0.73574
700.8353000000001	0.0	+	75	verb	phrase	3	1	nomatch	petit	-1	1	p	0.96897
701.3853	0.2	jvnwgl	75	verb	phrase	3	2	nomatch	petit	-1	1	p	0.96897
701.5853000000001	0.0	+	75	verb	phrase	3	3	nomatch	petit	-1	1	p	0.96897
701.9852000000001	0.2	vtwj	75	verb	phrase	3	4	nomatch	petit	-1	1	p	0.96897
702.1852	0.0	+	75	verb	phrase	3	5	nomatch	petit	-1	1	p	0.96897
702.5852	0.2	peut	75	verb	phrase	3	6	nomatch	petit	-1	1	p	0.96897
702.7852	0.0	+	75	verb	phrase	3	7	nomatch	petit	-1	1	p	0.96897
703.1851	0.2	nager	75	verb	phrase	3	8	nomatch	petit	-1	1	p	0.96897
703.3851000000001	0.0	+	75	verb	phrase	3	9	nomatch	petit	-1	1	p	0.96897
703.7851	0.2	tôt	75	verb	phrase	3	10	nomatch	petit	-1	1	p	0.96897
703.9851	0.0	+	75	verb	phrase	3	11	nomatch	petit	-1	1	p	0.96897
704.385	0.0	+	75	verb	phrase	3	12	nomatch	petit	-1	1	p	0.96897
706.3848	0.0	PETIT	75	verb	phrase	3	13	nomatch	petit	-1	1	p	0.96897
707.4181	0.0	+	75	verb	phrase	3	14	nomatch	petit	-1	1	p	0.96897
707.3538000000001	0.0	[response]	75	verb	phrase	3	15	nomatch	petit	-1	1	p	0.96897
716.8006	0.0	+	76	verb	phrase	1	1	nomatch	sans	-1	0	TIMEOUT	-1.0
717.3505	0.2	vwnxqc	76	verb	phrase	1	2	nomatch	sans	-1	0	TIMEOUT	-1.0
717.5505	0.0	+	76	verb	phrase	1	3	nomatch	sans	-1	0	TIMEOUT	-1.0
717.9505	0.2	cvq	76	verb	phrase	1	4	nomatch	sans	-1	0	TIMEOUT	-1.0
718.1505000000001	0.0	+	76	verb	phrase	1	5	nomatch	sans	-1	0	TIMEOUT	-1.0
718.5504000000001	0.2	tpgs	76	verb	phrase	1	6	nomatch	sans	-1	0	TIMEOUT	-1.0
718.7504	0.0	+	76	verb	phrase	1	7	nomatch	sans	-1	0	TIMEOUT	-1.0
719.1504	0.2	fxtjzkv	76	verb	phrase	1	8	nomatch	sans	-1	0	TIMEOUT	-1.0
719.3503000000001	0.0	+	76	verb	phrase	1	9	nomatch	sans	-1	0	TIMEOUT	-1.0
719.7503	0.2	beaucoup	76	verb	phrase	1	10	nomatch	sans	-1	0	TIMEOUT	-1.0
719.9503000000001	0.0	+	76	verb	phrase	1	11	nomatch	sans	-1	0	TIMEOUT	-1.0
720.3503000000001	0.0	+	76	verb	phrase	1	12	nomatch	sans	-1	0	TIMEOUT	-1.0
722.3501	0.0	SANS	76	verb	phrase	1	13	nomatch	sans	-1	0	TIMEOUT	-1.0
724.7498	0.0	+	77	verb	phrase	4	1	match	plonger	4	1	y	0.9540300000000002
725.3498000000001	0.2	ngftm	77	verb	phrase	4	2	match	plonger	4	1	y	0.9540300000000002
725.5498	0.0	+	77	verb	phrase	4	3	match	plonger	4	1	y	0.9540300000000002
725.9497	0.2	marc	77	verb	phrase	4	4	match	plonger	4	1	y	0.9540300000000002
726.1497	0.0	+	77	verb	phrase	4	5	match	plonger	4	1	y	0.9540300000000002
726.5497	0.2	peut	77	verb	phrase	4	6	match	plonger	4	1	y	0.9540300000000002
726.7497000000001	0.0	+	77	verb	phrase	4	7	match	plonger	4	1	y	0.9540300000000002
727.1496000000001	0.2	plonger	77	verb	phrase	4	8	match	plonger	4	1	y	0.9540300000000002
727.3496	0.0	+	77	verb	phrase	4	9	match	plonger	4	1	y	0.9540300000000002
727.7496	0.2	vite	77	verb	phrase	4	10	match	plonger	4	1	y	0.9540300000000002
727.9496	0.0	+	77	verb	phrase	4	11	match	plonger	4	1	y	0.9540300000000002
728.3495	0.0	+	77	verb	phrase	4	12	match	plonger	4	1	y	0.9540300000000002
730.3493000000001	0.0	PLONGER	77	verb	phrase	4	13	match	plonger	4	1	y	0.9540300000000002
731.3659	0.0	+	77	verb	phrase	4	14	match	plonger	4	1	y	0.9540300000000002
731.3034	0.0	[response]	77	verb	phrase	4	15	match	plonger	4	1	y	0.9540300000000002
740.7484000000001	0.0	+	78	verb	list	2	1	nomatch	vers	-1	0	y	1.1891000000000003
741.2984	0.2	gtfn	78	verb	list	2	2	nomatch	vers	-1	0	y	1.1891000000000003
741.4983000000001	0.0	+	78	verb	list	2	3	nomatch	vers	-1	0	y	1.1891000000000003
741.8983000000001	0.2	kszh	78	verb	list	2	4	nomatch	vers	-1	0	y	1.1891000000000003
742.0983	0.0	+	78	verb	list	2	5	nomatch	vers	-1	0	y	1.1891000000000003
742.4983000000001	0.2	tpgs	78	verb	list	2	6	nomatch	vers	-1	0	y	1.1891000000000003
742.6982	0.0	+	78	verb	list	2	7	nomatch	vers	-1	0	y	1.1891000000000003
743.0982	0.2	grand	78	verb	list	2	8	nomatch	vers	-1	0	y	1.1891000000000003
743.2982000000001	0.0	+	78	verb	list	2	9	nomatch	vers	-1	0	y	1.1891000000000003
743.6981000000001	0.2	voyager	78	verb	list	2	10	nomatch	vers	-1	0	y	1.1891000000000003
743.8981	0.0	+	78	verb	list	2	11	nomatch	vers	-1	0	y	1.1891000000000003
744.2981	0.0	+	78	verb	list	2	12	nomatch	vers	-1	0	y	1.1891000000000003
746.2979	0.0	VERS	78	verb	list	2	13	nomatch	vers	-1	0	y	1.1891000000000003
747.5478	0.0	+	78	verb	list	2	14	nomatch	vers	-1	0	y	1.1891000000000003
747.4870000000001	0.0	[response]	78	verb	list	2	15	nomatch	vers	-1	0	y	1.1891000000000003
748.6977	0.0	+	79	verb	phrase	1	1	nomatch	vite	-1	0	TIMEOUT	-1.0
749.2476	0.2	fpjwvzl	79	verb	phrase	1	2	nomatch	vite	-1	0	TIMEOUT	-1.0
749.4476000000001	0.0	+	79	verb	phrase	1	3	nomatch	vite	-1	0	TIMEOUT	-1.0
749.8476	0.2	cvq	79	verb	phrase	1	4	nomatch	vite	-1	0	TIMEOUT	-1.0
750.0476	0.0	+	79	verb	phrase	1	5	nomatch	vite	-1	0	TIMEOUT	-1.0
750.4475	0.2	cn	79	verb	phrase	1	6	nomatch	vite	-1	0	TIMEOUT	-1.0
750.6475	0.0	+	79	verb	phrase	1	7	nomatch	vite	-1	0	TIMEOUT	-1.0
751.0475	0.2	mdbkqwz	79	verb	phrase	1	8	nomatch	vite	-1	0	TIMEOUT	-1.0
751.2475000000001	0.0	+	79	verb	phrase	1	9	nomatch	vite	-1	0	TIMEOUT	-1.0
751.6474000000001	0.2	tôt	79	verb	phrase	1	10	nomatch	vite	-1	0	TIMEOUT	-1.0
751.8474	0.0	+	79	verb	phrase	1	11	nomatch	vite	-1	0	TIMEOUT	-1.0
752.2474000000001	0.0	+	79	verb	phrase	1	12	nomatch	vite	-1	0	TIMEOUT	-1.0
754.2472	0.0	VITE	79	verb	phrase	1	13	nomatch	vite	-1	0	TIMEOUT	-1.0
756.647	0.0	+	80	noun	list	1	1	nomatch	clavier	-1	1	p	0.6363
757.2469	0.2	wsnkd	80	noun	list	1	2	nomatch	clavier	-1	1	p	0.6363
757.4469	0.0	+	80	noun	list	1	3	nomatch	clavier	-1	1	p	0.6363
757.8469	0.2	dmgj	80	noun	list	1	4	nomatch	clavier	-1	1	p	0.6363
758.0468000000001	0.0	+	80	noun	list	1	5	nomatch	clavier	-1	1	p	0.6363
758.4468	0.2	rbh	80	noun	list	1	6	nomatch	clavier	-1	1	p	0.6363
758.6468	0.0	+	80	noun	list	1	7	nomatch	clavier	-1	1	p	0.6363
759.0468000000001	0.2	mgqrh	80	noun	list	1	8	nomatch	clavier	-1	1	p	0.6363
759.2467	0.0	+	80	noun	list	1	9	nomatch	clavier	-1	1	p	0.6363
759.6467	0.2	grenier	80	noun	list	1	10	nomatch	clavier	-1	1	p	0.6363
759.8467	0.0	+	80	noun	list	1	11	nomatch	clavier	-1	1	p	0.6363
760.2466000000001	0.0	+	80	noun	list	1	12	nomatch	clavier	-1	1	p	0.6363
762.2465000000001	0.0	CLAVIER	80	noun	list	1	13	nomatch	clavier	-1	1	p	0.6363
762.9464	0.0	+	80	noun	list	1	14	nomatch	clavier	-1	1	p	0.6363
764.6462	0.0	+	80	noun	list	1	15	nomatch	clavier	-1	1	p	0.6363
764.9962	0.0	+	80	noun	list	1	16	nomatch	clavier	-1	1	p	0.6363
765.0962000000001	0.0	+	80	noun	list	1	17	nomatch	clavier	-1	1	p	0.6363
766.5127	0.0	+	80	noun	list	1	18	nomatch	clavier	-1	1	p	0.6363
766.6127	0.0	+	80	noun	list	1	19	nomatch	clavier	-1	1	p	0.6363
768.0126	0.0	+	80	noun	list	1	20	nomatch	clavier	-1	1	p	0.6363
768.1126	0.0	+	80	noun	list	1	21	nomatch	clavier	-1	1	p	0.6363
769.4958	0.0	+	80	noun	list	1	22	nomatch	clavier	-1	1	p	0.6363
769.5958	0.0	+	80	noun	list	1	23	nomatch	clavier	-1	1	p	0.6363
771.0123	0.0	+	80	noun	list	1	24	nomatch	clavier	-1	1	p	0.6363
771.1123	0.0	+	80	noun	list	1	25	nomatch	clavier	-1	1	p	0.6363
772.4955	0.0	+	80	noun	list	1	26	nomatch	clavier	-1	1	p	0.6363
772.5955	0.0	+	80	noun	list	1	27	nomatch	clavier	-1	1	p	0.6363
774.0121	0.0	+	80	noun	list	1	28	nomatch	clavier	-1	1	p	0.6363
774.1121	0.0	+	80	noun	list	1	29	nomatch	clavier	-1	1	p	0.6363
775.4953	0.0	+	80	noun	list	1	30	nomatch	clavier	-1	1	p	0.6363
775.5953000000001	0.0	+	80	noun	list	1	31	nomatch	clavier	-1	1	p	0.6363
777.0118	0.0	+	80	noun	list	1	32	nomatch	clavier	-1	1	p	0.6363
777.1118	0.0	+	80	noun	list	1	33	nomatch	clavier	-1	1	p	0.6363
778.495	0.0	+	80	noun	list	1	34	nomatch	clavier	-1	1	p	0.6363
778.595	0.0	+	80	noun	list	1	35	nomatch	clavier	-1	1	p	0.6363
783.7112000000001	0.0	+	80	noun	list	1	36	nomatch	clavier	-1	1	p	0.6363
762.8828000000001	0.0	[response]	80	noun	list	1	37	nomatch	clavier	-1	1	p	0.6363
