onset	duration	stim	trial_number	trial_type	trial_structure	trial_length	sequential_position	probe_type	probe	probe_position	response_correct	response_key	response_time
0.0543000000000049	0.0	+	1	noun	phrase	1	1	match	sablier	5	1	y	0.72467
0.5375000000000014	0.2	lrzhw	1	noun	phrase	1	2	match	sablier	5	1	y	0.72467
0.7374000000000009	0.0	+	1	noun	phrase	1	3	match	sablier	5	1	y	0.72467
1.1372	0.2	pkq	1	noun	phrase	1	4	match	sablier	5	1	y	0.72467
1.3371000000000066	0.0	+	1	noun	phrase	1	5	match	sablier	5	1	y	0.72467
1.7369000000000057	0.2	fpmt	1	noun	phrase	1	6	match	sablier	5	1	y	0.72467
1.9368000000000052	0.0	+	1	noun	phrase	1	7	match	sablier	5	1	y	0.72467
2.3367000000000004	0.2	fgrn	1	noun	phrase	1	8	match	sablier	5	1	y	0.72467
2.5366	0.0	+	1	noun	phrase	1	9	match	sablier	5	1	y	0.72467
2.936400000000006	0.2	sablier	1	noun	phrase	1	10	match	sablier	5	1	y	0.72467
3.1363000000000056	0.0	+	1	noun	phrase	1	11	match	sablier	5	1	y	0.72467
3.5361000000000047	0.0	+	1	noun	phrase	1	12	match	sablier	5	1	y	0.72467
5.535200000000003	0.0	SABLIER	1	noun	phrase	1	13	match	sablier	5	1	y	0.72467
6.3182000000000045	0.0	+	1	noun	phrase	1	14	match	sablier	5	1	y	0.72467
6.259900000000009	0.0	[response]	1	noun	phrase	1	15	match	sablier	5	1	y	0.72467
7.934200000000004	0.0	+	2	verb	phrase	1	1	match	mieux	5	1	y	0.57296
8.483899999999998	0.2	lqcrmzv	2	verb	phrase	1	2	match	mieux	5	1	y	0.57296
8.683799999999998	0.0	+	2	verb	phrase	1	3	match	mieux	5	1	y	0.57296
9.083599999999997	0.2	hfk	2	verb	phrase	1	4	match	mieux	5	1	y	0.57296
9.2836	0.0	+	2	verb	phrase	1	5	match	mieux	5	1	y	0.57296
9.70000000000001	0.2	lj	2	verb	phrase	1	6	match	mieux	5	1	y	0.57296
9.89990000000001	0.0	+	2	verb	phrase	1	7	match	mieux	5	1	y	0.57296
10.299799999999998	0.2	cdzvknh	2	verb	phrase	1	8	match	mieux	5	1	y	0.57296
10.499699999999997	0.0	+	2	verb	phrase	1	9	match	mieux	5	1	y	0.57296
10.89950000000001	0.2	mieux	2	verb	phrase	1	10	match	mieux	5	1	y	0.57296
11.09940000000001	0.0	+	2	verb	phrase	1	11	match	mieux	5	1	y	0.57296
11.499200000000009	0.0	+	2	verb	phrase	1	12	match	mieux	5	1	y	0.57296
13.498300000000008	0.0	MIEUX	2	verb	phrase	1	13	match	mieux	5	1	y	0.57296
14.131400000000006	0.0	+	2	verb	phrase	1	14	match	mieux	5	1	y	0.57296
14.0713	0.0	[response]	2	verb	phrase	1	15	match	mieux	5	1	y	0.57296
23.893700000000003	0.0	+	3	noun	list	2	1	nomatch	sous	-1	1	p	0.80522
24.443500000000007	0.2	ltn	3	noun	list	2	2	nomatch	sous	-1	1	p	0.80522
24.643400000000007	0.0	+	3	noun	list	2	3	nomatch	sous	-1	1	p	0.80522
25.043200000000006	0.2	qhft	3	noun	list	2	4	nomatch	sous	-1	1	p	0.80522
25.243100000000005	0.0	+	3	noun	list	2	5	nomatch	sous	-1	1	p	0.80522
25.642900000000004	0.2	fpmt	3	noun	list	2	6	nomatch	sous	-1	1	p	0.80522
25.842800000000004	0.0	+	3	noun	list	2	7	nomatch	sous	-1	1	p	0.80522
26.242600000000003	0.2	trop	3	noun	list	2	8	nomatch	sous	-1	1	p	0.80522
26.442600000000006	0.0	+	3	noun	list	2	9	nomatch	sous	-1	1	p	0.80522
26.842400000000005	0.2	casier	3	noun	list	2	10	nomatch	sous	-1	1	p	0.80522
27.042300000000004	0.0	+	3	noun	list	2	11	nomatch	sous	-1	1	p	0.80522
27.442100000000003	0.0	+	3	noun	list	2	12	nomatch	sous	-1	1	p	0.80522
29.441200000000002	0.0	SOUS	3	noun	list	2	13	nomatch	sous	-1	1	p	0.80522
30.307499999999997	0.0	+	3	noun	list	2	14	nomatch	sous	-1	1	p	0.80522
30.2464	0.0	[response]	3	noun	list	2	15	nomatch	sous	-1	1	p	0.80522
31.840200000000003	0.0	+	4	verb	list	1	1	match	nager	5	1	y	0.92467
32.389900000000004	0.2	jqzvfb	4	verb	list	1	2	match	nager	5	1	y	0.92467
32.589800000000004	0.0	+	4	verb	list	1	3	match	nager	5	1	y	0.92467
32.9896	0.2	lgnz	4	verb	list	1	4	match	nager	5	1	y	0.92467
33.1895	0.0	+	4	verb	list	1	5	match	nager	5	1	y	0.92467
33.589400000000005	0.2	zxd	4	verb	list	1	6	match	nager	5	1	y	0.92467
33.789300000000004	0.0	+	4	verb	list	1	7	match	nager	5	1	y	0.92467
34.1891	0.2	fgrn	4	verb	list	1	8	match	nager	5	1	y	0.92467
34.389	0.0	+	4	verb	list	1	9	match	nager	5	1	y	0.92467
34.7888	0.2	nager	4	verb	list	1	10	match	nager	5	1	y	0.92467
34.988800000000005	0.0	+	4	verb	list	1	11	match	nager	5	1	y	0.92467
35.388600000000004	0.0	+	4	verb	list	1	12	match	nager	5	1	y	0.92467
37.3877	0.0	NAGER	4	verb	list	1	13	match	nager	5	1	y	0.92467
38.3706	0.0	+	4	verb	list	1	14	match	nager	5	1	y	0.92467
38.312300000000015	0.0	[response]	4	verb	list	1	15	match	nager	5	1	y	0.92467
39.7866	0.0	+	5	noun	list	4	1	nomatch	noir	-1	1	p	1.1961
40.336400000000005	0.2	xcbh	5	noun	list	4	2	nomatch	noir	-1	1	p	1.1961
40.536300000000004	0.0	+	5	noun	list	4	3	nomatch	noir	-1	1	p	1.1961
40.9361	0.2	marc	5	noun	list	4	4	nomatch	noir	-1	1	p	1.1961
41.136	0.0	+	5	noun	list	4	5	nomatch	noir	-1	1	p	1.1961
41.5358	0.2	son	5	noun	list	4	6	nomatch	noir	-1	1	p	1.1961
41.7357	0.0	+	5	noun	list	4	7	nomatch	noir	-1	1	p	1.1961
42.135600000000004	0.2	moins	5	noun	list	4	8	nomatch	noir	-1	1	p	1.1961
42.3355	0.0	+	5	noun	list	4	9	nomatch	noir	-1	1	p	1.1961
42.7353	0.2	rocher	5	noun	list	4	10	nomatch	noir	-1	1	p	1.1961
42.9352	0.0	+	5	noun	list	4	11	nomatch	noir	-1	1	p	1.1961
43.335	0.0	+	5	noun	list	4	12	nomatch	noir	-1	1	p	1.1961
45.3341	0.0	NOIR	5	noun	list	4	13	nomatch	noir	-1	1	p	1.1961
46.5836	0.0	+	5	noun	list	4	14	nomatch	noir	-1	1	p	1.1961
46.530300000000004	0.0	[response]	5	noun	list	4	15	nomatch	noir	-1	1	p	1.1961
47.7497	0.0	+	6	verb	list	1	1	match	voyager	5	1	y	0.69698
48.2995	0.2	kswvbh	6	verb	list	1	2	match	voyager	5	1	y	0.69698
48.4994	0.0	+	6	verb	list	1	3	match	voyager	5	1	y	0.69698
48.8992	0.2	qhft	6	verb	list	1	4	match	voyager	5	1	y	0.69698
49.0991	0.0	+	6	verb	list	1	5	match	voyager	5	1	y	0.69698
49.4989	0.2	kmc	6	verb	list	1	6	match	voyager	5	1	y	0.69698
49.6988	0.0	+	6	verb	list	1	7	match	voyager	5	1	y	0.69698
50.0987	0.2	fgrn	6	verb	list	1	8	match	voyager	5	1	y	0.69698
50.2986	0.0	+	6	verb	list	1	9	match	voyager	5	1	y	0.69698
50.6984	0.2	voyager	6	verb	list	1	10	match	voyager	5	1	y	0.69698
50.8983	0.0	+	6	verb	list	1	11	match	voyager	5	1	y	0.69698
51.2981	0.0	+	6	verb	list	1	12	match	voyager	5	1	y	0.69698
53.2972	0.0	VOYAGER	6	verb	list	1	13	match	voyager	5	1	y	0.69698
54.0469	0.0	+	6	verb	list	1	14	match	voyager	5	1	y	0.69698
53.9942	0.0	[response]	6	verb	list	1	15	match	voyager	5	1	y	0.69698
55.6962	0.0	+	7	noun	phrase	1	1	nomatch	peut	-1	1	p	0.98948
56.2459	0.2	bszd	7	noun	phrase	1	2	nomatch	peut	-1	1	p	0.98948
56.4458	0.0	+	7	noun	phrase	1	3	nomatch	peut	-1	1	p	0.98948
56.8457	0.2	rflt	7	noun	phrase	1	4	nomatch	peut	-1	1	p	0.98948
57.0456	0.0	+	7	noun	phrase	1	5	nomatch	peut	-1	1	p	0.98948
57.4454	0.2	fpmt	7	noun	phrase	1	6	nomatch	peut	-1	1	p	0.98948
57.6453	0.0	+	7	noun	phrase	1	7	nomatch	peut	-1	1	p	0.98948
58.0451	0.2	nzmklh	7	noun	phrase	1	8	nomatch	peut	-1	1	p	0.98948
58.245	0.0	+	7	noun	phrase	1	9	nomatch	peut	-1	1	p	0.98948
58.6449	0.2	rouge	7	noun	phrase	1	10	nomatch	peut	-1	1	p	0.98948
58.8448	0.0	+	7	noun	phrase	1	11	nomatch	peut	-1	1	p	0.98948
59.2446	0.0	+	7	noun	phrase	1	12	nomatch	peut	-1	1	p	0.98948
61.2437	0.0	PEUT	7	noun	phrase	1	13	nomatch	peut	-1	1	p	0.98948
62.293200000000006	0.0	+	7	noun	phrase	1	14	nomatch	peut	-1	1	p	0.98948
62.233200000000004	0.0	[response]	7	noun	phrase	1	15	nomatch	peut	-1	1	p	0.98948
63.64260000000001	0.0	+	8	verb	phrase	1	1	nomatch	petit	-1	1	p	0.7470400000000001
64.19239999999999	0.2	bksh	8	verb	phrase	1	2	nomatch	petit	-1	1	p	0.7470400000000001
64.3923	0.0	+	8	verb	phrase	1	3	nomatch	petit	-1	1	p	0.7470400000000001
64.7921	0.2	qhft	8	verb	phrase	1	4	nomatch	petit	-1	1	p	0.7470400000000001
64.99199999999999	0.0	+	8	verb	phrase	1	5	nomatch	petit	-1	1	p	0.7470400000000001
65.39179999999999	0.2	nblj	8	verb	phrase	1	6	nomatch	petit	-1	1	p	0.7470400000000001
65.5918	0.0	+	8	verb	phrase	1	7	nomatch	petit	-1	1	p	0.7470400000000001
65.9916	0.2	xhdnfgjc	8	verb	phrase	1	8	nomatch	petit	-1	1	p	0.7470400000000001
66.19149999999999	0.0	+	8	verb	phrase	1	9	nomatch	petit	-1	1	p	0.7470400000000001
66.59129999999999	0.2	rouler	8	verb	phrase	1	10	nomatch	petit	-1	1	p	0.7470400000000001
66.7912	0.0	+	8	verb	phrase	1	11	nomatch	petit	-1	1	p	0.7470400000000001
67.191	0.0	+	8	verb	phrase	1	12	nomatch	petit	-1	1	p	0.7470400000000001
69.1901	0.0	PETIT	8	verb	phrase	1	13	nomatch	petit	-1	1	p	0.7470400000000001
69.9898	0.0	+	8	verb	phrase	1	14	nomatch	petit	-1	1	p	0.7470400000000001
69.93719999999999	0.0	[response]	8	verb	phrase	1	15	nomatch	petit	-1	1	p	0.7470400000000001
71.5891	0.0	+	9	noun	list	1	1	match	casier	5	1	y	0.52728
72.1388	0.2	dsrqn	9	noun	list	1	2	match	casier	5	1	y	0.52728
72.33870000000002	0.0	+	9	noun	list	1	3	match	casier	5	1	y	0.52728
72.73860000000002	0.2	wpsh	9	noun	list	1	4	match	casier	5	1	y	0.52728
72.9385	0.0	+	9	noun	list	1	5	match	casier	5	1	y	0.52728
73.3383	0.2	lj	9	noun	list	1	6	match	casier	5	1	y	0.52728
73.53820000000002	0.0	+	9	noun	list	1	7	match	casier	5	1	y	0.52728
73.93800000000002	0.2	nzdps	9	noun	list	1	8	match	casier	5	1	y	0.52728
74.1379	0.0	+	9	noun	list	1	9	match	casier	5	1	y	0.52728
74.5378	0.2	casier	9	noun	list	1	10	match	casier	5	1	y	0.52728
74.73770000000002	0.0	+	9	noun	list	1	11	match	casier	5	1	y	0.52728
75.13750000000002	0.0	+	9	noun	list	1	12	match	casier	5	1	y	0.52728
77.13660000000002	0.0	CASIER	9	noun	list	1	13	match	casier	5	1	y	0.52728
77.71970000000002	0.0	+	9	noun	list	1	14	match	casier	5	1	y	0.52728
77.66390000000001	0.0	[response]	9	noun	list	1	15	match	casier	5	1	y	0.52728
79.53550000000001	0.0	+	10	noun	list	1	1	nomatch	son	-1	1	p	1.0283
80.08550000000002	0.2	clxnrtk	10	noun	list	1	2	nomatch	son	-1	1	p	1.0283
80.2852	0.0	+	10	noun	list	1	3	nomatch	son	-1	1	p	1.0283
80.685	0.2	gjnb	10	noun	list	1	4	nomatch	son	-1	1	p	1.0283
80.88490000000002	0.0	+	10	noun	list	1	5	nomatch	son	-1	1	p	1.0283
81.28480000000002	0.2	kmc	10	noun	list	1	6	nomatch	son	-1	1	p	1.0283
81.4847	0.0	+	10	noun	list	1	7	nomatch	son	-1	1	p	1.0283
81.8845	0.2	ljqp	10	noun	list	1	8	nomatch	son	-1	1	p	1.0283
82.08440000000002	0.0	+	10	noun	list	1	9	nomatch	son	-1	1	p	1.0283
82.48420000000002	0.2	clavier	10	noun	list	1	10	nomatch	son	-1	1	p	1.0283
82.6841	0.0	+	10	noun	list	1	11	nomatch	son	-1	1	p	1.0283
83.084	0.0	+	10	noun	list	1	12	nomatch	son	-1	1	p	1.0283
85.09970000000001	0.0	SON	10	noun	list	1	13	nomatch	son	-1	1	p	1.0283
86.18260000000001	0.0	+	10	noun	list	1	14	nomatch	son	-1	1	p	1.0283
86.12800000000001	0.0	[response]	10	noun	list	1	15	nomatch	son	-1	1	p	1.0283
87.49860000000001	0.0	+	11	noun	phrase	1	1	nomatch	peut	-1	1	p	0.89296
88.04840000000002	0.2	cjd	11	noun	phrase	1	2	nomatch	peut	-1	1	p	0.89296
88.2483	0.0	+	11	noun	phrase	1	3	nomatch	peut	-1	1	p	0.89296
88.6481	0.2	nwdx	11	noun	phrase	1	4	nomatch	peut	-1	1	p	0.89296
88.84800000000001	0.0	+	11	noun	phrase	1	5	nomatch	peut	-1	1	p	0.89296
89.24790000000002	0.2	fpmt	11	noun	phrase	1	6	nomatch	peut	-1	1	p	0.89296
89.4478	0.0	+	11	noun	phrase	1	7	nomatch	peut	-1	1	p	0.89296
89.8476	0.2	grdlthc	11	noun	phrase	1	8	nomatch	peut	-1	1	p	0.89296
90.04750000000001	0.0	+	11	noun	phrase	1	9	nomatch	peut	-1	1	p	0.89296
90.44730000000001	0.2	beau	11	noun	phrase	1	10	nomatch	peut	-1	1	p	0.89296
90.6472	0.0	+	11	noun	phrase	1	11	nomatch	peut	-1	1	p	0.89296
91.0471	0.0	+	11	noun	phrase	1	12	nomatch	peut	-1	1	p	0.89296
93.0462	0.0	PEUT	11	noun	phrase	1	13	nomatch	peut	-1	1	p	0.89296
93.9957	0.0	+	11	noun	phrase	1	14	nomatch	peut	-1	1	p	0.89296
93.9391	0.0	[response]	11	noun	phrase	1	15	nomatch	peut	-1	1	p	0.89296
95.4451	0.0	+	12	noun	list	2	1	nomatch	vite	-1	1	p	0.83084
95.9948	0.2	lzx	12	noun	list	2	2	nomatch	vite	-1	1	p	0.83084
96.19480000000001	0.0	+	12	noun	list	2	3	nomatch	vite	-1	1	p	0.83084
96.59460000000001	0.2	rflt	12	noun	list	2	4	nomatch	vite	-1	1	p	0.83084
96.7945	0.0	+	12	noun	list	2	5	nomatch	vite	-1	1	p	0.83084
97.1943	0.2	mvbw	12	noun	list	2	6	nomatch	vite	-1	1	p	0.83084
97.39420000000001	0.0	+	12	noun	list	2	7	nomatch	vite	-1	1	p	0.83084
97.79400000000001	0.2	sablier	12	noun	list	2	8	nomatch	vite	-1	1	p	0.83084
97.9939	0.0	+	12	noun	list	2	9	nomatch	vite	-1	1	p	0.83084
98.3938	0.2	tôt	12	noun	list	2	10	nomatch	vite	-1	1	p	0.83084
98.59370000000001	0.0	+	12	noun	list	2	11	nomatch	vite	-1	1	p	0.83084
98.99350000000001	0.0	+	12	noun	list	2	12	nomatch	vite	-1	1	p	0.83084
100.99260000000001	0.0	VITE	12	noun	list	2	13	nomatch	vite	-1	1	p	0.83084
101.87560000000002	0.0	+	12	noun	list	2	14	nomatch	vite	-1	1	p	0.83084
101.82340000000005	0.0	[response]	12	noun	list	2	15	nomatch	vite	-1	1	p	0.83084
103.39160000000001	0.0	+	13	verb	list	2	1	nomatch	petit	-1	1	p	0.73247
103.94130000000001	0.2	tjz	13	verb	list	2	2	nomatch	petit	-1	1	p	0.73247
104.1412	0.0	+	13	verb	list	2	3	nomatch	petit	-1	1	p	0.73247
104.541	0.2	nwdx	13	verb	list	2	4	nomatch	petit	-1	1	p	0.73247
104.74090000000001	0.0	+	13	verb	list	2	5	nomatch	petit	-1	1	p	0.73247
105.14080000000001	0.2	nblj	13	verb	list	2	6	nomatch	petit	-1	1	p	0.73247
105.3407	0.0	+	13	verb	list	2	7	nomatch	petit	-1	1	p	0.73247
105.7405	0.2	beau	13	verb	list	2	8	nomatch	petit	-1	1	p	0.73247
105.94040000000001	0.0	+	13	verb	list	2	9	nomatch	petit	-1	1	p	0.73247
106.34020000000001	0.2	plonger	13	verb	list	2	10	nomatch	petit	-1	1	p	0.73247
106.54010000000002	0.0	+	13	verb	list	2	11	nomatch	petit	-1	1	p	0.73247
106.94	0.0	+	13	verb	list	2	12	nomatch	petit	-1	1	p	0.73247
108.9391	0.0	PETIT	13	verb	list	2	13	nomatch	petit	-1	1	p	0.73247
109.73870000000002	0.0	+	13	verb	list	2	14	nomatch	petit	-1	1	p	0.73247
109.67150000000001	0.0	[response]	13	verb	list	2	15	nomatch	petit	-1	1	p	0.73247
111.33800000000002	0.0	+	14	noun	phrase	1	1	match	voilier	5	1	y	1.2672
111.8878	0.2	skhzj	14	noun	phrase	1	2	match	voilier	5	1	y	1.2672
112.08780000000002	0.0	+	14	noun	phrase	1	3	match	voilier	5	1	y	1.2672
112.48770000000002	0.2	rflt	14	noun	phrase	1	4	match	voilier	5	1	y	1.2672
112.6874	0.0	+	14	noun	phrase	1	5	match	voilier	5	1	y	1.2672
113.08720000000002	0.2	zxd	14	noun	phrase	1	6	match	voilier	5	1	y	1.2672
113.28710000000001	0.0	+	14	noun	phrase	1	7	match	voilier	5	1	y	1.2672
113.68690000000001	0.2	fgrn	14	noun	phrase	1	8	match	voilier	5	1	y	1.2672
113.8869	0.0	+	14	noun	phrase	1	9	match	voilier	5	1	y	1.2672
114.28670000000002	0.2	voilier	14	noun	phrase	1	10	match	voilier	5	1	y	1.2672
114.48660000000001	0.0	+	14	noun	phrase	1	11	match	voilier	5	1	y	1.2672
114.88640000000001	0.0	+	14	noun	phrase	1	12	match	voilier	5	1	y	1.2672
116.88550000000001	0.0	VOILIER	14	noun	phrase	1	13	match	voilier	5	1	y	1.2672
118.2183	0.0	+	14	noun	phrase	1	14	match	voilier	5	1	y	1.2672
118.15280000000001	0.0	[response]	14	noun	phrase	1	15	match	voilier	5	1	y	1.2672
119.28450000000001	0.0	+	15	noun	list	4	1	nomatch	adam	-1	1	p	0.85856
119.83420000000001	0.2	tsvwr	15	noun	list	4	2	nomatch	adam	-1	1	p	0.85856
120.03410000000002	0.0	+	15	noun	list	4	3	nomatch	adam	-1	1	p	0.85856
120.43390000000002	0.2	avec	15	noun	list	4	4	nomatch	adam	-1	1	p	0.85856
120.63380000000001	0.0	+	15	noun	list	4	5	nomatch	adam	-1	1	p	0.85856
121.03370000000001	0.2	va	15	noun	list	4	6	nomatch	adam	-1	1	p	0.85856
121.23360000000002	0.0	+	15	noun	list	4	7	nomatch	adam	-1	1	p	0.85856
121.65010000000001	0.2	tablier	15	noun	list	4	8	nomatch	adam	-1	1	p	0.85856
121.85000000000002	0.0	+	15	noun	list	4	9	nomatch	adam	-1	1	p	0.85856
122.24980000000002	0.2	vite	15	noun	list	4	10	nomatch	adam	-1	1	p	0.85856
122.4497	0.0	+	15	noun	list	4	11	nomatch	adam	-1	1	p	0.85856
122.8495	0.0	+	15	noun	list	4	12	nomatch	adam	-1	1	p	0.85856
124.8486	0.0	ADAM	15	noun	list	4	13	nomatch	adam	-1	1	p	0.85856
125.76490000000001	0.0	+	15	noun	list	4	14	nomatch	adam	-1	1	p	0.85856
125.7072	0.0	[response]	15	noun	list	4	15	nomatch	adam	-1	1	p	0.85856
135.244	0.0	+	16	noun	phrase	1	1	nomatch	vieux	-1	1	p	0.7646
135.7937	0.2	zfw	16	noun	phrase	1	2	nomatch	vieux	-1	1	p	0.7646
135.99370000000002	0.0	+	16	noun	phrase	1	3	nomatch	vieux	-1	1	p	0.7646
136.39350000000002	0.2	lnjp	16	noun	phrase	1	4	nomatch	vieux	-1	1	p	0.7646
136.5934	0.0	+	16	noun	phrase	1	5	nomatch	vieux	-1	1	p	0.7646
136.9932	0.2	kmc	16	noun	phrase	1	6	nomatch	vieux	-1	1	p	0.7646
137.19310000000002	0.0	+	16	noun	phrase	1	7	nomatch	vieux	-1	1	p	0.7646
137.59290000000001	0.2	fgntdsl	16	noun	phrase	1	8	nomatch	vieux	-1	1	p	0.7646
137.7928	0.0	+	16	noun	phrase	1	9	nomatch	vieux	-1	1	p	0.7646
138.1927	0.2	petit	16	noun	phrase	1	10	nomatch	vieux	-1	1	p	0.7646
138.39260000000002	0.0	+	16	noun	phrase	1	11	nomatch	vieux	-1	1	p	0.7646
138.79240000000001	0.0	+	16	noun	phrase	1	12	nomatch	vieux	-1	1	p	0.7646
140.7915	0.0	VIEUX	16	noun	phrase	1	13	nomatch	vieux	-1	1	p	0.7646
141.6078	0.0	+	16	noun	phrase	1	14	nomatch	vieux	-1	1	p	0.7646
141.55610000000001	0.0	[response]	16	noun	phrase	1	15	nomatch	vieux	-1	1	p	0.7646
143.1904	0.0	+	17	noun	phrase	3	1	nomatch	noir	-1	1	p	1.0297
143.74020000000002	0.2	jhgcxpv	17	noun	phrase	3	2	nomatch	noir	-1	1	p	1.0297
143.9401	0.0	+	17	noun	phrase	3	3	nomatch	noir	-1	1	p	1.0297
144.3399	0.2	rflt	17	noun	phrase	3	4	nomatch	noir	-1	1	p	1.0297
144.5398	0.0	+	17	noun	phrase	3	5	nomatch	noir	-1	1	p	1.0297
144.93970000000002	0.2	leur	17	noun	phrase	3	6	nomatch	noir	-1	1	p	1.0297
145.1396	0.0	+	17	noun	phrase	3	7	nomatch	noir	-1	1	p	1.0297
145.5394	0.2	cendrier	17	noun	phrase	3	8	nomatch	noir	-1	1	p	1.0297
145.73930000000001	0.0	+	17	noun	phrase	3	9	nomatch	noir	-1	1	p	1.0297
146.1391	0.2	rouge	17	noun	phrase	3	10	nomatch	noir	-1	1	p	1.0297
146.339	0.0	+	17	noun	phrase	3	11	nomatch	noir	-1	1	p	1.0297
146.7389	0.0	+	17	noun	phrase	3	12	nomatch	noir	-1	1	p	1.0297
148.738	0.0	NOIR	17	noun	phrase	3	13	nomatch	noir	-1	1	p	1.0297
149.82080000000002	0.0	+	17	noun	phrase	3	14	nomatch	noir	-1	1	p	1.0297
149.76770000000002	0.0	[response]	17	noun	phrase	3	15	nomatch	noir	-1	1	p	1.0297
151.1369	0.0	+	18	noun	list	1	1	nomatch	trop	-1	1	p	1.1004
151.6867	0.2	scmbq	18	noun	list	1	2	nomatch	trop	-1	1	p	1.1004
151.88660000000002	0.0	+	18	noun	list	1	3	nomatch	trop	-1	1	p	1.1004
152.28640000000001	0.2	gjnb	18	noun	list	1	4	nomatch	trop	-1	1	p	1.1004
152.4863	0.0	+	18	noun	list	1	5	nomatch	trop	-1	1	p	1.1004
152.8861	0.2	zxd	18	noun	list	1	6	nomatch	trop	-1	1	p	1.1004
153.086	0.0	+	18	noun	list	1	7	nomatch	trop	-1	1	p	1.1004
153.4858	0.2	pmvscfnj	18	noun	list	1	8	nomatch	trop	-1	1	p	1.1004
153.6858	0.0	+	18	noun	list	1	9	nomatch	trop	-1	1	p	1.1004
154.0856	0.2	beaucoup	18	noun	list	1	10	nomatch	trop	-1	1	p	1.1004
154.2855	0.0	+	18	noun	list	1	11	nomatch	trop	-1	1	p	1.1004
154.6853	0.0	+	18	noun	list	1	12	nomatch	trop	-1	1	p	1.1004
156.6844	0.0	TROP	18	noun	list	1	13	nomatch	trop	-1	1	p	1.1004
157.85060000000001	0.0	+	18	noun	list	1	14	nomatch	trop	-1	1	p	1.1004
157.78480000000002	0.0	[response]	18	noun	list	1	15	nomatch	trop	-1	1	p	1.1004
159.10000000000002	0.0	+	19	noun	phrase	3	1	match	grand	4	1	y	0.73487
159.6498	0.2	zsqlv	19	noun	phrase	3	2	match	grand	4	1	y	0.73487
159.8497	0.0	+	19	noun	phrase	3	3	match	grand	4	1	y	0.73487
160.2495	0.2	nwdx	19	noun	phrase	3	4	match	grand	4	1	y	0.73487
160.4494	0.0	+	19	noun	phrase	3	5	match	grand	4	1	y	0.73487
160.84920000000002	0.2	mon	19	noun	phrase	3	6	match	grand	4	1	y	0.73487
161.0491	0.0	+	19	noun	phrase	3	7	match	grand	4	1	y	0.73487
161.449	0.2	grand	19	noun	phrase	3	8	match	grand	4	1	y	0.73487
161.6489	0.0	+	19	noun	phrase	3	9	match	grand	4	1	y	0.73487
162.0487	0.2	clavier	19	noun	phrase	3	10	match	grand	4	1	y	0.73487
162.2486	0.0	+	19	noun	phrase	3	11	match	grand	4	1	y	0.73487
162.6484	0.0	+	19	noun	phrase	3	12	match	grand	4	1	y	0.73487
164.6476	0.0	GRAND	19	noun	phrase	3	13	match	grand	4	1	y	0.73487
165.4472	0.0	+	19	noun	phrase	3	14	match	grand	4	1	y	0.73487
165.38250000000002	0.0	[response]	19	noun	phrase	3	15	match	grand	4	1	y	0.73487
167.0465	0.0	+	20	verb	list	3	1	match	rouler	4	1	y	0.8169400000000001
167.5962	0.2	jcq	20	verb	list	3	2	match	rouler	4	1	y	0.8169400000000001
167.79610000000002	0.0	+	20	verb	list	3	3	match	rouler	4	1	y	0.8169400000000001
168.19590000000002	0.2	lgnz	20	verb	list	3	4	match	rouler	4	1	y	0.8169400000000001
168.3959	0.0	+	20	verb	list	3	5	match	rouler	4	1	y	0.8169400000000001
168.7957	0.2	leur	20	verb	list	3	6	match	rouler	4	1	y	0.8169400000000001
168.99560000000002	0.0	+	20	verb	list	3	7	match	rouler	4	1	y	0.8169400000000001
169.39540000000002	0.2	rouler	20	verb	list	3	8	match	rouler	4	1	y	0.8169400000000001
169.5953	0.0	+	20	verb	list	3	9	match	rouler	4	1	y	0.8169400000000001
169.9951	0.2	blanc	20	verb	list	3	10	match	rouler	4	1	y	0.8169400000000001
170.1951	0.0	+	20	verb	list	3	11	match	rouler	4	1	y	0.8169400000000001
170.59490000000002	0.0	+	20	verb	list	3	12	match	rouler	4	1	y	0.8169400000000001
172.5946	0.0	ROULER	20	verb	list	3	13	match	rouler	4	1	y	0.8169400000000001
173.4769	0.0	+	20	verb	list	3	14	match	rouler	4	1	y	0.8169400000000001
173.41160000000002	0.0	[response]	20	verb	list	3	15	match	rouler	4	1	y	0.8169400000000001
182.98930000000001	0.0	+	21	noun	phrase	1	1	match	casier	5	1	y	0.95911
183.53910000000002	0.2	htbxsrv	21	noun	phrase	1	2	match	casier	5	1	y	0.95911
183.739	0.0	+	21	noun	phrase	1	3	match	casier	5	1	y	0.95911
184.1388	0.2	pklg	21	noun	phrase	1	4	match	casier	5	1	y	0.95911
184.33870000000002	0.0	+	21	noun	phrase	1	5	match	casier	5	1	y	0.95911
184.73860000000002	0.2	kmc	21	noun	phrase	1	6	match	casier	5	1	y	0.95911
184.9385	0.0	+	21	noun	phrase	1	7	match	casier	5	1	y	0.95911
185.3383	0.2	dqsxmhv	21	noun	phrase	1	8	match	casier	5	1	y	0.95911
185.53820000000002	0.0	+	21	noun	phrase	1	9	match	casier	5	1	y	0.95911
185.93800000000002	0.2	casier	21	noun	phrase	1	10	match	casier	5	1	y	0.95911
186.1379	0.0	+	21	noun	phrase	1	11	match	casier	5	1	y	0.95911
186.5378	0.0	+	21	noun	phrase	1	12	match	casier	5	1	y	0.95911
188.5369	0.0	CASIER	21	noun	phrase	1	13	match	casier	5	1	y	0.95911
189.5531	0.0	+	21	noun	phrase	1	14	match	casier	5	1	y	0.95911
189.496	0.0	[response]	21	noun	phrase	1	15	match	casier	5	1	y	0.95911
190.9358	0.0	+	22	verb	phrase	4	1	match	adam	2	1	y	0.86044
191.4855	0.2	cljh	22	verb	phrase	4	2	match	adam	2	1	y	0.86044
191.68550000000002	0.0	+	22	verb	phrase	4	3	match	adam	2	1	y	0.86044
192.08550000000002	0.2	adam	22	verb	phrase	4	4	match	adam	2	1	y	0.86044
192.2852	0.0	+	22	verb	phrase	4	5	match	adam	2	1	y	0.86044
192.685	0.2	va	22	verb	phrase	4	6	match	adam	2	1	y	0.86044
192.88490000000002	0.0	+	22	verb	phrase	4	7	match	adam	2	1	y	0.86044
193.28470000000002	0.2	beaucoup	22	verb	phrase	4	8	match	adam	2	1	y	0.86044
193.4847	0.0	+	22	verb	phrase	4	9	match	adam	2	1	y	0.86044
193.8845	0.2	chasser	22	verb	phrase	4	10	match	adam	2	1	y	0.86044
194.08440000000002	0.0	+	22	verb	phrase	4	11	match	adam	2	1	y	0.86044
194.48420000000002	0.0	+	22	verb	phrase	4	12	match	adam	2	1	y	0.86044
196.5	0.0	ADAM	22	verb	phrase	4	13	match	adam	2	1	y	0.86044
197.4162	0.0	+	22	verb	phrase	4	14	match	adam	2	1	y	0.86044
197.3604	0.0	[response]	22	verb	phrase	4	15	match	adam	2	1	y	0.86044
198.8989	0.0	+	23	noun	list	1	1	nomatch	noir	-1	1	p	0.76008
199.4487	0.2	hslt	23	noun	list	1	2	nomatch	noir	-1	1	p	0.76008
199.64860000000002	0.0	+	23	noun	list	1	3	nomatch	noir	-1	1	p	0.76008
200.04840000000002	0.2	pkq	23	noun	list	1	4	nomatch	noir	-1	1	p	0.76008
200.2483	0.0	+	23	noun	list	1	5	nomatch	noir	-1	1	p	0.76008
200.6481	0.2	mvbw	23	noun	list	1	6	nomatch	noir	-1	1	p	0.76008
200.848	0.0	+	23	noun	list	1	7	nomatch	noir	-1	1	p	0.76008
201.24790000000002	0.2	nzmklh	23	noun	list	1	8	nomatch	noir	-1	1	p	0.76008
201.44780000000003	0.0	+	23	noun	list	1	9	nomatch	noir	-1	1	p	0.76008
201.8476	0.2	loin	23	noun	list	1	10	nomatch	noir	-1	1	p	0.76008
202.0475	0.0	+	23	noun	list	1	11	nomatch	noir	-1	1	p	0.76008
202.44729999999998	0.0	+	23	noun	list	1	12	nomatch	noir	-1	1	p	0.76008
204.44639999999998	0.0	NOIR	23	noun	list	1	13	nomatch	noir	-1	1	p	0.76008
205.2627	0.0	+	23	noun	list	1	14	nomatch	noir	-1	1	p	0.76008
205.2065	0.0	[response]	23	noun	list	1	15	nomatch	noir	-1	1	p	0.76008
206.84539999999998	0.0	+	24	noun	phrase	4	1	match	rocher	5	1	y	0.71882
207.3951	0.2	dxnvhp	24	noun	phrase	4	2	match	rocher	5	1	y	0.71882
207.59500000000003	0.0	+	24	noun	phrase	4	3	match	rocher	5	1	y	0.71882
207.99490000000003	0.2	sans	24	noun	phrase	4	4	match	rocher	5	1	y	0.71882
208.1948	0.0	+	24	noun	phrase	4	5	match	rocher	5	1	y	0.71882
208.5946	0.2	mon	24	noun	phrase	4	6	match	rocher	5	1	y	0.71882
208.79450000000003	0.0	+	24	noun	phrase	4	7	match	rocher	5	1	y	0.71882
209.1943	0.2	vieux	24	noun	phrase	4	8	match	rocher	5	1	y	0.71882
209.3942	0.0	+	24	noun	phrase	4	9	match	rocher	5	1	y	0.71882
209.79399999999998	0.2	rocher	24	noun	phrase	4	10	match	rocher	5	1	y	0.71882
209.99400000000003	0.0	+	24	noun	phrase	4	11	match	rocher	5	1	y	0.71882
210.3938	0.0	+	24	noun	phrase	4	12	match	rocher	5	1	y	0.71882
212.3929	0.0	ROCHER	24	noun	phrase	4	13	match	rocher	5	1	y	0.71882
213.1759	0.0	+	24	noun	phrase	4	14	match	rocher	5	1	y	0.71882
213.11169999999998	0.0	[response]	24	noun	phrase	4	15	match	rocher	5	1	y	0.71882
214.79180000000002	0.0	+	25	verb	phrase	4	1	match	plus	4	1	y	0.70733
215.34160000000003	0.2	zmsnp	25	verb	phrase	4	2	match	plus	4	1	y	0.70733
215.54149999999998	0.0	+	25	verb	phrase	4	3	match	plus	4	1	y	0.70733
215.9413	0.2	jean	25	verb	phrase	4	4	match	plus	4	1	y	0.70733
216.14120000000003	0.0	+	25	verb	phrase	4	5	match	plus	4	1	y	0.70733
216.541	0.2	doit	25	verb	phrase	4	6	match	plus	4	1	y	0.70733
216.74099999999999	0.0	+	25	verb	phrase	4	7	match	plus	4	1	y	0.70733
217.1408	0.2	plus	25	verb	phrase	4	8	match	plus	4	1	y	0.70733
217.34070000000003	0.0	+	25	verb	phrase	4	9	match	plus	4	1	y	0.70733
217.7405	0.2	plonger	25	verb	phrase	4	10	match	plus	4	1	y	0.70733
217.9404	0.0	+	25	verb	phrase	4	11	match	plus	4	1	y	0.70733
218.34020000000004	0.0	+	25	verb	phrase	4	12	match	plus	4	1	y	0.70733
220.33930000000004	0.0	PLUS	25	verb	phrase	4	13	match	plus	4	1	y	0.70733
221.1057	0.0	+	25	verb	phrase	4	14	match	plus	4	1	y	0.70733
221.0467	0.0	[response]	25	verb	phrase	4	15	match	plus	4	1	y	0.70733
222.73830000000004	0.0	+	26	noun	phrase	2	1	nomatch	peut	-1	1	p	1.0894
223.288	0.2	fkc	26	noun	phrase	2	2	nomatch	peut	-1	1	p	1.0894
223.48810000000003	0.0	+	26	noun	phrase	2	3	nomatch	peut	-1	1	p	1.0894
223.88780000000003	0.2	pklg	26	noun	phrase	2	4	nomatch	peut	-1	1	p	1.0894
224.08769999999998	0.0	+	26	noun	phrase	2	5	nomatch	peut	-1	1	p	1.0894
224.4875	0.2	zxd	26	noun	phrase	2	6	nomatch	peut	-1	1	p	1.0894
224.688	0.0	+	26	noun	phrase	2	7	nomatch	peut	-1	1	p	1.0894
225.0879	0.2	clavier	26	noun	phrase	2	8	nomatch	peut	-1	1	p	1.0894
225.2871	0.0	+	26	noun	phrase	2	9	nomatch	peut	-1	1	p	1.0894
225.687	0.2	blanc	26	noun	phrase	2	10	nomatch	peut	-1	1	p	1.0894
225.88690000000003	0.0	+	26	noun	phrase	2	11	nomatch	peut	-1	1	p	1.0894
226.2867	0.0	+	26	noun	phrase	2	12	nomatch	peut	-1	1	p	1.0894
228.2858	0.0	PEUT	26	noun	phrase	2	13	nomatch	peut	-1	1	p	1.0894
229.43529999999998	0.0	+	26	noun	phrase	2	14	nomatch	peut	-1	1	p	1.0894
229.3752	0.0	[response]	26	noun	phrase	2	15	nomatch	peut	-1	1	p	1.0894
230.68470000000002	0.0	+	27	noun	phrase	3	1	match	cendrier	5	1	y	0.80731
231.23450000000003	0.2	rkq	27	noun	phrase	3	2	match	cendrier	5	1	y	0.80731
231.43439999999998	0.0	+	27	noun	phrase	3	3	match	cendrier	5	1	y	0.80731
231.8342	0.2	fgvt	27	noun	phrase	3	4	match	cendrier	5	1	y	0.80731
232.03410000000002	0.0	+	27	noun	phrase	3	5	match	cendrier	5	1	y	0.80731
232.43400000000003	0.2	son	27	noun	phrase	3	6	match	cendrier	5	1	y	0.80731
232.63389999999998	0.0	+	27	noun	phrase	3	7	match	cendrier	5	1	y	0.80731
233.0337	0.2	petit	27	noun	phrase	3	8	match	cendrier	5	1	y	0.80731
233.23360000000002	0.0	+	27	noun	phrase	3	9	match	cendrier	5	1	y	0.80731
233.6501	0.2	cendrier	27	noun	phrase	3	10	match	cendrier	5	1	y	0.80731
233.85000000000002	0.0	+	27	noun	phrase	3	11	match	cendrier	5	1	y	0.80731
234.2498	0.0	+	27	noun	phrase	3	12	match	cendrier	5	1	y	0.80731
236.2489	0.0	CENDRIER	27	noun	phrase	3	13	match	cendrier	5	1	y	0.80731
237.11520000000002	0.0	+	27	noun	phrase	3	14	match	cendrier	5	1	y	0.80731
237.0562	0.0	[response]	27	noun	phrase	3	15	match	cendrier	5	1	y	0.80731
238.64780000000002	0.0	+	28	noun	list	1	1	match	vite	5	1	y	0.67882
239.19760000000002	0.2	mfvhrpj	28	noun	list	1	2	match	vite	5	1	y	0.67882
239.39750000000004	0.0	+	28	noun	list	1	3	match	vite	5	1	y	0.67882
239.7973	0.2	rflt	28	noun	list	1	4	match	vite	5	1	y	0.67882
239.99720000000002	0.0	+	28	noun	list	1	5	match	vite	5	1	y	0.67882
240.397	0.2	mvbw	28	noun	list	1	6	match	vite	5	1	y	0.67882
240.59700000000004	0.0	+	28	noun	list	1	7	match	vite	5	1	y	0.67882
240.9968	0.2	pmvscfnj	28	noun	list	1	8	match	vite	5	1	y	0.67882
241.19670000000002	0.0	+	28	noun	list	1	9	match	vite	5	1	y	0.67882
241.5965	0.2	vite	28	noun	list	1	10	match	vite	5	1	y	0.67882
241.7964	0.0	+	28	noun	list	1	11	match	vite	5	1	y	0.67882
242.19620000000003	0.0	+	28	noun	list	1	12	match	vite	5	1	y	0.67882
244.1954	0.0	VITE	28	noun	list	1	13	match	vite	5	1	y	0.67882
244.9284	0.0	+	28	noun	list	1	14	match	vite	5	1	y	0.67882
244.87420000000003	0.0	[response]	28	noun	list	1	15	match	vite	5	1	y	0.67882
254.59070000000003	0.0	+	29	noun	phrase	2	1	match	vieux	4	1	y	0.94373
255.14050000000003	0.2	zdhw	29	noun	phrase	2	2	match	vieux	4	1	y	0.94373
255.3404	0.0	+	29	noun	phrase	2	3	match	vieux	4	1	y	0.94373
255.74020000000002	0.2	nwdx	29	noun	phrase	2	4	match	vieux	4	1	y	0.94373
255.94010000000003	0.0	+	29	noun	phrase	2	5	match	vieux	4	1	y	0.94373
256.3399	0.2	kmc	29	noun	phrase	2	6	match	vieux	4	1	y	0.94373
256.5399	0.0	+	29	noun	phrase	2	7	match	vieux	4	1	y	0.94373
256.9397	0.2	vieux	29	noun	phrase	2	8	match	vieux	4	1	y	0.94373
257.13960000000003	0.0	+	29	noun	phrase	2	9	match	vieux	4	1	y	0.94373
257.5394	0.2	clavier	29	noun	phrase	2	10	match	vieux	4	1	y	0.94373
257.7393	0.0	+	29	noun	phrase	2	11	match	vieux	4	1	y	0.94373
258.1391	0.0	+	29	noun	phrase	2	12	match	vieux	4	1	y	0.94373
260.1382	0.0	VIEUX	29	noun	phrase	2	13	match	vieux	4	1	y	0.94373
261.1378	0.0	+	29	noun	phrase	2	14	match	vieux	4	1	y	0.94373
261.082	0.0	[response]	29	noun	phrase	2	15	match	vieux	4	1	y	0.94373
262.5372	0.0	+	30	verb	phrase	2	1	match	parader	5	1	y	0.94917
263.0869	0.2	mjvgnr	30	verb	phrase	2	2	match	parader	5	1	y	0.94917
263.2868	0.0	+	30	verb	phrase	2	3	match	parader	5	1	y	0.94917
263.68670000000003	0.2	qhft	30	verb	phrase	2	4	match	parader	5	1	y	0.94917
263.8866	0.0	+	30	verb	phrase	2	5	match	parader	5	1	y	0.94917
264.2864	0.2	lj	30	verb	phrase	2	6	match	parader	5	1	y	0.94917
264.4863	0.0	+	30	verb	phrase	2	7	match	parader	5	1	y	0.94917
264.8861	0.2	beaucoup	30	verb	phrase	2	8	match	parader	5	1	y	0.94917
265.086	0.0	+	30	verb	phrase	2	9	match	parader	5	1	y	0.94917
265.4858	0.2	parader	30	verb	phrase	2	10	match	parader	5	1	y	0.94917
265.68580000000003	0.0	+	30	verb	phrase	2	11	match	parader	5	1	y	0.94917
266.0856	0.0	+	30	verb	phrase	2	12	match	parader	5	1	y	0.94917
268.0847	0.0	PARADER	30	verb	phrase	2	13	match	parader	5	1	y	0.94917
269.1009	0.0	+	30	verb	phrase	2	14	match	parader	5	1	y	0.94917
269.0339	0.0	[response]	30	verb	phrase	2	15	match	parader	5	1	y	0.94917
270.4836	0.0	+	31	noun	phrase	4	1	nomatch	son	-1	1	p	1.3228
271.05	0.2	gkpvq	31	noun	phrase	4	2	nomatch	son	-1	1	p	1.3228
271.2499	0.0	+	31	noun	phrase	4	3	nomatch	son	-1	1	p	1.3228
271.6498	0.2	sur	31	noun	phrase	4	4	nomatch	son	-1	1	p	1.3228
271.8497	0.0	+	31	noun	phrase	4	5	nomatch	son	-1	1	p	1.3228
272.2495	0.2	leur	31	noun	phrase	4	6	nomatch	son	-1	1	p	1.3228
272.4494	0.0	+	31	noun	phrase	4	7	nomatch	son	-1	1	p	1.3228
272.8492	0.2	tablier	31	noun	phrase	4	8	nomatch	son	-1	1	p	1.3228
273.0492	0.0	+	31	noun	phrase	4	9	nomatch	son	-1	1	p	1.3228
273.449	0.2	vert	31	noun	phrase	4	10	nomatch	son	-1	1	p	1.3228
273.6489	0.0	+	31	noun	phrase	4	11	nomatch	son	-1	1	p	1.3228
274.0487	0.0	+	31	noun	phrase	4	12	nomatch	son	-1	1	p	1.3228
276.0478	0.0	SON	31	noun	phrase	4	13	nomatch	son	-1	1	p	1.3228
277.4305	0.0	+	31	noun	phrase	4	14	nomatch	son	-1	1	p	1.3228
277.3706	0.0	[response]	31	noun	phrase	4	15	nomatch	son	-1	1	p	1.3228
278.4467	0.0	+	32	noun	list	3	1	nomatch	vite	-1	1	p	1.2627000000000002
278.9965	0.2	nptcb	32	noun	list	3	2	nomatch	vite	-1	1	p	1.2627000000000002
279.1964	0.0	+	32	noun	list	3	3	nomatch	vite	-1	1	p	1.2627000000000002
279.5962	0.2	rflt	32	noun	list	3	4	nomatch	vite	-1	1	p	1.2627000000000002
279.7961	0.0	+	32	noun	list	3	5	nomatch	vite	-1	1	p	1.2627000000000002
280.196	0.2	va	32	noun	list	3	6	nomatch	vite	-1	1	p	1.2627000000000002
280.3959	0.0	+	32	noun	list	3	7	nomatch	vite	-1	1	p	1.2627000000000002
280.7957	0.2	voilier	32	noun	list	3	8	nomatch	vite	-1	1	p	1.2627000000000002
280.9956	0.0	+	32	noun	list	3	9	nomatch	vite	-1	1	p	1.2627000000000002
281.3954	0.2	loin	32	noun	list	3	10	nomatch	vite	-1	1	p	1.2627000000000002
281.5953	0.0	+	32	noun	list	3	11	nomatch	vite	-1	1	p	1.2627000000000002
281.99510000000004	0.0	+	32	noun	list	3	12	nomatch	vite	-1	1	p	1.2627000000000002
283.9943	0.0	VITE	32	noun	list	3	13	nomatch	vite	-1	1	p	1.2627000000000002
285.3104	0.0	+	32	noun	list	3	14	nomatch	vite	-1	1	p	1.2627000000000002
285.257	0.0	[response]	32	noun	list	3	15	nomatch	vite	-1	1	p	1.2627000000000002
286.39320000000004	0.0	+	33	noun	phrase	1	1	match	blanc	5	1	y	0.5658
286.9429	0.2	mzhbklv	33	noun	phrase	1	2	match	blanc	5	1	y	0.5658
287.1429	0.0	+	33	noun	phrase	1	3	match	blanc	5	1	y	0.5658
287.5427	0.2	pklg	33	noun	phrase	1	4	match	blanc	5	1	y	0.5658
287.74260000000004	0.0	+	33	noun	phrase	1	5	match	blanc	5	1	y	0.5658
288.1424	0.2	kmc	33	noun	phrase	1	6	match	blanc	5	1	y	0.5658
288.3423	0.0	+	33	noun	phrase	1	7	match	blanc	5	1	y	0.5658
288.7421	0.2	fgntdsl	33	noun	phrase	1	8	match	blanc	5	1	y	0.5658
288.942	0.0	+	33	noun	phrase	1	9	match	blanc	5	1	y	0.5658
289.3419	0.2	blanc	33	noun	phrase	1	10	match	blanc	5	1	y	0.5658
289.5418	0.0	+	33	noun	phrase	1	11	match	blanc	5	1	y	0.5658
289.9416	0.0	+	33	noun	phrase	1	12	match	blanc	5	1	y	0.5658
291.9407	0.0	BLANC	33	noun	phrase	1	13	match	blanc	5	1	y	0.5658
292.5738	0.0	+	33	noun	phrase	1	14	match	blanc	5	1	y	0.5658
292.5065	0.0	[response]	33	noun	phrase	1	15	match	blanc	5	1	y	0.5658
294.3396	0.0	+	34	noun	list	2	1	match	vite	5	1	y	0.80516
294.8894	0.2	lpsjd	34	noun	list	2	2	match	vite	5	1	y	0.80516
295.08930000000004	0.0	+	34	noun	list	2	3	match	vite	5	1	y	0.80516
295.4891	0.2	nwdx	34	noun	list	2	4	match	vite	5	1	y	0.80516
295.689	0.0	+	34	noun	list	2	5	match	vite	5	1	y	0.80516
296.0889	0.2	lj	34	noun	list	2	6	match	vite	5	1	y	0.80516
296.28880000000004	0.0	+	34	noun	list	2	7	match	vite	5	1	y	0.80516
296.6886	0.2	rocher	34	noun	list	2	8	match	vite	5	1	y	0.80516
296.8885	0.0	+	34	noun	list	2	9	match	vite	5	1	y	0.80516
297.2883	0.2	vite	34	noun	list	2	10	match	vite	5	1	y	0.80516
297.4882	0.0	+	34	noun	list	2	11	match	vite	5	1	y	0.80516
297.8881	0.0	+	34	noun	list	2	12	match	vite	5	1	y	0.80516
299.8872	0.0	VITE	34	noun	list	2	13	match	vite	5	1	y	0.80516
300.75350000000003	0.0	+	34	noun	list	2	14	match	vite	5	1	y	0.80516
300.6923	0.0	[response]	34	noun	list	2	15	match	vite	5	1	y	0.80516
310.2992	0.0	+	35	noun	list	2	1	match	sablier	5	1	y	0.6403200000000001
310.8489	0.2	svqwf	35	noun	list	2	2	match	sablier	5	1	y	0.6403200000000001
311.0489	0.0	+	35	noun	list	2	3	match	sablier	5	1	y	0.6403200000000001
311.44870000000003	0.2	npvf	35	noun	list	2	4	match	sablier	5	1	y	0.6403200000000001
311.6486	0.0	+	35	noun	list	2	5	match	sablier	5	1	y	0.6403200000000001
312.0484	0.2	kmc	35	noun	list	2	6	match	sablier	5	1	y	0.6403200000000001
312.24830000000003	0.0	+	35	noun	list	2	7	match	sablier	5	1	y	0.6403200000000001
312.6481	0.2	beaucoup	35	noun	list	2	8	match	sablier	5	1	y	0.6403200000000001
312.8481	0.0	+	35	noun	list	2	9	match	sablier	5	1	y	0.6403200000000001
313.2479	0.2	sablier	35	noun	list	2	10	match	sablier	5	1	y	0.6403200000000001
313.44780000000003	0.0	+	35	noun	list	2	11	match	sablier	5	1	y	0.6403200000000001
313.8476	0.0	+	35	noun	list	2	12	match	sablier	5	1	y	0.6403200000000001
315.8467	0.0	SABLIER	35	noun	list	2	13	match	sablier	5	1	y	0.6403200000000001
316.5464	0.0	+	35	noun	list	2	14	match	sablier	5	1	y	0.6403200000000001
316.487	0.0	[response]	35	noun	list	2	15	match	sablier	5	1	y	0.6403200000000001
318.2457	0.0	+	36	noun	phrase	3	1	nomatch	va	-1	1	p	1.2059
318.79540000000003	0.2	xngtvql	36	noun	phrase	3	2	nomatch	va	-1	1	p	1.2059
318.9953	0.0	+	36	noun	phrase	3	3	nomatch	va	-1	1	p	1.2059
319.3951	0.2	fgvt	36	noun	phrase	3	4	nomatch	va	-1	1	p	1.2059
319.595	0.0	+	36	noun	phrase	3	5	nomatch	va	-1	1	p	1.2059
319.99490000000003	0.2	leur	36	noun	phrase	3	6	nomatch	va	-1	1	p	1.2059
320.1948	0.0	+	36	noun	phrase	3	7	nomatch	va	-1	1	p	1.2059
320.5946	0.2	vieux	36	noun	phrase	3	8	nomatch	va	-1	1	p	1.2059
320.7945	0.0	+	36	noun	phrase	3	9	nomatch	va	-1	1	p	1.2059
321.1943	0.2	rocher	36	noun	phrase	3	10	nomatch	va	-1	1	p	1.2059
321.3942	0.0	+	36	noun	phrase	3	11	nomatch	va	-1	1	p	1.2059
321.7941	0.0	+	36	noun	phrase	3	12	nomatch	va	-1	1	p	1.2059
323.7932	0.0	VA	36	noun	phrase	3	13	nomatch	va	-1	1	p	1.2059
325.0593	0.0	+	36	noun	phrase	3	14	nomatch	va	-1	1	p	1.2059
324.9991	0.0	[response]	36	noun	phrase	3	15	nomatch	va	-1	1	p	1.2059
342.185	0.0	+	37	verb	phrase	1	1	match	voyager	5	1	y	0.43447
342.73470000000003	0.2	zmprdcf	37	verb	phrase	1	2	match	voyager	5	1	y	0.43447
342.9346	0.0	+	37	verb	phrase	1	3	match	voyager	5	1	y	0.43447
343.3344	0.2	npvf	37	verb	phrase	1	4	match	voyager	5	1	y	0.43447
343.5344	0.0	+	37	verb	phrase	1	5	match	voyager	5	1	y	0.43447
343.93420000000003	0.2	mvbw	37	verb	phrase	1	6	match	voyager	5	1	y	0.43447
344.1341	0.0	+	37	verb	phrase	1	7	match	voyager	5	1	y	0.43447
344.5339	0.2	sqtw	37	verb	phrase	1	8	match	voyager	5	1	y	0.43447
344.73380000000003	0.0	+	37	verb	phrase	1	9	match	voyager	5	1	y	0.43447
345.1336	0.2	voyager	37	verb	phrase	1	10	match	voyager	5	1	y	0.43447
345.3336	0.0	+	37	verb	phrase	1	11	match	voyager	5	1	y	0.43447
345.75	0.0	+	37	verb	phrase	1	12	match	voyager	5	1	y	0.43447
347.7491	0.0	VOYAGER	37	verb	phrase	1	13	match	voyager	5	1	y	0.43447
348.2489	0.0	+	37	verb	phrase	1	14	match	voyager	5	1	y	0.43447
348.1836	0.0	[response]	37	verb	phrase	1	15	match	voyager	5	1	y	0.43447
350.1481	0.0	+	38	noun	list	1	1	match	ainsi	5	1	y	0.49065
350.69780000000003	0.2	zhsp	38	noun	list	1	2	match	ainsi	5	1	y	0.49065
350.8977	0.0	+	38	noun	list	1	3	match	ainsi	5	1	y	0.49065
351.2976	0.2	nwdx	38	noun	list	1	4	match	ainsi	5	1	y	0.49065
351.4975	0.0	+	38	noun	list	1	5	match	ainsi	5	1	y	0.49065
351.89730000000003	0.2	nblj	38	noun	list	1	6	match	ainsi	5	1	y	0.49065
352.0972	0.0	+	38	noun	list	1	7	match	ainsi	5	1	y	0.49065
352.497	0.2	lzqbcdn	38	noun	list	1	8	match	ainsi	5	1	y	0.49065
352.6969	0.0	+	38	noun	list	1	9	match	ainsi	5	1	y	0.49065
353.0975	0.2	ainsi	38	noun	list	1	10	match	ainsi	5	1	y	0.49065
353.2967	0.0	+	38	noun	list	1	11	match	ainsi	5	1	y	0.49065
353.6965	0.0	+	38	noun	list	1	12	match	ainsi	5	1	y	0.49065
355.6956	0.0	AINSI	38	noun	list	1	13	match	ainsi	5	1	y	0.49065
356.2453	0.0	+	38	noun	list	1	14	match	ainsi	5	1	y	0.49065
356.1862	0.0	[response]	38	noun	list	1	15	match	ainsi	5	1	y	0.49065
358.09520000000003	0.0	+	39	verb	phrase	1	1	nomatch	parader	-1	1	p	0.81737
358.6443	0.2	npv	39	verb	phrase	1	2	nomatch	parader	-1	1	p	0.81737
358.8442	0.0	+	39	verb	phrase	1	3	nomatch	parader	-1	1	p	0.81737
359.244	0.2	htzd	39	verb	phrase	1	4	nomatch	parader	-1	1	p	0.81737
359.4439	0.0	+	39	verb	phrase	1	5	nomatch	parader	-1	1	p	0.81737
359.8437	0.2	lj	39	verb	phrase	1	6	nomatch	parader	-1	1	p	0.81737
360.0437	0.0	+	39	verb	phrase	1	7	nomatch	parader	-1	1	p	0.81737
360.44350000000003	0.2	znptx	39	verb	phrase	1	8	nomatch	parader	-1	1	p	0.81737
360.6434	0.0	+	39	verb	phrase	1	9	nomatch	parader	-1	1	p	0.81737
361.0432	0.2	jongler	39	verb	phrase	1	10	nomatch	parader	-1	1	p	0.81737
361.2431	0.0	+	39	verb	phrase	1	11	nomatch	parader	-1	1	p	0.81737
361.6429	0.0	+	39	verb	phrase	1	12	nomatch	parader	-1	1	p	0.81737
363.642	0.0	PARADER	39	verb	phrase	1	13	nomatch	parader	-1	1	p	0.81737
364.52500000000003	0.0	+	39	verb	phrase	1	14	nomatch	parader	-1	1	p	0.81737
364.4594	0.0	[response]	39	verb	phrase	1	15	nomatch	parader	-1	1	p	0.81737
366.041	0.0	+	40	noun	list	3	1	nomatch	peut	-1	1	p	0.98211
366.5907	0.2	kmz	40	noun	list	3	2	nomatch	peut	-1	1	p	0.98211
366.7906	0.0	+	40	noun	list	3	3	nomatch	peut	-1	1	p	0.98211
367.1905	0.2	wpsh	40	noun	list	3	4	nomatch	peut	-1	1	p	0.98211
367.3904	0.0	+	40	noun	list	3	5	nomatch	peut	-1	1	p	0.98211
367.7902	0.2	doit	40	noun	list	3	6	nomatch	peut	-1	1	p	0.98211
367.9901	0.0	+	40	noun	list	3	7	nomatch	peut	-1	1	p	0.98211
368.3899	0.2	rocher	40	noun	list	3	8	nomatch	peut	-1	1	p	0.98211
368.5898	0.0	+	40	noun	list	3	9	nomatch	peut	-1	1	p	0.98211
368.9898	0.2	vite	40	noun	list	3	10	nomatch	peut	-1	1	p	0.98211
369.1896	0.0	+	40	noun	list	3	11	nomatch	peut	-1	1	p	0.98211
369.5894	0.0	+	40	noun	list	3	12	nomatch	peut	-1	1	p	0.98211
371.5885	0.0	PEUT	40	noun	list	3	13	nomatch	peut	-1	1	p	0.98211
372.63800000000003	0.0	+	40	noun	list	3	14	nomatch	peut	-1	1	p	0.98211
372.5706	0.0	[response]	40	noun	list	3	15	nomatch	peut	-1	1	p	0.98211
373.98740000000004	0.0	+	41	noun	list	4	1	match	beaucoup	4	1	y	0.59882
374.5372	0.2	fvp	41	noun	list	4	2	match	beaucoup	4	1	y	0.59882
374.7371	0.0	+	41	noun	list	4	3	match	beaucoup	4	1	y	0.59882
375.1369	0.2	paul	41	noun	list	4	4	match	beaucoup	4	1	y	0.59882
375.3368	0.0	+	41	noun	list	4	5	match	beaucoup	4	1	y	0.59882
375.7366	0.2	leur	41	noun	list	4	6	match	beaucoup	4	1	y	0.59882
375.9366	0.0	+	41	noun	list	4	7	match	beaucoup	4	1	y	0.59882
376.3364	0.2	beaucoup	41	noun	list	4	8	match	beaucoup	4	1	y	0.59882
376.5363	0.0	+	41	noun	list	4	9	match	beaucoup	4	1	y	0.59882
376.9361	0.2	sablier	41	noun	list	4	10	match	beaucoup	4	1	y	0.59882
377.136	0.0	+	41	noun	list	4	11	match	beaucoup	4	1	y	0.59882
377.5358	0.0	+	41	noun	list	4	12	match	beaucoup	4	1	y	0.59882
379.535	0.0	BEAUCOUP	41	noun	list	4	13	match	beaucoup	4	1	y	0.59882
380.2013	0.0	+	41	noun	list	4	14	match	beaucoup	4	1	y	0.59882
380.1338	0.0	[response]	41	noun	list	4	15	match	beaucoup	4	1	y	0.59882
381.9339	0.0	+	42	verb	list	2	1	nomatch	bleu	-1	1	p	0.92026
382.4837	0.2	fslhxnw	42	verb	list	2	2	nomatch	bleu	-1	1	p	0.92026
382.68350000000004	0.0	+	42	verb	list	2	3	nomatch	bleu	-1	1	p	0.92026
383.1	0.2	jhvb	42	verb	list	2	4	nomatch	bleu	-1	1	p	0.92026
383.29990000000004	0.0	+	42	verb	list	2	5	nomatch	bleu	-1	1	p	0.92026
383.69980000000004	0.2	zxd	42	verb	list	2	6	nomatch	bleu	-1	1	p	0.92026
383.8997	0.0	+	42	verb	list	2	7	nomatch	bleu	-1	1	p	0.92026
384.2995	0.2	plonger	42	verb	list	2	8	nomatch	bleu	-1	1	p	0.92026
384.49940000000004	0.0	+	42	verb	list	2	9	nomatch	bleu	-1	1	p	0.92026
384.8992	0.2	vert	42	verb	list	2	10	nomatch	bleu	-1	1	p	0.92026
385.0991	0.0	+	42	verb	list	2	11	nomatch	bleu	-1	1	p	0.92026
385.499	0.0	+	42	verb	list	2	12	nomatch	bleu	-1	1	p	0.92026
387.4981	0.0	BLEU	42	verb	list	2	13	nomatch	bleu	-1	1	p	0.92026
388.481	0.0	+	42	verb	list	2	14	nomatch	bleu	-1	1	p	0.92026
388.4183	0.0	[response]	42	verb	list	2	15	nomatch	bleu	-1	1	p	0.92026
397.8934	0.0	+	43	noun	list	3	1	nomatch	clavier	-1	1	p	0.88897
398.4432	0.2	klmr	43	noun	list	3	2	nomatch	clavier	-1	1	p	0.88897
398.6431	0.0	+	43	noun	list	3	3	nomatch	clavier	-1	1	p	0.88897
399.04290000000003	0.2	pkq	43	noun	list	3	4	nomatch	clavier	-1	1	p	0.88897
399.2428	0.0	+	43	noun	list	3	5	nomatch	clavier	-1	1	p	0.88897
399.6426	0.2	doit	43	noun	list	3	6	nomatch	clavier	-1	1	p	0.88897
399.8426	0.0	+	43	noun	list	3	7	nomatch	clavier	-1	1	p	0.88897
400.24240000000003	0.2	cendrier	43	noun	list	3	8	nomatch	clavier	-1	1	p	0.88897
400.4423	0.0	+	43	noun	list	3	9	nomatch	clavier	-1	1	p	0.88897
400.8421	0.2	tard	43	noun	list	3	10	nomatch	clavier	-1	1	p	0.88897
401.04200000000003	0.0	+	43	noun	list	3	11	nomatch	clavier	-1	1	p	0.88897
401.4418	0.0	+	43	noun	list	3	12	nomatch	clavier	-1	1	p	0.88897
403.44100000000003	0.0	CLAVIER	43	noun	list	3	13	nomatch	clavier	-1	1	p	0.88897
404.39050000000003	0.0	+	43	noun	list	3	14	nomatch	clavier	-1	1	p	0.88897
404.32990000000007	0.0	[response]	43	noun	list	3	15	nomatch	clavier	-1	1	p	0.88897
405.8399	0.0	+	44	verb	phrase	1	1	nomatch	voyager	-1	1	p	0.89528
406.38960000000003	0.2	qcwxm	44	verb	phrase	1	2	nomatch	voyager	-1	1	p	0.89528
406.5895	0.0	+	44	verb	phrase	1	3	nomatch	voyager	-1	1	p	0.89528
406.9894	0.2	qhft	44	verb	phrase	1	4	nomatch	voyager	-1	1	p	0.89528
407.1893	0.0	+	44	verb	phrase	1	5	nomatch	voyager	-1	1	p	0.89528
407.58910000000003	0.2	nblj	44	verb	phrase	1	6	nomatch	voyager	-1	1	p	0.89528
407.789	0.0	+	44	verb	phrase	1	7	nomatch	voyager	-1	1	p	0.89528
408.1888	0.2	kcrv	44	verb	phrase	1	8	nomatch	voyager	-1	1	p	0.89528
408.38870000000003	0.0	+	44	verb	phrase	1	9	nomatch	voyager	-1	1	p	0.89528
408.78860000000003	0.2	plonger	44	verb	phrase	1	10	nomatch	voyager	-1	1	p	0.89528
408.9885	0.0	+	44	verb	phrase	1	11	nomatch	voyager	-1	1	p	0.89528
409.3883	0.0	+	44	verb	phrase	1	12	nomatch	voyager	-1	1	p	0.89528
411.3874	0.0	VOYAGER	44	verb	phrase	1	13	nomatch	voyager	-1	1	p	0.89528
412.337	0.0	+	44	verb	phrase	1	14	nomatch	voyager	-1	1	p	0.89528
412.28270000000003	0.0	[response]	44	verb	phrase	1	15	nomatch	voyager	-1	1	p	0.89528
413.7863	0.0	+	45	noun	phrase	4	1	nomatch	rocher	-1	1	p	0.8411
414.3361	0.2	bhgcldk	45	noun	phrase	4	2	nomatch	rocher	-1	1	p	0.8411
414.536	0.0	+	45	noun	phrase	4	3	nomatch	rocher	-1	1	p	0.8411
414.93580000000003	0.2	pour	45	noun	phrase	4	4	nomatch	rocher	-1	1	p	0.8411
415.1357	0.0	+	45	noun	phrase	4	5	nomatch	rocher	-1	1	p	0.8411
415.5356	0.2	son	45	noun	phrase	4	6	nomatch	rocher	-1	1	p	0.8411
415.7355	0.0	+	45	noun	phrase	4	7	nomatch	rocher	-1	1	p	0.8411
416.13530000000003	0.2	clavier	45	noun	phrase	4	8	nomatch	rocher	-1	1	p	0.8411
416.3352	0.0	+	45	noun	phrase	4	9	nomatch	rocher	-1	1	p	0.8411
416.735	0.2	noir	45	noun	phrase	4	10	nomatch	rocher	-1	1	p	0.8411
416.9349	0.0	+	45	noun	phrase	4	11	nomatch	rocher	-1	1	p	0.8411
417.3347	0.0	+	45	noun	phrase	4	12	nomatch	rocher	-1	1	p	0.8411
419.3339	0.0	ROCHER	45	noun	phrase	4	13	nomatch	rocher	-1	1	p	0.8411
420.2335	0.0	+	45	noun	phrase	4	14	nomatch	rocher	-1	1	p	0.8411
420.175	0.0	[response]	45	noun	phrase	4	15	nomatch	rocher	-1	1	p	0.8411
421.74940000000004	0.0	+	46	verb	list	1	1	match	beau	5	1	y	0.44659
422.2992	0.2	smltbjg	46	verb	list	1	2	match	beau	5	1	y	0.44659
422.4991	0.0	+	46	verb	list	1	3	match	beau	5	1	y	0.44659
422.8989	0.2	lnjp	46	verb	list	1	4	match	beau	5	1	y	0.44659
423.0991	0.0	+	46	verb	list	1	5	match	beau	5	1	y	0.44659
423.4987	0.2	nblj	46	verb	list	1	6	match	beau	5	1	y	0.44659
423.6986	0.0	+	46	verb	list	1	7	match	beau	5	1	y	0.44659
424.0984	0.2	gfxmldq	46	verb	list	1	8	match	beau	5	1	y	0.44659
424.2983	0.0	+	46	verb	list	1	9	match	beau	5	1	y	0.44659
424.6981	0.2	beau	46	verb	list	1	10	match	beau	5	1	y	0.44659
424.898	0.0	+	46	verb	list	1	11	match	beau	5	1	y	0.44659
425.2979	0.0	+	46	verb	list	1	12	match	beau	5	1	y	0.44659
427.297	0.0	BEAU	46	verb	list	1	13	match	beau	5	1	y	0.44659
427.7967	0.0	+	46	verb	list	1	14	match	beau	5	1	y	0.44659
427.7436	0.0	[response]	46	verb	list	1	15	match	beau	5	1	y	0.44659
429.6959	0.0	+	47	verb	list	1	1	nomatch	parader	-1	1	p	1.0529
430.2457	0.2	lfjrdmk	47	verb	list	1	2	nomatch	parader	-1	1	p	1.0529
430.4456	0.0	+	47	verb	list	1	3	nomatch	parader	-1	1	p	1.0529
430.8454	0.2	npvf	47	verb	list	1	4	nomatch	parader	-1	1	p	1.0529
431.0453	0.0	+	47	verb	list	1	5	nomatch	parader	-1	1	p	1.0529
431.4451	0.2	fpmt	47	verb	list	1	6	nomatch	parader	-1	1	p	1.0529
431.64500000000004	0.0	+	47	verb	list	1	7	nomatch	parader	-1	1	p	1.0529
432.0448	0.2	fvpln	47	verb	list	1	8	nomatch	parader	-1	1	p	1.0529
432.2448	0.0	+	47	verb	list	1	9	nomatch	parader	-1	1	p	1.0529
432.6446	0.2	galoper	47	verb	list	1	10	nomatch	parader	-1	1	p	1.0529
432.8445	0.0	+	47	verb	list	1	11	nomatch	parader	-1	1	p	1.0529
433.2443	0.0	+	47	verb	list	1	12	nomatch	parader	-1	1	p	1.0529
435.2434	0.0	PARADER	47	verb	list	1	13	nomatch	parader	-1	1	p	1.0529
436.3596	0.0	+	47	verb	list	1	14	nomatch	parader	-1	1	p	1.0529
436.2963000000001	0.0	[response]	47	verb	list	1	15	nomatch	parader	-1	1	p	1.0529
437.64230000000003	0.0	+	48	verb	list	3	1	match	peut	3	1	y	0.74222
438.1921	0.2	xmnhdb	48	verb	list	3	2	match	peut	3	1	y	0.74222
438.392	0.0	+	48	verb	list	3	3	match	peut	3	1	y	0.74222
438.7918	0.2	pklg	48	verb	list	3	4	match	peut	3	1	y	0.74222
438.9918	0.0	+	48	verb	list	3	5	match	peut	3	1	y	0.74222
439.3916	0.2	peut	48	verb	list	3	6	match	peut	3	1	y	0.74222
439.5915	0.0	+	48	verb	list	3	7	match	peut	3	1	y	0.74222
439.9913	0.2	beau	48	verb	list	3	8	match	peut	3	1	y	0.74222
440.19120000000004	0.0	+	48	verb	list	3	9	match	peut	3	1	y	0.74222
440.591	0.2	voyager	48	verb	list	3	10	match	peut	3	1	y	0.74222
440.7909	0.0	+	48	verb	list	3	11	match	peut	3	1	y	0.74222
441.1908	0.0	+	48	verb	list	3	12	match	peut	3	1	y	0.74222
443.1899	0.0	PEUT	48	verb	list	3	13	match	peut	3	1	y	0.74222
443.9895	0.0	+	48	verb	list	3	14	match	peut	3	1	y	0.74222
443.9321	0.0	[response]	48	verb	list	3	15	match	peut	3	1	y	0.74222
445.5888	0.0	+	49	noun	list	1	1	nomatch	vert	-1	1	p	0.74018
446.1386	0.2	lpkgw	49	noun	list	1	2	nomatch	vert	-1	1	p	0.74018
446.3385	0.0	+	49	noun	list	1	3	nomatch	vert	-1	1	p	0.74018
446.73830000000004	0.2	rflt	49	noun	list	1	4	nomatch	vert	-1	1	p	0.74018
446.9382	0.0	+	49	noun	list	1	5	nomatch	vert	-1	1	p	0.74018
447.338	0.2	mvbw	49	noun	list	1	6	nomatch	vert	-1	1	p	0.74018
447.53790000000004	0.0	+	49	noun	list	1	7	nomatch	vert	-1	1	p	0.74018
447.9377	0.2	nft	49	noun	list	1	8	nomatch	vert	-1	1	p	0.74018
448.1377	0.0	+	49	noun	list	1	9	nomatch	vert	-1	1	p	0.74018
448.5375	0.2	rocher	49	noun	list	1	10	nomatch	vert	-1	1	p	0.74018
448.7375	0.0	+	49	noun	list	1	11	nomatch	vert	-1	1	p	0.74018
449.1372	0.0	+	49	noun	list	1	12	nomatch	vert	-1	1	p	0.74018
451.1363	0.0	VERT	49	noun	list	1	13	nomatch	vert	-1	1	p	0.74018
451.93600000000004	0.0	+	49	noun	list	1	14	nomatch	vert	-1	1	p	0.74018
451.8765	0.0	[response]	49	noun	list	1	15	nomatch	vert	-1	1	p	0.74018
453.5353	0.0	+	50	verb	list	2	1	nomatch	marc	-1	1	p	1.1865
454.08500000000004	0.2	gtbs	50	verb	list	2	2	nomatch	marc	-1	1	p	1.1865
454.2849	0.0	+	50	verb	list	2	3	nomatch	marc	-1	1	p	1.1865
454.6847	0.2	lnjp	50	verb	list	2	4	nomatch	marc	-1	1	p	1.1865
454.8847	0.0	+	50	verb	list	2	5	nomatch	marc	-1	1	p	1.1865
455.28450000000004	0.2	nblj	50	verb	list	2	6	nomatch	marc	-1	1	p	1.1865
455.4844	0.0	+	50	verb	list	2	7	nomatch	marc	-1	1	p	1.1865
455.8842	0.2	beau	50	verb	list	2	8	nomatch	marc	-1	1	p	1.1865
456.08410000000003	0.0	+	50	verb	list	2	9	nomatch	marc	-1	1	p	1.1865
456.4839	0.2	rouler	50	verb	list	2	10	nomatch	marc	-1	1	p	1.1865
456.68390000000005	0.0	+	50	verb	list	2	11	nomatch	marc	-1	1	p	1.1865
457.08369999999996	0.0	+	50	verb	list	2	12	nomatch	marc	-1	1	p	1.1865
459.0994	0.0	MARC	50	verb	list	2	13	nomatch	marc	-1	1	p	1.1865
460.3489	0.0	+	50	verb	list	2	14	nomatch	marc	-1	1	p	1.1865
460.2859	0.0	[response]	50	verb	list	2	15	nomatch	marc	-1	1	p	1.1865
461.4984	0.0	+	51	noun	phrase	2	1	match	sablier	5	1	y	0.77468
462.04810000000003	0.2	fvpjrkc	51	noun	phrase	2	2	match	sablier	5	1	y	0.77468
462.248	0.0	+	51	noun	phrase	2	3	match	sablier	5	1	y	0.77468
462.6478	0.2	rflt	51	noun	phrase	2	4	match	sablier	5	1	y	0.77468
462.84780000000006	0.0	+	51	noun	phrase	2	5	match	sablier	5	1	y	0.77468
463.2476	0.2	zxd	51	noun	phrase	2	6	match	sablier	5	1	y	0.77468
463.44750000000005	0.0	+	51	noun	phrase	2	7	match	sablier	5	1	y	0.77468
463.84729999999996	0.2	petit	51	noun	phrase	2	8	match	sablier	5	1	y	0.77468
464.04720000000003	0.0	+	51	noun	phrase	2	9	match	sablier	5	1	y	0.77468
464.44710000000003	0.2	sablier	51	noun	phrase	2	10	match	sablier	5	1	y	0.77468
464.647	0.0	+	51	noun	phrase	2	11	match	sablier	5	1	y	0.77468
465.0468	0.0	+	51	noun	phrase	2	12	match	sablier	5	1	y	0.77468
467.0459	0.0	SABLIER	51	noun	phrase	2	13	match	sablier	5	1	y	0.77468
467.8788	0.0	+	51	noun	phrase	2	14	match	sablier	5	1	y	0.77468
467.82059999999996	0.0	[response]	51	noun	phrase	2	15	match	sablier	5	1	y	0.77468
477.4413	0.0	+	52	noun	list	4	1	match	jean	2	1	y	0.94048
477.99100000000004	0.2	jdz	52	noun	list	4	2	match	jean	2	1	y	0.94048
478.1909	0.0	+	52	noun	list	4	3	match	jean	2	1	y	0.94048
478.5907	0.2	jean	52	noun	list	4	4	match	jean	2	1	y	0.94048
478.79069999999996	0.0	+	52	noun	list	4	5	match	jean	2	1	y	0.94048
479.1905	0.2	mon	52	noun	list	4	6	match	jean	2	1	y	0.94048
479.39040000000006	0.0	+	52	noun	list	4	7	match	jean	2	1	y	0.94048
479.79019999999997	0.2	beaucoup	52	noun	list	4	8	match	jean	2	1	y	0.94048
479.9902	0.0	+	52	noun	list	4	9	match	jean	2	1	y	0.94048
480.38989999999995	0.2	panier	52	noun	list	4	10	match	jean	2	1	y	0.94048
480.5898	0.0	+	52	noun	list	4	11	match	jean	2	1	y	0.94048
480.9897	0.0	+	52	noun	list	4	12	match	jean	2	1	y	0.94048
482.9888	0.0	JEAN	52	noun	list	4	13	match	jean	2	1	y	0.94048
483.98830000000004	0.0	+	52	noun	list	4	14	match	jean	2	1	y	0.94048
483.9292	0.0	[response]	52	noun	list	4	15	match	jean	2	1	y	0.94048
485.38770000000005	0.0	+	53	verb	phrase	4	1	nomatch	nager	-1	1	p	1.7142000000000002
485.93750000000006	0.2	gdlr	53	verb	phrase	4	2	nomatch	nager	-1	1	p	1.7142000000000002
486.1374	0.0	+	53	verb	phrase	4	3	nomatch	nager	-1	1	p	1.7142000000000002
486.53720000000004	0.2	jade	53	verb	phrase	4	4	nomatch	nager	-1	1	p	1.7142000000000002
486.7371	0.0	+	53	verb	phrase	4	5	nomatch	nager	-1	1	p	1.7142000000000002
487.1369	0.2	peut	53	verb	phrase	4	6	nomatch	nager	-1	1	p	1.7142000000000002
487.3368	0.0	+	53	verb	phrase	4	7	nomatch	nager	-1	1	p	1.7142000000000002
487.7366	0.2	chasser	53	verb	phrase	4	8	nomatch	nager	-1	1	p	1.7142000000000002
487.93660000000006	0.0	+	53	verb	phrase	4	9	nomatch	nager	-1	1	p	1.7142000000000002
488.33639999999997	0.2	tard	53	verb	phrase	4	10	nomatch	nager	-1	1	p	1.7142000000000002
488.53630000000004	0.0	+	53	verb	phrase	4	11	nomatch	nager	-1	1	p	1.7142000000000002
488.93610000000007	0.0	+	53	verb	phrase	4	12	nomatch	nager	-1	1	p	1.7142000000000002
490.93520000000007	0.0	NAGER	53	verb	phrase	4	13	nomatch	nager	-1	1	p	1.7142000000000002
492.70110000000005	0.0	+	53	verb	phrase	4	14	nomatch	nager	-1	1	p	1.7142000000000002
492.64939999999996	0.0	[response]	53	verb	phrase	4	15	nomatch	nager	-1	1	p	1.7142000000000002
517.3401	0.0	+	54	verb	list	1	1	nomatch	beaucoup	-1	1	p	0.72166
517.8898999999999	0.2	njpf	54	verb	list	1	2	nomatch	beaucoup	-1	1	p	0.72166
518.0898	0.0	+	54	verb	list	1	3	nomatch	beaucoup	-1	1	p	0.72166
518.4896	0.2	hfk	54	verb	list	1	4	nomatch	beaucoup	-1	1	p	0.72166
518.6895	0.0	+	54	verb	list	1	5	nomatch	beaucoup	-1	1	p	0.72166
519.0893	0.2	kmc	54	verb	list	1	6	nomatch	beaucoup	-1	1	p	0.72166
519.2892999999999	0.0	+	54	verb	list	1	7	nomatch	beaucoup	-1	1	p	0.72166
519.6890999999999	0.2	bwmjdr	54	verb	list	1	8	nomatch	beaucoup	-1	1	p	0.72166
519.889	0.0	+	54	verb	list	1	9	nomatch	beaucoup	-1	1	p	0.72166
520.2887999999999	0.2	noir	54	verb	list	1	10	nomatch	beaucoup	-1	1	p	0.72166
520.4893999999999	0.0	+	54	verb	list	1	11	nomatch	beaucoup	-1	1	p	0.72166
520.8884999999999	0.0	+	54	verb	list	1	12	nomatch	beaucoup	-1	1	p	0.72166
522.8875999999999	0.0	BEAUCOUP	54	verb	list	1	13	nomatch	beaucoup	-1	1	p	0.72166
523.6705999999999	0.0	+	54	verb	list	1	14	nomatch	beaucoup	-1	1	p	0.72166
523.6093	0.0	[response]	54	verb	list	1	15	nomatch	beaucoup	-1	1	p	0.72166
525.2865999999999	0.0	+	55	verb	list	3	1	nomatch	leur	-1	1	p	0.76015
525.8362999999999	0.2	zmbtv	55	verb	list	3	2	nomatch	leur	-1	1	p	0.76015
526.0362	0.0	+	55	verb	list	3	3	nomatch	leur	-1	1	p	0.76015
526.4359999999999	0.2	lgnz	55	verb	list	3	4	nomatch	leur	-1	1	p	0.76015
526.636	0.0	+	55	verb	list	3	5	nomatch	leur	-1	1	p	0.76015
527.0358	0.2	mon	55	verb	list	3	6	nomatch	leur	-1	1	p	0.76015
527.2357	0.0	+	55	verb	list	3	7	nomatch	leur	-1	1	p	0.76015
527.6355	0.2	plonger	55	verb	list	3	8	nomatch	leur	-1	1	p	0.76015
527.8353999999999	0.0	+	55	verb	list	3	9	nomatch	leur	-1	1	p	0.76015
528.2352999999999	0.2	rouge	55	verb	list	3	10	nomatch	leur	-1	1	p	0.76015
528.4352	0.0	+	55	verb	list	3	11	nomatch	leur	-1	1	p	0.76015
528.8349999999999	0.0	+	55	verb	list	3	12	nomatch	leur	-1	1	p	0.76015
530.8340999999999	0.0	LEUR	55	verb	list	3	13	nomatch	leur	-1	1	p	0.76015
531.6504	0.0	+	55	verb	list	3	14	nomatch	leur	-1	1	p	0.76015
531.5942	0.0	[response]	55	verb	list	3	15	nomatch	leur	-1	1	p	0.76015
533.2497	0.0	+	56	verb	list	1	1	nomatch	galoper	-1	1	p	0.77755
533.7994	0.2	frpzx	56	verb	list	1	2	nomatch	galoper	-1	1	p	0.77755
533.9993	0.0	+	56	verb	list	1	3	nomatch	galoper	-1	1	p	0.77755
534.3992	0.2	fgvt	56	verb	list	1	4	nomatch	galoper	-1	1	p	0.77755
534.5990999999999	0.0	+	56	verb	list	1	5	nomatch	galoper	-1	1	p	0.77755
534.9988999999999	0.2	nblj	56	verb	list	1	6	nomatch	galoper	-1	1	p	0.77755
535.1988	0.0	+	56	verb	list	1	7	nomatch	galoper	-1	1	p	0.77755
535.5985999999999	0.2	vsmnl	56	verb	list	1	8	nomatch	galoper	-1	1	p	0.77755
535.7985	0.0	+	56	verb	list	1	9	nomatch	galoper	-1	1	p	0.77755
536.1984	0.2	jongler	56	verb	list	1	10	nomatch	galoper	-1	1	p	0.77755
536.3983	0.0	+	56	verb	list	1	11	nomatch	galoper	-1	1	p	0.77755
536.7981	0.0	+	56	verb	list	1	12	nomatch	galoper	-1	1	p	0.77755
538.7972	0.0	GALOPER	56	verb	list	1	13	nomatch	galoper	-1	1	p	0.77755
539.6302	0.0	+	56	verb	list	1	14	nomatch	galoper	-1	1	p	0.77755
539.5748	0.0	[response]	56	verb	list	1	15	nomatch	galoper	-1	1	p	0.77755
549.1926	0.0	+	57	noun	list	3	1	match	leur	3	1	y	0.97236
549.7423	0.2	jxflcg	57	noun	list	3	2	match	leur	3	1	y	0.97236
549.9422	0.0	+	57	noun	list	3	3	match	leur	3	1	y	0.97236
550.3421	0.2	gjnb	57	noun	list	3	4	match	leur	3	1	y	0.97236
550.5419999999999	0.0	+	57	noun	list	3	5	match	leur	3	1	y	0.97236
550.9418	0.2	leur	57	noun	list	3	6	match	leur	3	1	y	0.97236
551.1416999999999	0.0	+	57	noun	list	3	7	match	leur	3	1	y	0.97236
551.5414999999999	0.2	moins	57	noun	list	3	8	match	leur	3	1	y	0.97236
551.7414	0.0	+	57	noun	list	3	9	match	leur	3	1	y	0.97236
552.1411999999999	0.2	voilier	57	noun	list	3	10	match	leur	3	1	y	0.97236
552.3412	0.0	+	57	noun	list	3	11	match	leur	3	1	y	0.97236
552.741	0.0	+	57	noun	list	3	12	match	leur	3	1	y	0.97236
554.7401	0.0	LEUR	57	noun	list	3	13	match	leur	3	1	y	0.97236
555.7729999999999	0.0	+	57	noun	list	3	14	match	leur	3	1	y	0.97236
555.7125	0.0	[response]	57	noun	list	3	15	match	leur	3	1	y	0.97236
557.139	0.0	+	58	verb	phrase	2	1	nomatch	sur	-1	1	p	0.78592
557.6887999999999	0.2	hcl	58	verb	phrase	2	2	nomatch	sur	-1	1	p	0.78592
557.8887	0.0	+	58	verb	phrase	2	3	nomatch	sur	-1	1	p	0.78592
558.2885	0.2	lgnz	58	verb	phrase	2	4	nomatch	sur	-1	1	p	0.78592
558.4884	0.0	+	58	verb	phrase	2	5	nomatch	sur	-1	1	p	0.78592
558.8882	0.2	lj	58	verb	phrase	2	6	nomatch	sur	-1	1	p	0.78592
559.0880999999999	0.0	+	58	verb	phrase	2	7	nomatch	sur	-1	1	p	0.78592
559.4879999999999	0.2	trop	58	verb	phrase	2	8	nomatch	sur	-1	1	p	0.78592
559.6878999999999	0.0	+	58	verb	phrase	2	9	nomatch	sur	-1	1	p	0.78592
560.0876999999999	0.2	plonger	58	verb	phrase	2	10	nomatch	sur	-1	1	p	0.78592
560.2876	0.0	+	58	verb	phrase	2	11	nomatch	sur	-1	1	p	0.78592
560.6873999999999	0.0	+	58	verb	phrase	2	12	nomatch	sur	-1	1	p	0.78592
562.6864999999999	0.0	SUR	58	verb	phrase	2	13	nomatch	sur	-1	1	p	0.78592
563.5362	0.0	+	58	verb	phrase	2	14	nomatch	sur	-1	1	p	0.78592
563.4725	0.0	[response]	58	verb	phrase	2	15	nomatch	sur	-1	1	p	0.78592
565.0854999999999	0.0	+	59	verb	list	3	1	nomatch	doit	-1	1	p	0.6847
565.6351999999999	0.2	tzsf	59	verb	list	3	2	nomatch	doit	-1	1	p	0.6847
565.8353	0.0	+	59	verb	list	3	3	nomatch	doit	-1	1	p	0.6847
566.2348999999999	0.2	qhft	59	verb	list	3	4	nomatch	doit	-1	1	p	0.6847
566.4349	0.0	+	59	verb	list	3	5	nomatch	doit	-1	1	p	0.6847
566.8347	0.2	son	59	verb	list	3	6	nomatch	doit	-1	1	p	0.6847
567.0346	0.0	+	59	verb	list	3	7	nomatch	doit	-1	1	p	0.6847
567.4344	0.2	jongler	59	verb	list	3	8	nomatch	doit	-1	1	p	0.6847
567.6342999999999	0.0	+	59	verb	list	3	9	nomatch	doit	-1	1	p	0.6847
568.0341	0.2	bleu	59	verb	list	3	10	nomatch	doit	-1	1	p	0.6847
568.2340999999999	0.0	+	59	verb	list	3	11	nomatch	doit	-1	1	p	0.6847
568.6338999999999	0.0	+	59	verb	list	3	12	nomatch	doit	-1	1	p	0.6847
570.6496999999999	0.0	DOIT	59	verb	list	3	13	nomatch	doit	-1	1	p	0.6847
571.3992999999999	0.0	+	59	verb	list	3	14	nomatch	doit	-1	1	p	0.6847
571.3344	0.0	[response]	59	verb	list	3	15	nomatch	doit	-1	1	p	0.6847
581.045	0.0	+	60	verb	phrase	1	1	match	plonger	5	1	y	0.57847
581.5948	0.2	hgwk	60	verb	phrase	1	2	match	plonger	5	1	y	0.57847
581.7946999999999	0.0	+	60	verb	phrase	1	3	match	plonger	5	1	y	0.57847
582.1945	0.2	htzd	60	verb	phrase	1	4	match	plonger	5	1	y	0.57847
582.3943999999999	0.0	+	60	verb	phrase	1	5	match	plonger	5	1	y	0.57847
582.7941999999999	0.2	mvbw	60	verb	phrase	1	6	match	plonger	5	1	y	0.57847
582.9941	0.0	+	60	verb	phrase	1	7	match	plonger	5	1	y	0.57847
583.394	0.2	rhpxq	60	verb	phrase	1	8	match	plonger	5	1	y	0.57847
583.5939	0.0	+	60	verb	phrase	1	9	match	plonger	5	1	y	0.57847
583.9937	0.2	plonger	60	verb	phrase	1	10	match	plonger	5	1	y	0.57847
584.1936	0.0	+	60	verb	phrase	1	11	match	plonger	5	1	y	0.57847
584.5934	0.0	+	60	verb	phrase	1	12	match	plonger	5	1	y	0.57847
586.5931999999999	0.0	PLONGER	60	verb	phrase	1	13	match	plonger	5	1	y	0.57847
587.2256	0.0	+	60	verb	phrase	1	14	match	plonger	5	1	y	0.57847
587.1717	0.0	[response]	60	verb	phrase	1	15	match	plonger	5	1	y	0.57847
588.9915	0.0	+	61	verb	phrase	2	1	nomatch	voyager	-1	1	p	0.91506
589.5412	0.2	rbcjhmq	61	verb	phrase	2	2	nomatch	voyager	-1	1	p	0.91506
589.7411	0.0	+	61	verb	phrase	2	3	nomatch	voyager	-1	1	p	0.91506
590.1409	0.2	npvf	61	verb	phrase	2	4	nomatch	voyager	-1	1	p	0.91506
590.3408999999999	0.0	+	61	verb	phrase	2	5	nomatch	voyager	-1	1	p	0.91506
590.7407	0.2	nblj	61	verb	phrase	2	6	nomatch	voyager	-1	1	p	0.91506
590.9405999999999	0.0	+	61	verb	phrase	2	7	nomatch	voyager	-1	1	p	0.91506
591.3403999999999	0.2	plus	61	verb	phrase	2	8	nomatch	voyager	-1	1	p	0.91506
591.5403	0.0	+	61	verb	phrase	2	9	nomatch	voyager	-1	1	p	0.91506
591.9400999999999	0.2	rouler	61	verb	phrase	2	10	nomatch	voyager	-1	1	p	0.91506
592.1401	0.0	+	61	verb	phrase	2	11	nomatch	voyager	-1	1	p	0.91506
592.5399	0.0	+	61	verb	phrase	2	12	nomatch	voyager	-1	1	p	0.91506
594.539	0.0	VOYAGER	61	verb	phrase	2	13	nomatch	voyager	-1	1	p	0.91506
595.5052	0.0	+	61	verb	phrase	2	14	nomatch	voyager	-1	1	p	0.91506
595.454	0.0	[response]	61	verb	phrase	2	15	nomatch	voyager	-1	1	p	0.91506
596.9378999999999	0.0	+	62	verb	list	4	1	nomatch	clavier	-1	1	p	0.97544
597.4876999999999	0.2	gqplbhd	62	verb	list	4	2	nomatch	clavier	-1	1	p	0.97544
597.6876	0.0	+	62	verb	list	4	3	nomatch	clavier	-1	1	p	0.97544
598.0876	0.2	adam	62	verb	list	4	4	nomatch	clavier	-1	1	p	0.97544
598.2873	0.0	+	62	verb	list	4	5	nomatch	clavier	-1	1	p	0.97544
598.6871	0.2	leur	62	verb	list	4	6	nomatch	clavier	-1	1	p	0.97544
598.8870999999999	0.0	+	62	verb	list	4	7	nomatch	clavier	-1	1	p	0.97544
599.2869	0.2	galoper	62	verb	list	4	8	nomatch	clavier	-1	1	p	0.97544
599.4867999999999	0.0	+	62	verb	list	4	9	nomatch	clavier	-1	1	p	0.97544
599.8865999999999	0.2	blanc	62	verb	list	4	10	nomatch	clavier	-1	1	p	0.97544
600.0865	0.0	+	62	verb	list	4	11	nomatch	clavier	-1	1	p	0.97544
600.4862999999999	0.0	+	62	verb	list	4	12	nomatch	clavier	-1	1	p	0.97544
602.4853999999999	0.0	CLAVIER	62	verb	list	4	13	nomatch	clavier	-1	1	p	0.97544
603.5183	0.0	+	62	verb	list	4	14	nomatch	clavier	-1	1	p	0.97544
603.4609	0.0	[response]	62	verb	list	4	15	nomatch	clavier	-1	1	p	0.97544
604.8843999999999	0.0	+	63	verb	list	1	1	match	rouge	5	1	y	0.71894
605.4341	0.2	qdfjsp	63	verb	list	1	2	match	rouge	5	1	y	0.71894
605.6339999999999	0.0	+	63	verb	list	1	3	match	rouge	5	1	y	0.71894
606.0338999999999	0.2	npvf	63	verb	list	1	4	match	rouge	5	1	y	0.71894
606.2338	0.0	+	63	verb	list	1	5	match	rouge	5	1	y	0.71894
606.6336	0.2	zxd	63	verb	list	1	6	match	rouge	5	1	y	0.71894
606.8335	0.0	+	63	verb	list	1	7	match	rouge	5	1	y	0.71894
607.25	0.2	bdrzhls	63	verb	list	1	8	match	rouge	5	1	y	0.71894
607.4499	0.0	+	63	verb	list	1	9	match	rouge	5	1	y	0.71894
607.8497	0.2	rouge	63	verb	list	1	10	match	rouge	5	1	y	0.71894
608.0495999999999	0.0	+	63	verb	list	1	11	match	rouge	5	1	y	0.71894
608.4494	0.0	+	63	verb	list	1	12	match	rouge	5	1	y	0.71894
610.4485999999999	0.0	ROUGE	63	verb	list	1	13	match	rouge	5	1	y	0.71894
611.2315	0.0	+	63	verb	list	1	14	match	rouge	5	1	y	0.71894
611.1675	0.0	[response]	63	verb	list	1	15	match	rouge	5	1	y	0.71894
612.8475	0.0	+	64	noun	list	1	1	nomatch	jade	-1	1	p	0.63968
613.3972	0.2	vrpmwt	64	noun	list	1	2	nomatch	jade	-1	1	p	0.63968
613.5971	0.0	+	64	noun	list	1	3	nomatch	jade	-1	1	p	0.63968
613.997	0.2	nwdx	64	noun	list	1	4	nomatch	jade	-1	1	p	0.63968
614.1968999999999	0.0	+	64	noun	list	1	5	nomatch	jade	-1	1	p	0.63968
614.5966999999999	0.2	lj	64	noun	list	1	6	nomatch	jade	-1	1	p	0.63968
614.7965999999999	0.0	+	64	noun	list	1	7	nomatch	jade	-1	1	p	0.63968
615.1963999999999	0.2	sqtw	64	noun	list	1	8	nomatch	jade	-1	1	p	0.63968
615.3963	0.0	+	64	noun	list	1	9	nomatch	jade	-1	1	p	0.63968
615.7962	0.2	panier	64	noun	list	1	10	nomatch	jade	-1	1	p	0.63968
615.9961	0.0	+	64	noun	list	1	11	nomatch	jade	-1	1	p	0.63968
616.3959	0.0	+	64	noun	list	1	12	nomatch	jade	-1	1	p	0.63968
618.395	0.0	JADE	64	noun	list	1	13	nomatch	jade	-1	1	p	0.63968
619.0948999999999	0.0	+	64	noun	list	1	14	nomatch	jade	-1	1	p	0.63968
619.0346999999999	0.0	[response]	64	noun	list	1	15	nomatch	jade	-1	1	p	0.63968
620.7939	0.0	+	65	verb	phrase	1	1	nomatch	tard	-1	1	p	0.72997
621.3436999999999	0.2	kpx	65	verb	phrase	1	2	nomatch	tard	-1	1	p	0.72997
621.5436	0.0	+	65	verb	phrase	1	3	nomatch	tard	-1	1	p	0.72997
621.9434	0.2	gjnb	65	verb	phrase	1	4	nomatch	tard	-1	1	p	0.72997
622.1433	0.0	+	65	verb	phrase	1	5	nomatch	tard	-1	1	p	0.72997
622.5432	0.2	nblj	65	verb	phrase	1	6	nomatch	tard	-1	1	p	0.72997
622.7430999999999	0.0	+	65	verb	phrase	1	7	nomatch	tard	-1	1	p	0.72997
623.1428999999999	0.2	bhlq	65	verb	phrase	1	8	nomatch	tard	-1	1	p	0.72997
623.3427999999999	0.0	+	65	verb	phrase	1	9	nomatch	tard	-1	1	p	0.72997
623.7425999999999	0.2	parader	65	verb	phrase	1	10	nomatch	tard	-1	1	p	0.72997
623.9425	0.0	+	65	verb	phrase	1	11	nomatch	tard	-1	1	p	0.72997
624.3422999999999	0.0	+	65	verb	phrase	1	12	nomatch	tard	-1	1	p	0.72997
626.3413999999999	0.0	TARD	65	verb	phrase	1	13	nomatch	tard	-1	1	p	0.72997
627.1243999999999	0.0	+	65	verb	phrase	1	14	nomatch	tard	-1	1	p	0.72997
627.0714	0.0	[response]	65	verb	phrase	1	15	nomatch	tard	-1	1	p	0.72997
628.7403999999999	0.0	+	66	noun	phrase	2	1	match	panier	5	1	y	0.86942
629.2900999999999	0.2	vknrcd	66	noun	phrase	2	2	match	panier	5	1	y	0.86942
629.4901	0.0	+	66	noun	phrase	2	3	match	panier	5	1	y	0.86942
629.8898999999999	0.2	nwdx	66	noun	phrase	2	4	match	panier	5	1	y	0.86942
630.0898	0.0	+	66	noun	phrase	2	5	match	panier	5	1	y	0.86942
630.4896	0.2	kmc	66	noun	phrase	2	6	match	panier	5	1	y	0.86942
630.6895	0.0	+	66	noun	phrase	2	7	match	panier	5	1	y	0.86942
631.0893	0.2	petit	66	noun	phrase	2	8	match	panier	5	1	y	0.86942
631.2891999999999	0.0	+	66	noun	phrase	2	9	match	panier	5	1	y	0.86942
631.6890999999999	0.2	panier	66	noun	phrase	2	10	match	panier	5	1	y	0.86942
631.889	0.0	+	66	noun	phrase	2	11	match	panier	5	1	y	0.86942
632.2887999999999	0.0	+	66	noun	phrase	2	12	match	panier	5	1	y	0.86942
634.2878999999999	0.0	PANIER	66	noun	phrase	2	13	match	panier	5	1	y	0.86942
635.2207999999999	0.0	+	66	noun	phrase	2	14	match	panier	5	1	y	0.86942
635.1573	0.0	[response]	66	noun	phrase	2	15	match	panier	5	1	y	0.86942
636.6868	0.0	+	67	verb	list	1	1	nomatch	va	-1	1	p	1.059
637.2367999999999	0.2	nzd	67	verb	list	1	2	nomatch	va	-1	1	p	1.059
637.4364999999999	0.0	+	67	verb	list	1	3	nomatch	va	-1	1	p	1.059
637.8362999999999	0.2	qhft	67	verb	list	1	4	nomatch	va	-1	1	p	1.059
638.0362	0.0	+	67	verb	list	1	5	nomatch	va	-1	1	p	1.059
638.4361	0.2	fpmt	67	verb	list	1	6	nomatch	va	-1	1	p	1.059
638.636	0.0	+	67	verb	list	1	7	nomatch	va	-1	1	p	1.059
639.0358	0.2	nkbswgt	67	verb	list	1	8	nomatch	va	-1	1	p	1.059
639.2357	0.0	+	67	verb	list	1	9	nomatch	va	-1	1	p	1.059
639.6355	0.2	blanc	67	verb	list	1	10	nomatch	va	-1	1	p	1.059
639.8353999999999	0.0	+	67	verb	list	1	11	nomatch	va	-1	1	p	1.059
640.2352999999999	0.0	+	67	verb	list	1	12	nomatch	va	-1	1	p	1.059
642.2343999999999	0.0	VA	67	verb	list	1	13	nomatch	va	-1	1	p	1.059
643.3504999999999	0.0	+	67	verb	list	1	14	nomatch	va	-1	1	p	1.059
643.2932999999999	0.0	[response]	67	verb	list	1	15	nomatch	va	-1	1	p	1.059
644.65	0.0	+	68	verb	phrase	2	1	nomatch	rouler	-1	1	p	1.0808
645.1997	0.2	knmqwd	68	verb	phrase	2	2	nomatch	rouler	-1	1	p	1.0808
645.3996	0.0	+	68	verb	phrase	2	3	nomatch	rouler	-1	1	p	1.0808
645.7994	0.2	npvf	68	verb	phrase	2	4	nomatch	rouler	-1	1	p	1.0808
645.9993999999999	0.0	+	68	verb	phrase	2	5	nomatch	rouler	-1	1	p	1.0808
646.3992	0.2	nblj	68	verb	phrase	2	6	nomatch	rouler	-1	1	p	1.0808
646.5990999999999	0.0	+	68	verb	phrase	2	7	nomatch	rouler	-1	1	p	1.0808
646.9988999999999	0.2	galoper	68	verb	phrase	2	8	nomatch	rouler	-1	1	p	1.0808
647.1988	0.0	+	68	verb	phrase	2	9	nomatch	rouler	-1	1	p	1.0808
647.5985999999999	0.2	loin	68	verb	phrase	2	10	nomatch	rouler	-1	1	p	1.0808
647.7986	0.0	+	68	verb	phrase	2	11	nomatch	rouler	-1	1	p	1.0808
648.1984	0.0	+	68	verb	phrase	2	12	nomatch	rouler	-1	1	p	1.0808
650.1975	0.0	ROULER	68	verb	phrase	2	13	nomatch	rouler	-1	1	p	1.0808
651.3303	0.0	+	68	verb	phrase	2	14	nomatch	rouler	-1	1	p	1.0808
651.2783000000001	0.0	[response]	68	verb	phrase	2	15	nomatch	rouler	-1	1	p	1.0808
652.5963999999999	0.0	+	69	noun	phrase	1	1	nomatch	blanc	-1	1	p	0.92534
653.1461999999999	0.2	lkwmn	69	noun	phrase	1	2	nomatch	blanc	-1	1	p	0.92534
653.3461	0.0	+	69	noun	phrase	1	3	nomatch	blanc	-1	1	p	0.92534
653.7459	0.2	lnjp	69	noun	phrase	1	4	nomatch	blanc	-1	1	p	0.92534
653.9458	0.0	+	69	noun	phrase	1	5	nomatch	blanc	-1	1	p	0.92534
654.3456	0.2	fpmt	69	noun	phrase	1	6	nomatch	blanc	-1	1	p	0.92534
654.5455	0.0	+	69	noun	phrase	1	7	nomatch	blanc	-1	1	p	0.92534
654.9454	0.2	grdlthc	69	noun	phrase	1	8	nomatch	blanc	-1	1	p	0.92534
655.1452999999999	0.0	+	69	noun	phrase	1	9	nomatch	blanc	-1	1	p	0.92534
655.5450999999999	0.2	noir	69	noun	phrase	1	10	nomatch	blanc	-1	1	p	0.92534
655.745	0.0	+	69	noun	phrase	1	11	nomatch	blanc	-1	1	p	0.92534
656.1447999999999	0.0	+	69	noun	phrase	1	12	nomatch	blanc	-1	1	p	0.92534
658.1438999999999	0.0	BLANC	69	noun	phrase	1	13	nomatch	blanc	-1	1	p	0.92534
659.1268	0.0	+	69	noun	phrase	1	14	nomatch	blanc	-1	1	p	0.92534
659.0693	0.0	[response]	69	noun	phrase	1	15	nomatch	blanc	-1	1	p	0.92534
668.5392999999999	0.0	+	70	verb	phrase	3	1	nomatch	marc	-1	1	p	0.91198
669.0889999999999	0.2	tgrs	70	verb	phrase	3	2	nomatch	marc	-1	1	p	0.91198
669.2888999999999	0.0	+	70	verb	phrase	3	3	nomatch	marc	-1	1	p	0.91198
669.6887999999999	0.2	hfk	70	verb	phrase	3	4	nomatch	marc	-1	1	p	0.91198
669.8887	0.0	+	70	verb	phrase	3	5	nomatch	marc	-1	1	p	0.91198
670.2885	0.2	doit	70	verb	phrase	3	6	nomatch	marc	-1	1	p	0.91198
670.4891	0.0	+	70	verb	phrase	3	7	nomatch	marc	-1	1	p	0.91198
670.8882	0.2	nager	70	verb	phrase	3	8	nomatch	marc	-1	1	p	0.91198
671.0880999999999	0.0	+	70	verb	phrase	3	9	nomatch	marc	-1	1	p	0.91198
671.4879999999999	0.2	ainsi	70	verb	phrase	3	10	nomatch	marc	-1	1	p	0.91198
671.6878999999999	0.0	+	70	verb	phrase	3	11	nomatch	marc	-1	1	p	0.91198
672.0876999999999	0.0	+	70	verb	phrase	3	12	nomatch	marc	-1	1	p	0.91198
674.0867999999999	0.0	MARC	70	verb	phrase	3	13	nomatch	marc	-1	1	p	0.91198
675.0531	0.0	+	70	verb	phrase	3	14	nomatch	marc	-1	1	p	0.91198
674.9988	0.0	[response]	70	verb	phrase	3	15	nomatch	marc	-1	1	p	0.91198
676.4857	0.0	+	71	verb	list	4	1	match	son	3	1	y	1.8757
677.0355	0.2	cgxdvbh	71	verb	list	4	2	match	son	3	1	y	1.8757
677.2353999999999	0.0	+	71	verb	list	4	3	match	son	3	1	y	1.8757
677.6351999999999	0.2	adam	71	verb	list	4	4	match	son	3	1	y	1.8757
677.8350999999999	0.0	+	71	verb	list	4	5	match	son	3	1	y	1.8757
678.2349999999999	0.2	son	71	verb	list	4	6	match	son	3	1	y	1.8757
678.4349	0.0	+	71	verb	list	4	7	match	son	3	1	y	1.8757
678.8347	0.2	jongler	71	verb	list	4	8	match	son	3	1	y	1.8757
679.0346	0.0	+	71	verb	list	4	9	match	son	3	1	y	1.8757
679.4344	0.2	blanc	71	verb	list	4	10	match	son	3	1	y	1.8757
679.6342999999999	0.0	+	71	verb	list	4	11	match	son	3	1	y	1.8757
680.0341999999999	0.0	+	71	verb	list	4	12	match	son	3	1	y	1.8757
682.0499	0.0	SON	71	verb	list	4	13	match	son	3	1	y	1.8757
683.9824	0.0	+	71	verb	list	4	14	match	son	3	1	y	1.8757
683.9255999999999	0.0	[response]	71	verb	list	4	15	match	son	3	1	y	1.8757
684.4489	0.0	+	72	verb	list	4	1	match	paul	2	1	y	1.0859
684.9986	0.2	xhgpdck	72	verb	list	4	2	match	paul	2	1	y	1.0859
685.1985	0.0	+	72	verb	list	4	3	match	paul	2	1	y	1.0859
685.5983	0.2	paul	72	verb	list	4	4	match	paul	2	1	y	1.0859
685.7982999999999	0.0	+	72	verb	list	4	5	match	paul	2	1	y	1.0859
686.1981	0.2	leur	72	verb	list	4	6	match	paul	2	1	y	1.0859
686.3979999999999	0.0	+	72	verb	list	4	7	match	paul	2	1	y	1.0859
686.7977999999999	0.2	chasser	72	verb	list	4	8	match	paul	2	1	y	1.0859
686.9977	0.0	+	72	verb	list	4	9	match	paul	2	1	y	1.0859
687.3974999999999	0.2	rouge	72	verb	list	4	10	match	paul	2	1	y	1.0859
687.5974	0.0	+	72	verb	list	4	11	match	paul	2	1	y	1.0859
687.9973	0.0	+	72	verb	list	4	12	match	paul	2	1	y	1.0859
689.9964	0.0	PAUL	72	verb	list	4	13	match	paul	2	1	y	1.0859
691.1459	0.0	+	72	verb	list	4	14	match	paul	2	1	y	1.0859
691.0822999999999	0.0	[response]	72	verb	list	4	15	match	paul	2	1	y	1.0859
692.3952999999999	0.0	+	73	verb	phrase	1	1	nomatch	clavier	-1	1	p	2.2939
692.9449999999999	0.2	wgfcmj	73	verb	phrase	1	2	nomatch	clavier	-1	1	p	2.2939
693.145	0.0	+	73	verb	phrase	1	3	nomatch	clavier	-1	1	p	2.2939
693.5448	0.2	jhvb	73	verb	phrase	1	4	nomatch	clavier	-1	1	p	2.2939
693.7447	0.0	+	73	verb	phrase	1	5	nomatch	clavier	-1	1	p	2.2939
694.1445	0.2	lj	73	verb	phrase	1	6	nomatch	clavier	-1	1	p	2.2939
694.3444	0.0	+	73	verb	phrase	1	7	nomatch	clavier	-1	1	p	2.2939
694.7443	0.2	qdlg	73	verb	phrase	1	8	nomatch	clavier	-1	1	p	2.2939
694.9441999999999	0.0	+	73	verb	phrase	1	9	nomatch	clavier	-1	1	p	2.2939
695.3439999999999	0.2	voyager	73	verb	phrase	1	10	nomatch	clavier	-1	1	p	2.2939
695.5439	0.0	+	73	verb	phrase	1	11	nomatch	clavier	-1	1	p	2.2939
695.9436999999999	0.0	+	73	verb	phrase	1	12	nomatch	clavier	-1	1	p	2.2939
697.9427999999999	0.0	CLAVIER	73	verb	phrase	1	13	nomatch	clavier	-1	1	p	2.2939
700.2918	0.0	+	73	verb	phrase	1	14	nomatch	clavier	-1	1	p	2.2939
700.2367999999999	0.0	[response]	73	verb	phrase	1	15	nomatch	clavier	-1	1	p	2.2939
700.3584	0.0	+	74	verb	list	4	1	nomatch	yves	-1	1	p	0.77919
700.8915	0.2	dvfgc	74	verb	list	4	2	nomatch	yves	-1	1	p	0.77919
701.0913999999999	0.0	+	74	verb	list	4	3	nomatch	yves	-1	1	p	0.77919
701.4911999999999	0.2	marc	74	verb	list	4	4	nomatch	yves	-1	1	p	0.77919
701.6911	0.0	+	74	verb	list	4	5	nomatch	yves	-1	1	p	0.77919
702.091	0.2	leur	74	verb	list	4	6	nomatch	yves	-1	1	p	0.77919
702.2909	0.0	+	74	verb	list	4	7	nomatch	yves	-1	1	p	0.77919
702.6907	0.2	parader	74	verb	list	4	8	nomatch	yves	-1	1	p	0.77919
702.8906	0.0	+	74	verb	list	4	9	nomatch	yves	-1	1	p	0.77919
703.2904	0.2	rouge	74	verb	list	4	10	nomatch	yves	-1	1	p	0.77919
703.4907	0.0	+	74	verb	list	4	11	nomatch	yves	-1	1	p	0.77919
703.8901999999999	0.0	+	74	verb	list	4	12	nomatch	yves	-1	1	p	0.77919
705.8892999999999	0.0	YVES	74	verb	list	4	13	nomatch	yves	-1	1	p	0.77919
706.7221999999999	0.0	+	74	verb	list	4	14	nomatch	yves	-1	1	p	0.77919
706.6685	0.0	[response]	74	verb	list	4	15	nomatch	yves	-1	1	p	0.77919
708.2882	0.0	+	75	verb	phrase	3	1	match	vite	5	1	y	0.7701700000000001
708.838	0.2	rxckgpl	75	verb	phrase	3	2	match	vite	5	1	y	0.7701700000000001
709.0378999999999	0.0	+	75	verb	phrase	3	3	match	vite	5	1	y	0.7701700000000001
709.4377	0.2	npvf	75	verb	phrase	3	4	match	vite	5	1	y	0.7701700000000001
709.6375999999999	0.0	+	75	verb	phrase	3	5	match	vite	5	1	y	0.7701700000000001
710.0373999999999	0.2	doit	75	verb	phrase	3	6	match	vite	5	1	y	0.7701700000000001
710.2373	0.0	+	75	verb	phrase	3	7	match	vite	5	1	y	0.7701700000000001
710.6372	0.2	galoper	75	verb	phrase	3	8	match	vite	5	1	y	0.7701700000000001
710.8375	0.0	+	75	verb	phrase	3	9	match	vite	5	1	y	0.7701700000000001
711.2369	0.2	vite	75	verb	phrase	3	10	match	vite	5	1	y	0.7701700000000001
711.4368	0.0	+	75	verb	phrase	3	11	match	vite	5	1	y	0.7701700000000001
711.8366	0.0	+	75	verb	phrase	3	12	match	vite	5	1	y	0.7701700000000001
713.8357	0.0	VITE	75	verb	phrase	3	13	match	vite	5	1	y	0.7701700000000001
714.6687	0.0	+	75	verb	phrase	3	14	match	vite	5	1	y	0.7701700000000001
714.6058999999999	0.0	[response]	75	verb	phrase	3	15	match	vite	5	1	y	0.7701700000000001
716.2347	0.0	+	76	verb	phrase	3	1	match	rouler	4	1	y	0.8220000000000001
716.7844	0.2	hjvmfn	76	verb	phrase	3	2	match	rouler	4	1	y	0.8220000000000001
716.9843	0.0	+	76	verb	phrase	3	3	match	rouler	4	1	y	0.8220000000000001
717.3841	0.2	qhft	76	verb	phrase	3	4	match	rouler	4	1	y	0.8220000000000001
717.584	0.0	+	76	verb	phrase	3	5	match	rouler	4	1	y	0.8220000000000001
717.9839	0.2	peut	76	verb	phrase	3	6	match	rouler	4	1	y	0.8220000000000001
718.1837999999999	0.0	+	76	verb	phrase	3	7	match	rouler	4	1	y	0.8220000000000001
718.5835999999999	0.2	rouler	76	verb	phrase	3	8	match	rouler	4	1	y	0.8220000000000001
718.7837	0.0	+	76	verb	phrase	3	9	match	rouler	4	1	y	0.8220000000000001
719.1999999999999	0.2	ainsi	76	verb	phrase	3	10	match	rouler	4	1	y	0.8220000000000001
719.3999	0.0	+	76	verb	phrase	3	11	match	rouler	4	1	y	0.8220000000000001
719.7996999999999	0.0	+	76	verb	phrase	3	12	match	rouler	4	1	y	0.8220000000000001
721.7987999999999	0.0	ROULER	76	verb	phrase	3	13	match	rouler	4	1	y	0.8220000000000001
722.6818	0.0	+	76	verb	phrase	3	14	match	rouler	4	1	y	0.8220000000000001
722.6207999999999	0.0	[response]	76	verb	phrase	3	15	match	rouler	4	1	y	0.8220000000000001
724.1977999999999	0.0	+	77	noun	phrase	4	1	nomatch	bleu	-1	1	p	1.0728
724.7475	0.2	whxrz	77	noun	phrase	4	2	nomatch	bleu	-1	1	p	1.0728
724.9473999999999	0.0	+	77	noun	phrase	4	3	nomatch	bleu	-1	1	p	1.0728
725.3472999999999	0.2	avec	77	noun	phrase	4	4	nomatch	bleu	-1	1	p	1.0728
725.5472	0.0	+	77	noun	phrase	4	5	nomatch	bleu	-1	1	p	1.0728
725.947	0.2	mon	77	noun	phrase	4	6	nomatch	bleu	-1	1	p	1.0728
726.1469	0.0	+	77	noun	phrase	4	7	nomatch	bleu	-1	1	p	1.0728
726.5467	0.2	grand	77	noun	phrase	4	8	nomatch	bleu	-1	1	p	1.0728
726.7466	0.0	+	77	noun	phrase	4	9	nomatch	bleu	-1	1	p	1.0728
727.1464	0.2	voilier	77	noun	phrase	4	10	nomatch	bleu	-1	1	p	1.0728
727.3463999999999	0.0	+	77	noun	phrase	4	11	nomatch	bleu	-1	1	p	1.0728
727.7461999999999	0.0	+	77	noun	phrase	4	12	nomatch	bleu	-1	1	p	1.0728
729.7452999999999	0.0	BLEU	77	noun	phrase	4	13	nomatch	bleu	-1	1	p	1.0728
730.8780999999999	0.0	+	77	noun	phrase	4	14	nomatch	bleu	-1	1	p	1.0728
730.8181	0.0	[response]	77	noun	phrase	4	15	nomatch	bleu	-1	1	p	1.0728
740.1406999999999	0.0	+	78	verb	phrase	3	1	match	doit	3	1	y	0.79228
740.6904	0.2	rxzhlp	78	verb	phrase	3	2	match	doit	3	1	y	0.79228
740.8902999999999	0.0	+	78	verb	phrase	3	3	match	doit	3	1	y	0.79228
741.2900999999999	0.2	gjnb	78	verb	phrase	3	4	match	doit	3	1	y	0.79228
741.4901	0.0	+	78	verb	phrase	3	5	match	doit	3	1	y	0.79228
741.8898999999999	0.2	doit	78	verb	phrase	3	6	match	doit	3	1	y	0.79228
742.0898	0.0	+	78	verb	phrase	3	7	match	doit	3	1	y	0.79228
742.4902999999999	0.2	beaucoup	78	verb	phrase	3	8	match	doit	3	1	y	0.79228
742.6895	0.0	+	78	verb	phrase	3	9	match	doit	3	1	y	0.79228
743.0893	0.2	parader	78	verb	phrase	3	10	match	doit	3	1	y	0.79228
743.2891999999999	0.0	+	78	verb	phrase	3	11	match	doit	3	1	y	0.79228
743.6890999999999	0.0	+	78	verb	phrase	3	12	match	doit	3	1	y	0.79228
745.6881999999999	0.0	DOIT	78	verb	phrase	3	13	match	doit	3	1	y	0.79228
746.5378	0.0	+	78	verb	phrase	3	14	match	doit	3	1	y	0.79228
746.4805	0.0	[response]	78	verb	phrase	3	15	match	doit	3	1	y	0.79228
748.0871	0.0	+	79	verb	list	2	1	nomatch	blanc	-1	1	p	0.80899
748.6369	0.2	bvlgtq	79	verb	list	2	2	nomatch	blanc	-1	1	p	0.80899
748.8367999999999	0.0	+	79	verb	list	2	3	nomatch	blanc	-1	1	p	0.80899
749.2366	0.2	pkq	79	verb	list	2	4	nomatch	blanc	-1	1	p	0.80899
749.4364999999999	0.0	+	79	verb	list	2	5	nomatch	blanc	-1	1	p	0.80899
749.8362999999999	0.2	lj	79	verb	list	2	6	nomatch	blanc	-1	1	p	0.80899
750.0362	0.0	+	79	verb	list	2	7	nomatch	blanc	-1	1	p	0.80899
750.4361	0.2	nouveau	79	verb	list	2	8	nomatch	blanc	-1	1	p	0.80899
750.636	0.0	+	79	verb	list	2	9	nomatch	blanc	-1	1	p	0.80899
751.0358	0.2	chasser	79	verb	list	2	10	nomatch	blanc	-1	1	p	0.80899
751.2357	0.0	+	79	verb	list	2	11	nomatch	blanc	-1	1	p	0.80899
751.6355	0.0	+	79	verb	list	2	12	nomatch	blanc	-1	1	p	0.80899
753.6346	0.0	BLANC	79	verb	list	2	13	nomatch	blanc	-1	1	p	0.80899
754.5009	0.0	+	79	verb	list	2	14	nomatch	blanc	-1	1	p	0.80899
754.4436	0.0	[response]	79	verb	list	2	15	nomatch	blanc	-1	1	p	0.80899
756.0336	0.0	+	80	verb	phrase	4	1	nomatch	tard	-1	1	p	0.7485900000000001
756.5999999999999	0.2	gsknhql	80	verb	phrase	4	2	nomatch	tard	-1	1	p	0.7485900000000001
756.7999	0.0	+	80	verb	phrase	4	3	nomatch	tard	-1	1	p	0.7485900000000001
757.1997	0.2	jade	80	verb	phrase	4	4	nomatch	tard	-1	1	p	0.7485900000000001
757.3996	0.0	+	80	verb	phrase	4	5	nomatch	tard	-1	1	p	0.7485900000000001
757.7994	0.2	va	80	verb	phrase	4	6	nomatch	tard	-1	1	p	0.7485900000000001
757.9993	0.0	+	80	verb	phrase	4	7	nomatch	tard	-1	1	p	0.7485900000000001
758.3992	0.2	mieux	80	verb	phrase	4	8	nomatch	tard	-1	1	p	0.7485900000000001
758.5990999999999	0.0	+	80	verb	phrase	4	9	nomatch	tard	-1	1	p	0.7485900000000001
758.9988999999999	0.2	rouler	80	verb	phrase	4	10	nomatch	tard	-1	1	p	0.7485900000000001
759.1988	0.0	+	80	verb	phrase	4	11	nomatch	tard	-1	1	p	0.7485900000000001
759.5985999999999	0.0	+	80	verb	phrase	4	12	nomatch	tard	-1	1	p	0.7485900000000001
761.5980999999999	0.0	TARD	80	verb	phrase	4	13	nomatch	tard	-1	1	p	0.7485900000000001
762.414	0.0	+	80	verb	phrase	4	14	nomatch	tard	-1	1	p	0.7485900000000001
763.9966999999999	0.0	+	80	verb	phrase	4	15	nomatch	tard	-1	1	p	0.7485900000000001
765.0129	0.0	+	80	verb	phrase	4	16	nomatch	tard	-1	1	p	0.7485900000000001
765.1128	0.0	+	80	verb	phrase	4	17	nomatch	tard	-1	1	p	0.7485900000000001
766.5122	0.0	+	80	verb	phrase	4	18	nomatch	tard	-1	1	p	0.7485900000000001
766.6121999999999	0.0	+	80	verb	phrase	4	19	nomatch	tard	-1	1	p	0.7485900000000001
768.0115	0.0	+	80	verb	phrase	4	20	nomatch	tard	-1	1	p	0.7485900000000001
768.1115	0.0	+	80	verb	phrase	4	21	nomatch	tard	-1	1	p	0.7485900000000001
769.5109	0.0	+	80	verb	phrase	4	22	nomatch	tard	-1	1	p	0.7485900000000001
769.6107999999999	0.0	+	80	verb	phrase	4	23	nomatch	tard	-1	1	p	0.7485900000000001
771.0101999999999	0.0	+	80	verb	phrase	4	24	nomatch	tard	-1	1	p	0.7485900000000001
771.1102	0.0	+	80	verb	phrase	4	25	nomatch	tard	-1	1	p	0.7485900000000001
772.5095	0.0	+	80	verb	phrase	4	26	nomatch	tard	-1	1	p	0.7485900000000001
772.6094999999999	0.0	+	80	verb	phrase	4	27	nomatch	tard	-1	1	p	0.7485900000000001
774.0088999999999	0.0	+	80	verb	phrase	4	28	nomatch	tard	-1	1	p	0.7485900000000001
774.1088	0.0	+	80	verb	phrase	4	29	nomatch	tard	-1	1	p	0.7485900000000001
774.5252999999999	0.0	+	80	verb	phrase	4	30	nomatch	tard	-1	1	p	0.7485900000000001
762.3466999999999	0.0	[response]	80	verb	phrase	4	31	nomatch	tard	-1	1	p	0.7485900000000001
