onset	duration	stim	trial_number	trial_type	trial_structure	trial_length	sequential_position	probe_type	probe	probe_position	response_correct	response_key	response_time
0.06460000000000576	0.0	+	1	noun	phrase	4	1	nomatch	yves	-1	1	p	0.66055
0.5477000000000061	0.2	swpnl	1	noun	phrase	4	2	nomatch	yves	-1	1	p	0.66055
0.7476000000000056	0.0	+	1	noun	phrase	4	3	nomatch	yves	-1	1	p	0.66055
1.1475000000000009	0.2	avec	1	noun	phrase	4	4	nomatch	yves	-1	1	p	0.66055
1.3474000000000004	0.0	+	1	noun	phrase	4	5	nomatch	yves	-1	1	p	0.66055
1.7472000000000065	0.2	leur	1	noun	phrase	4	6	nomatch	yves	-1	1	p	0.66055
1.947100000000006	0.0	+	1	noun	phrase	4	7	nomatch	yves	-1	1	p	0.66055
2.346900000000005	0.2	grand	1	noun	phrase	4	8	nomatch	yves	-1	1	p	0.66055
2.5468000000000046	0.0	+	1	noun	phrase	4	9	nomatch	yves	-1	1	p	0.66055
2.9467	0.2	sablier	1	noun	phrase	4	10	nomatch	yves	-1	1	p	0.66055
3.1466000000000065	0.0	+	1	noun	phrase	4	11	nomatch	yves	-1	1	p	0.66055
3.5464000000000055	0.0	+	1	noun	phrase	4	12	nomatch	yves	-1	1	p	0.66055
5.545500000000004	0.0	YVES	1	noun	phrase	4	13	nomatch	yves	-1	1	p	0.66055
6.261800000000001	0.0	+	1	noun	phrase	4	14	nomatch	yves	-1	1	p	0.66055
6.2061000000000135	0.0	[response]	1	noun	phrase	4	15	nomatch	yves	-1	1	p	0.66055
7.944400000000002	0.0	+	2	noun	phrase	3	1	match	son	3	1	y	0.59318
8.494200000000006	0.2	zhx	2	noun	phrase	3	2	match	son	3	1	y	0.59318
8.694100000000006	0.0	+	2	noun	phrase	3	3	match	son	3	1	y	0.59318
9.093900000000005	0.2	rflt	2	noun	phrase	3	4	match	son	3	1	y	0.59318
9.293800000000005	0.0	+	2	noun	phrase	3	5	match	son	3	1	y	0.59318
9.693600000000004	0.2	son	2	noun	phrase	3	6	match	son	3	1	y	0.59318
9.893500000000003	0.0	+	2	noun	phrase	3	7	match	son	3	1	y	0.59318
10.293400000000005	0.2	petit	2	noun	phrase	3	8	match	son	3	1	y	0.59318
10.493300000000005	0.0	+	2	noun	phrase	3	9	match	son	3	1	y	0.59318
10.893100000000004	0.2	voilier	2	noun	phrase	3	10	match	son	3	1	y	0.59318
11.093000000000004	0.0	+	2	noun	phrase	3	11	match	son	3	1	y	0.59318
11.492800000000003	0.0	+	2	noun	phrase	3	12	match	son	3	1	y	0.59318
13.492000000000004	0.0	SON	2	noun	phrase	3	13	match	son	3	1	y	0.59318
14.141599999999997	0.0	+	2	noun	phrase	3	14	match	son	3	1	y	0.59318
14.085099999999997	0.0	[response]	2	noun	phrase	3	15	match	son	3	1	y	0.59318
15.890900000000002	0.0	+	3	noun	phrase	1	1	match	tablier	5	1	y	0.56003
16.440600000000003	0.2	mdcnbq	3	noun	phrase	1	2	match	tablier	5	1	y	0.56003
16.640500000000003	0.0	+	3	noun	phrase	1	3	match	tablier	5	1	y	0.56003
17.040400000000005	0.2	pkq	3	noun	phrase	1	4	match	tablier	5	1	y	0.56003
17.240300000000005	0.0	+	3	noun	phrase	1	5	match	tablier	5	1	y	0.56003
17.640100000000004	0.2	fpmt	3	noun	phrase	1	6	match	tablier	5	1	y	0.56003
17.840000000000003	0.0	+	3	noun	phrase	1	7	match	tablier	5	1	y	0.56003
18.239800000000002	0.2	fpjc	3	noun	phrase	1	8	match	tablier	5	1	y	0.56003
18.439700000000002	0.0	+	3	noun	phrase	1	9	match	tablier	5	1	y	0.56003
18.839600000000004	0.2	tablier	3	noun	phrase	1	10	match	tablier	5	1	y	0.56003
19.039500000000004	0.0	+	3	noun	phrase	1	11	match	tablier	5	1	y	0.56003
19.439300000000003	0.0	+	3	noun	phrase	1	12	match	tablier	5	1	y	0.56003
21.4384	0.0	TABLIER	3	noun	phrase	1	13	match	tablier	5	1	y	0.56003
22.0548	0.0	+	3	noun	phrase	1	14	match	tablier	5	1	y	0.56003
21.998400000000004	0.0	[response]	3	noun	phrase	1	15	match	tablier	5	1	y	0.56003
23.8373	0.0	+	4	verb	phrase	2	1	nomatch	peut	-1	1	p	0.71875
24.387100000000004	0.2	sbzc	4	verb	phrase	2	2	nomatch	peut	-1	1	p	0.71875
24.587000000000003	0.0	+	4	verb	phrase	2	3	nomatch	peut	-1	1	p	0.71875
24.986800000000002	0.2	gjnb	4	verb	phrase	2	4	nomatch	peut	-1	1	p	0.71875
25.186700000000002	0.0	+	4	verb	phrase	2	5	nomatch	peut	-1	1	p	0.71875
25.5865	0.2	mvbw	4	verb	phrase	2	6	nomatch	peut	-1	1	p	0.71875
25.786500000000004	0.0	+	4	verb	phrase	2	7	nomatch	peut	-1	1	p	0.71875
26.186300000000003	0.2	moins	4	verb	phrase	2	8	nomatch	peut	-1	1	p	0.71875
26.386200000000002	0.0	+	4	verb	phrase	2	9	nomatch	peut	-1	1	p	0.71875
26.786	0.2	jongler	4	verb	phrase	2	10	nomatch	peut	-1	1	p	0.71875
26.9859	0.0	+	4	verb	phrase	2	11	nomatch	peut	-1	1	p	0.71875
27.385800000000003	0.0	+	4	verb	phrase	2	12	nomatch	peut	-1	1	p	0.71875
29.384900000000002	0.0	PEUT	4	verb	phrase	2	13	nomatch	peut	-1	1	p	0.71875
30.1678	0.0	+	4	verb	phrase	2	14	nomatch	peut	-1	1	p	0.71875
30.1036	0.0	[response]	4	verb	phrase	2	15	nomatch	peut	-1	1	p	0.71875
31.7838	0.0	+	5	noun	phrase	1	1	match	panier	5	1	y	0.46753
32.3338	0.2	hrjg	5	noun	phrase	1	2	match	panier	5	1	y	0.46753
32.5501	0.0	+	5	noun	phrase	1	3	match	panier	5	1	y	0.46753
32.9499	0.2	rflt	5	noun	phrase	1	4	match	panier	5	1	y	0.46753
33.1498	0.0	+	5	noun	phrase	1	5	match	panier	5	1	y	0.46753
33.5497	0.2	fpmt	5	noun	phrase	1	6	match	panier	5	1	y	0.46753
33.7496	0.0	+	5	noun	phrase	1	7	match	panier	5	1	y	0.46753
34.1494	0.2	jcfb	5	noun	phrase	1	8	match	panier	5	1	y	0.46753
34.3493	0.0	+	5	noun	phrase	1	9	match	panier	5	1	y	0.46753
34.7491	0.2	panier	5	noun	phrase	1	10	match	panier	5	1	y	0.46753
34.949	0.0	+	5	noun	phrase	1	11	match	panier	5	1	y	0.46753
35.3489	0.0	+	5	noun	phrase	1	12	match	panier	5	1	y	0.46753
37.348	0.0	PANIER	5	noun	phrase	1	13	match	panier	5	1	y	0.46753
37.8811	0.0	+	5	noun	phrase	1	14	match	panier	5	1	y	0.46753
37.8155	0.0	[response]	5	noun	phrase	1	15	match	panier	5	1	y	0.46753
39.7469	0.0	+	6	noun	phrase	3	1	match	casier	4	1	y	1.1046000000000002
40.2966	0.2	vzf	6	noun	phrase	3	2	match	casier	4	1	y	1.1046000000000002
40.4966	0.0	+	6	noun	phrase	3	3	match	casier	4	1	y	1.1046000000000002
40.8964	0.2	lnjp	6	noun	phrase	3	4	match	casier	4	1	y	1.1046000000000002
41.0963	0.0	+	6	noun	phrase	3	5	match	casier	4	1	y	1.1046000000000002
41.4961	0.2	mon	6	noun	phrase	3	6	match	casier	4	1	y	1.1046000000000002
41.696	0.0	+	6	noun	phrase	3	7	match	casier	4	1	y	1.1046000000000002
42.0959	0.2	casier	6	noun	phrase	3	8	match	casier	4	1	y	1.1046000000000002
42.2958	0.0	+	6	noun	phrase	3	9	match	casier	4	1	y	1.1046000000000002
42.6956	0.2	blanc	6	noun	phrase	3	10	match	casier	4	1	y	1.1046000000000002
42.8955	0.0	+	6	noun	phrase	3	11	match	casier	4	1	y	1.1046000000000002
43.2953	0.0	+	6	noun	phrase	3	12	match	casier	4	1	y	1.1046000000000002
45.29440000000001	0.0	CASIER	6	noun	phrase	3	13	match	casier	4	1	y	1.1046000000000002
46.4606	0.0	+	6	noun	phrase	3	14	match	casier	4	1	y	1.1046000000000002
46.399	0.0	[response]	6	noun	phrase	3	15	match	casier	4	1	y	1.1046000000000002
47.69330000000001	0.0	+	7	noun	phrase	4	1	match	leur	3	1	y	0.84113
48.2431	0.2	vslh	7	noun	phrase	4	2	match	leur	3	1	y	0.84113
48.443	0.0	+	7	noun	phrase	4	3	match	leur	3	1	y	0.84113
48.8428	0.2	dans	7	noun	phrase	4	4	match	leur	3	1	y	0.84113
49.042699999999996	0.0	+	7	noun	phrase	4	5	match	leur	3	1	y	0.84113
49.4426	0.2	leur	7	noun	phrase	4	6	match	leur	3	1	y	0.84113
49.6425	0.0	+	7	noun	phrase	4	7	match	leur	3	1	y	0.84113
50.0423	0.2	panier	7	noun	phrase	4	8	match	leur	3	1	y	0.84113
50.2422	0.0	+	7	noun	phrase	4	9	match	leur	3	1	y	0.84113
50.64200000000001	0.2	bleu	7	noun	phrase	4	10	match	leur	3	1	y	0.84113
50.84190000000001	0.0	+	7	noun	phrase	4	11	match	leur	3	1	y	0.84113
51.2418	0.0	+	7	noun	phrase	4	12	match	leur	3	1	y	0.84113
53.240899999999996	0.0	LEUR	7	noun	phrase	4	13	match	leur	3	1	y	0.84113
54.1405	0.0	+	7	noun	phrase	4	14	match	leur	3	1	y	0.84113
54.08200000000001	0.0	[response]	7	noun	phrase	4	15	match	leur	3	1	y	0.84113
55.63980000000001	0.0	+	8	noun	list	4	1	nomatch	plus	-1	1	p	0.82475
56.18950000000001	0.2	tdjxpvg	8	noun	list	4	2	nomatch	plus	-1	1	p	0.82475
56.3895	0.0	+	8	noun	list	4	3	nomatch	plus	-1	1	p	0.82475
56.7893	0.2	sur	8	noun	list	4	4	nomatch	plus	-1	1	p	0.82475
56.9892	0.0	+	8	noun	list	4	5	nomatch	plus	-1	1	p	0.82475
57.38900000000001	0.2	doit	8	noun	list	4	6	nomatch	plus	-1	1	p	0.82475
57.58890000000001	0.0	+	8	noun	list	4	7	nomatch	plus	-1	1	p	0.82475
57.9888	0.2	clavier	8	noun	list	4	8	nomatch	plus	-1	1	p	0.82475
58.1887	0.0	+	8	noun	list	4	9	nomatch	plus	-1	1	p	0.82475
58.58850000000001	0.2	loin	8	noun	list	4	10	nomatch	plus	-1	1	p	0.82475
58.78840000000001	0.0	+	8	noun	list	4	11	nomatch	plus	-1	1	p	0.82475
59.18820000000001	0.0	+	8	noun	list	4	12	nomatch	plus	-1	1	p	0.82475
61.18730000000001	0.0	PLUS	8	noun	list	4	13	nomatch	plus	-1	1	p	0.82475
62.0702	0.0	+	8	noun	list	4	14	nomatch	plus	-1	1	p	0.82475
62.01210000000002	0.0	[response]	8	noun	list	4	15	nomatch	plus	-1	1	p	0.82475
63.586200000000005	0.0	+	9	noun	list	4	1	nomatch	va	-1	1	p	0.85715
64.13600000000001	0.2	zctmgf	9	noun	list	4	2	nomatch	va	-1	1	p	0.85715
64.33590000000001	0.0	+	9	noun	list	4	3	nomatch	va	-1	1	p	0.85715
64.73570000000001	0.2	sous	9	noun	list	4	4	nomatch	va	-1	1	p	0.85715
64.93560000000001	0.0	+	9	noun	list	4	5	nomatch	va	-1	1	p	0.85715
65.33550000000001	0.2	peut	9	noun	list	4	6	nomatch	va	-1	1	p	0.85715
65.53540000000001	0.0	+	9	noun	list	4	7	nomatch	va	-1	1	p	0.85715
65.93520000000001	0.2	sablier	9	noun	list	4	8	nomatch	va	-1	1	p	0.85715
66.13510000000001	0.0	+	9	noun	list	4	9	nomatch	va	-1	1	p	0.85715
66.53490000000001	0.2	ainsi	9	noun	list	4	10	nomatch	va	-1	1	p	0.85715
66.7348	0.0	+	9	noun	list	4	11	nomatch	va	-1	1	p	0.85715
67.13470000000001	0.0	+	9	noun	list	4	12	nomatch	va	-1	1	p	0.85715
69.13380000000001	0.0	VA	9	noun	list	4	13	nomatch	va	-1	1	p	0.85715
70.05	0.0	+	9	noun	list	4	14	nomatch	va	-1	1	p	0.85715
69.9909	0.0	[response]	9	noun	list	4	15	nomatch	va	-1	1	p	0.85715
79.54580000000001	0.0	+	10	noun	list	1	1	nomatch	vite	-1	1	p	0.83235
80.09550000000002	0.2	rmph	10	noun	list	1	2	nomatch	vite	-1	1	p	0.83235
80.2955	0.0	+	10	noun	list	1	3	nomatch	vite	-1	1	p	0.83235
80.6953	0.2	rflt	10	noun	list	1	4	nomatch	vite	-1	1	p	0.83235
80.89520000000002	0.0	+	10	noun	list	1	5	nomatch	vite	-1	1	p	0.83235
81.29500000000002	0.2	mvbw	10	noun	list	1	6	nomatch	vite	-1	1	p	0.83235
81.4949	0.0	+	10	noun	list	1	7	nomatch	vite	-1	1	p	0.83235
81.8947	0.2	fgntdsl	10	noun	list	1	8	nomatch	vite	-1	1	p	0.83235
82.09460000000001	0.0	+	10	noun	list	1	9	nomatch	vite	-1	1	p	0.83235
82.49450000000002	0.2	tard	10	noun	list	1	10	nomatch	vite	-1	1	p	0.83235
82.6944	0.0	+	10	noun	list	1	11	nomatch	vite	-1	1	p	0.83235
83.0942	0.0	+	10	noun	list	1	12	nomatch	vite	-1	1	p	0.83235
85.0933	0.0	VITE	10	noun	list	1	13	nomatch	vite	-1	1	p	0.83235
85.99289999999999	0.0	+	10	noun	list	1	14	nomatch	vite	-1	1	p	0.83235
85.9257	0.0	[response]	10	noun	list	1	15	nomatch	vite	-1	1	p	0.83235
87.4922	0.0	+	11	noun	phrase	1	1	match	beau	5	1	y	0.51473
88.042	0.2	wvztngf	11	noun	phrase	1	2	match	beau	5	1	y	0.51473
88.24190000000002	0.0	+	11	noun	phrase	1	3	match	beau	5	1	y	0.51473
88.64170000000001	0.2	lnjp	11	noun	phrase	1	4	match	beau	5	1	y	0.51473
88.8416	0.0	+	11	noun	phrase	1	5	match	beau	5	1	y	0.51473
89.2415	0.2	fpmt	11	noun	phrase	1	6	match	beau	5	1	y	0.51473
89.44140000000002	0.0	+	11	noun	phrase	1	7	match	beau	5	1	y	0.51473
89.84120000000001	0.2	xflzwk	11	noun	phrase	1	8	match	beau	5	1	y	0.51473
90.0411	0.0	+	11	noun	phrase	1	9	match	beau	5	1	y	0.51473
90.4409	0.2	beau	11	noun	phrase	1	10	match	beau	5	1	y	0.51473
90.64080000000001	0.0	+	11	noun	phrase	1	11	match	beau	5	1	y	0.51473
91.04070000000002	0.0	+	11	noun	phrase	1	12	match	beau	5	1	y	0.51473
93.03980000000001	0.0	BEAU	11	noun	phrase	1	13	match	beau	5	1	y	0.51473
93.6062	0.0	+	11	noun	phrase	1	14	match	beau	5	1	y	0.51473
93.55450000000002	0.0	[response]	11	noun	phrase	1	15	match	beau	5	1	y	0.51473
95.43870000000001	0.0	+	12	noun	phrase	4	1	match	rocher	4	1	y	0.67973
95.98850000000002	0.2	gczqx	12	noun	phrase	4	2	match	rocher	4	1	y	0.67973
96.1884	0.0	+	12	noun	phrase	4	3	match	rocher	4	1	y	0.67973
96.5882	0.2	dans	12	noun	phrase	4	4	match	rocher	4	1	y	0.67973
96.78810000000001	0.0	+	12	noun	phrase	4	5	match	rocher	4	1	y	0.67973
97.18790000000001	0.2	mon	12	noun	phrase	4	6	match	rocher	4	1	y	0.67973
97.3878	0.0	+	12	noun	phrase	4	7	match	rocher	4	1	y	0.67973
97.7876	0.2	rocher	12	noun	phrase	4	8	match	rocher	4	1	y	0.67973
97.98760000000001	0.0	+	12	noun	phrase	4	9	match	rocher	4	1	y	0.67973
98.38740000000001	0.2	blanc	12	noun	phrase	4	10	match	rocher	4	1	y	0.67973
98.5873	0.0	+	12	noun	phrase	4	11	match	rocher	4	1	y	0.67973
98.9878	0.0	+	12	noun	phrase	4	12	match	rocher	4	1	y	0.67973
100.9862	0.0	ROCHER	12	noun	phrase	4	13	match	rocher	4	1	y	0.67973
101.7192	0.0	+	12	noun	phrase	4	14	match	rocher	4	1	y	0.67973
101.6659	0.0	[response]	12	noun	phrase	4	15	match	rocher	4	1	y	0.67973
111.3982	0.0	+	13	noun	list	1	1	nomatch	tôt	-1	1	p	0.65863
111.94800000000001	0.2	nwpkx	13	noun	list	1	2	nomatch	tôt	-1	1	p	0.65863
112.14789999999999	0.0	+	13	noun	list	1	3	nomatch	tôt	-1	1	p	0.65863
112.54769999999999	0.2	rflt	13	noun	list	1	4	nomatch	tôt	-1	1	p	0.65863
112.7476	0.0	+	13	noun	list	1	5	nomatch	tôt	-1	1	p	0.65863
113.14750000000001	0.2	lj	13	noun	list	1	6	nomatch	tôt	-1	1	p	0.65863
113.3474	0.0	+	13	noun	list	1	7	nomatch	tôt	-1	1	p	0.65863
113.74719999999999	0.2	grdlthc	13	noun	list	1	8	nomatch	tôt	-1	1	p	0.65863
113.9471	0.0	+	13	noun	list	1	9	nomatch	tôt	-1	1	p	0.65863
114.3469	0.2	ainsi	13	noun	list	1	10	nomatch	tôt	-1	1	p	0.65863
114.54679999999999	0.0	+	13	noun	list	1	11	nomatch	tôt	-1	1	p	0.65863
114.94669999999999	0.0	+	13	noun	list	1	12	nomatch	tôt	-1	1	p	0.65863
116.94579999999999	0.0	TÔT	13	noun	list	1	13	nomatch	tôt	-1	1	p	0.65863
117.66210000000001	0.0	+	13	noun	list	1	14	nomatch	tôt	-1	1	p	0.65863
117.6044	0.0	[response]	13	noun	list	1	15	nomatch	tôt	-1	1	p	0.65863
119.34470000000002	0.0	+	14	noun	list	1	1	nomatch	rocher	-1	1	p	0.63166
119.89439999999999	0.2	swg	14	noun	list	1	2	nomatch	rocher	-1	1	p	0.63166
120.0943	0.0	+	14	noun	list	1	3	nomatch	rocher	-1	1	p	0.63166
120.4942	0.2	lnjp	14	noun	list	1	4	nomatch	rocher	-1	1	p	0.63166
120.69409999999999	0.0	+	14	noun	list	1	5	nomatch	rocher	-1	1	p	0.63166
121.09389999999999	0.2	mvbw	14	noun	list	1	6	nomatch	rocher	-1	1	p	0.63166
121.2938	0.0	+	14	noun	list	1	7	nomatch	rocher	-1	1	p	0.63166
121.6936	0.2	sqtw	14	noun	list	1	8	nomatch	rocher	-1	1	p	0.63166
121.89359999999999	0.0	+	14	noun	list	1	9	nomatch	rocher	-1	1	p	0.63166
122.29339999999999	0.2	tablier	14	noun	list	1	10	nomatch	rocher	-1	1	p	0.63166
122.4933	0.0	+	14	noun	list	1	11	nomatch	rocher	-1	1	p	0.63166
122.8931	0.0	+	14	noun	list	1	12	nomatch	rocher	-1	1	p	0.63166
124.8922	0.0	ROCHER	14	noun	list	1	13	nomatch	rocher	-1	1	p	0.63166
125.5752	0.0	+	14	noun	list	1	14	nomatch	rocher	-1	1	p	0.63166
125.5239	0.0	[response]	14	noun	list	1	15	nomatch	rocher	-1	1	p	0.63166
127.2911	0.0	+	15	verb	phrase	2	1	match	rouler	4	1	y	1.3852
127.8409	0.2	cxtm	15	verb	phrase	2	2	match	rouler	4	1	y	1.3852
128.0408	0.0	+	15	verb	phrase	2	3	match	rouler	4	1	y	1.3852
128.4406	0.2	jhvb	15	verb	phrase	2	4	match	rouler	4	1	y	1.3852
128.6405	0.0	+	15	verb	phrase	2	5	match	rouler	4	1	y	1.3852
129.0403	0.2	nblj	15	verb	phrase	2	6	match	rouler	4	1	y	1.3852
129.2403	0.0	+	15	verb	phrase	2	7	match	rouler	4	1	y	1.3852
129.6401	0.2	rouler	15	verb	phrase	2	8	match	rouler	4	1	y	1.3852
129.84	0.0	+	15	verb	phrase	2	9	match	rouler	4	1	y	1.3852
130.2398	0.2	tôt	15	verb	phrase	2	10	match	rouler	4	1	y	1.3852
130.43970000000002	0.0	+	15	verb	phrase	2	11	match	rouler	4	1	y	1.3852
130.83950000000002	0.0	+	15	verb	phrase	2	12	match	rouler	4	1	y	1.3852
132.83870000000002	0.0	ROULER	15	verb	phrase	2	13	match	rouler	4	1	y	1.3852
134.288	0.0	+	15	verb	phrase	2	14	match	rouler	4	1	y	1.3852
134.22390000000004	0.0	[response]	15	verb	phrase	2	15	match	rouler	4	1	y	1.3852
143.234	0.0	+	16	noun	phrase	2	1	match	tablier	4	1	y	0.77442
143.7838	0.2	hbjdzv	16	noun	phrase	2	2	match	tablier	4	1	y	0.77442
143.9837	0.0	+	16	noun	phrase	2	3	match	tablier	4	1	y	0.77442
144.3836	0.2	wpsh	16	noun	phrase	2	4	match	tablier	4	1	y	0.77442
144.6001	0.0	+	16	noun	phrase	2	5	match	tablier	4	1	y	0.77442
144.9999	0.2	fpmt	16	noun	phrase	2	6	match	tablier	4	1	y	0.77442
145.1998	0.0	+	16	noun	phrase	2	7	match	tablier	4	1	y	0.77442
145.5996	0.2	tablier	16	noun	phrase	2	8	match	tablier	4	1	y	0.77442
145.7995	0.0	+	16	noun	phrase	2	9	match	tablier	4	1	y	0.77442
146.1994	0.2	noir	16	noun	phrase	2	10	match	tablier	4	1	y	0.77442
146.3993	0.0	+	16	noun	phrase	2	11	match	tablier	4	1	y	0.77442
146.7991	0.0	+	16	noun	phrase	2	12	match	tablier	4	1	y	0.77442
148.7982	0.0	TABLIER	16	noun	phrase	2	13	match	tablier	4	1	y	0.77442
149.6312	0.0	+	16	noun	phrase	2	14	match	tablier	4	1	y	0.77442
149.5726	0.0	[response]	16	noun	phrase	2	15	match	tablier	4	1	y	0.77442
159.1936	0.0	+	17	noun	phrase	1	1	match	vieux	5	1	y	0.64339
159.7433	0.2	xcmjt	17	noun	phrase	1	2	match	vieux	5	1	y	0.64339
159.9432	0.0	+	17	noun	phrase	1	3	match	vieux	5	1	y	0.64339
160.3431	0.2	pklg	17	noun	phrase	1	4	match	vieux	5	1	y	0.64339
160.5432	0.0	+	17	noun	phrase	1	5	match	vieux	5	1	y	0.64339
160.9428	0.2	kmc	17	noun	phrase	1	6	match	vieux	5	1	y	0.64339
161.1427	0.0	+	17	noun	phrase	1	7	match	vieux	5	1	y	0.64339
161.5425	0.2	pmvscfnj	17	noun	phrase	1	8	match	vieux	5	1	y	0.64339
161.7424	0.0	+	17	noun	phrase	1	9	match	vieux	5	1	y	0.64339
162.1422	0.2	vieux	17	noun	phrase	1	10	match	vieux	5	1	y	0.64339
162.3422	0.0	+	17	noun	phrase	1	11	match	vieux	5	1	y	0.64339
162.742	0.0	+	17	noun	phrase	1	12	match	vieux	5	1	y	0.64339
164.74110000000002	0.0	VIEUX	17	noun	phrase	1	13	match	vieux	5	1	y	0.64339
165.4408	0.0	+	17	noun	phrase	1	14	match	vieux	5	1	y	0.64339
165.3845	0.0	[response]	17	noun	phrase	1	15	match	vieux	5	1	y	0.64339
167.14000000000001	0.0	+	18	noun	list	1	1	match	clavier	5	1	y	0.72161
167.6898	0.2	xlgtcvs	18	noun	list	1	2	match	clavier	5	1	y	0.72161
167.8897	0.0	+	18	noun	list	1	3	match	clavier	5	1	y	0.72161
168.2895	0.2	rflt	18	noun	list	1	4	match	clavier	5	1	y	0.72161
168.48940000000002	0.0	+	18	noun	list	1	5	match	clavier	5	1	y	0.72161
168.88920000000002	0.2	nblj	18	noun	list	1	6	match	clavier	5	1	y	0.72161
169.0891	0.0	+	18	noun	list	1	7	match	clavier	5	1	y	0.72161
169.489	0.2	nzdps	18	noun	list	1	8	match	clavier	5	1	y	0.72161
169.6889	0.0	+	18	noun	list	1	9	match	clavier	5	1	y	0.72161
170.08870000000002	0.2	clavier	18	noun	list	1	10	match	clavier	5	1	y	0.72161
170.2886	0.0	+	18	noun	list	1	11	match	clavier	5	1	y	0.72161
170.6884	0.0	+	18	noun	list	1	12	match	clavier	5	1	y	0.72161
172.6875	0.0	CLAVIER	18	noun	list	1	13	match	clavier	5	1	y	0.72161
173.47050000000002	0.0	+	18	noun	list	1	14	match	clavier	5	1	y	0.72161
173.40910000000002	0.0	[response]	18	noun	list	1	15	match	clavier	5	1	y	0.72161
175.0865	0.0	+	19	noun	list	4	1	nomatch	loin	-1	1	p	1.0965
175.6362	0.2	vqzhmdt	19	noun	list	4	2	nomatch	loin	-1	1	p	1.0965
175.83610000000002	0.0	+	19	noun	list	4	3	nomatch	loin	-1	1	p	1.0965
176.23590000000002	0.2	sur	19	noun	list	4	4	nomatch	loin	-1	1	p	1.0965
176.4359	0.0	+	19	noun	list	4	5	nomatch	loin	-1	1	p	1.0965
176.8357	0.2	doit	19	noun	list	4	6	nomatch	loin	-1	1	p	1.0965
177.03560000000002	0.0	+	19	noun	list	4	7	nomatch	loin	-1	1	p	1.0965
177.43540000000002	0.2	casier	19	noun	list	4	8	nomatch	loin	-1	1	p	1.0965
177.6353	0.0	+	19	noun	list	4	9	nomatch	loin	-1	1	p	1.0965
178.0352	0.2	vite	19	noun	list	4	10	nomatch	loin	-1	1	p	1.0965
178.23510000000002	0.0	+	19	noun	list	4	11	nomatch	loin	-1	1	p	1.0965
178.63490000000002	0.0	+	19	noun	list	4	12	nomatch	loin	-1	1	p	1.0965
180.63400000000001	0.0	LOIN	19	noun	list	4	13	nomatch	loin	-1	1	p	1.0965
181.7835	0.0	+	19	noun	list	4	14	nomatch	loin	-1	1	p	1.0965
181.7305	0.0	[response]	19	noun	list	4	15	nomatch	loin	-1	1	p	1.0965
199.04240000000001	0.0	+	20	noun	list	3	1	nomatch	rouler	-1	1	p	0.7998
199.5922	0.2	hlscdqt	20	noun	list	3	2	nomatch	rouler	-1	1	p	0.7998
199.7921	0.0	+	20	noun	list	3	3	nomatch	rouler	-1	1	p	0.7998
200.1919	0.2	jhvb	20	noun	list	3	4	nomatch	rouler	-1	1	p	0.7998
200.3918	0.0	+	20	noun	list	3	5	nomatch	rouler	-1	1	p	0.7998
200.7917	0.2	mon	20	noun	list	3	6	nomatch	rouler	-1	1	p	0.7998
200.9916	0.0	+	20	noun	list	3	7	nomatch	rouler	-1	1	p	0.7998
201.3914	0.2	mieux	20	noun	list	3	8	nomatch	rouler	-1	1	p	0.7998
201.5913	0.0	+	20	noun	list	3	9	nomatch	rouler	-1	1	p	0.7998
201.99110000000002	0.2	cendrier	20	noun	list	3	10	nomatch	rouler	-1	1	p	0.7998
202.191	0.0	+	20	noun	list	3	11	nomatch	rouler	-1	1	p	0.7998
202.5909	0.0	+	20	noun	list	3	12	nomatch	rouler	-1	1	p	0.7998
204.59	0.0	ROULER	20	noun	list	3	13	nomatch	rouler	-1	1	p	0.7998
205.4562	0.0	+	20	noun	list	3	14	nomatch	rouler	-1	1	p	0.7998
205.3898	0.0	[response]	20	noun	list	3	15	nomatch	rouler	-1	1	p	0.7998
214.98530000000002	0.0	+	21	verb	phrase	4	1	nomatch	doit	-1	1	p	0.96616
215.53510000000003	0.2	mkf	21	verb	phrase	4	2	nomatch	doit	-1	1	p	0.96616
215.73499999999999	0.0	+	21	verb	phrase	4	3	nomatch	doit	-1	1	p	0.96616
216.1348	0.2	adam	21	verb	phrase	4	4	nomatch	doit	-1	1	p	0.96616
216.33470000000003	0.0	+	21	verb	phrase	4	5	nomatch	doit	-1	1	p	0.96616
216.7345	0.2	peut	21	verb	phrase	4	6	nomatch	doit	-1	1	p	0.96616
216.9344	0.0	+	21	verb	phrase	4	7	nomatch	doit	-1	1	p	0.96616
217.3343	0.2	galoper	21	verb	phrase	4	8	nomatch	doit	-1	1	p	0.96616
217.53420000000003	0.0	+	21	verb	phrase	4	9	nomatch	doit	-1	1	p	0.96616
217.934	0.2	vite	21	verb	phrase	4	10	nomatch	doit	-1	1	p	0.96616
218.1339	0.0	+	21	verb	phrase	4	11	nomatch	doit	-1	1	p	0.96616
218.53369999999998	0.0	+	21	verb	phrase	4	12	nomatch	doit	-1	1	p	0.96616
220.5495	0.0	DOIT	21	verb	phrase	4	13	nomatch	doit	-1	1	p	0.96616
221.58239999999998	0.0	+	21	verb	phrase	4	14	nomatch	doit	-1	1	p	0.96616
221.51559999999998	0.0	[response]	21	verb	phrase	4	15	nomatch	doit	-1	1	p	0.96616
222.94840000000002	0.0	+	22	noun	list	1	1	nomatch	voilier	-1	1	p	0.68955
223.49820000000003	0.2	gqvf	22	noun	list	1	2	nomatch	voilier	-1	1	p	0.68955
223.69809999999998	0.0	+	22	noun	list	1	3	nomatch	voilier	-1	1	p	0.68955
224.0979	0.2	jhvb	22	noun	list	1	4	nomatch	voilier	-1	1	p	0.68955
224.29780000000002	0.0	+	22	noun	list	1	5	nomatch	voilier	-1	1	p	0.68955
224.69770000000003	0.2	fpmt	22	noun	list	1	6	nomatch	voilier	-1	1	p	0.68955
224.89759999999998	0.0	+	22	noun	list	1	7	nomatch	voilier	-1	1	p	0.68955
225.2974	0.2	xflzwk	22	noun	list	1	8	nomatch	voilier	-1	1	p	0.68955
225.49730000000002	0.0	+	22	noun	list	1	9	nomatch	voilier	-1	1	p	0.68955
225.8971	0.2	trop	22	noun	list	1	10	nomatch	voilier	-1	1	p	0.68955
226.097	0.0	+	22	noun	list	1	11	nomatch	voilier	-1	1	p	0.68955
226.49679999999998	0.0	+	22	noun	list	1	12	nomatch	voilier	-1	1	p	0.68955
228.496	0.0	VOILIER	22	noun	list	1	13	nomatch	voilier	-1	1	p	0.68955
229.2456	0.0	+	22	noun	list	1	14	nomatch	voilier	-1	1	p	0.68955
229.18550000000002	0.0	[response]	22	noun	list	1	15	nomatch	voilier	-1	1	p	0.68955
230.89489999999998	0.0	+	23	verb	phrase	4	1	nomatch	mieux	-1	1	p	2.077
231.4446	0.2	lzd	23	verb	phrase	4	2	nomatch	mieux	-1	1	p	2.077
231.64450000000002	0.0	+	23	verb	phrase	4	3	nomatch	mieux	-1	1	p	2.077
232.04440000000002	0.2	marc	23	verb	phrase	4	4	nomatch	mieux	-1	1	p	2.077
232.24429999999998	0.0	+	23	verb	phrase	4	5	nomatch	mieux	-1	1	p	2.077
232.6441	0.2	va	23	verb	phrase	4	6	nomatch	mieux	-1	1	p	2.077
232.84400000000002	0.0	+	23	verb	phrase	4	7	nomatch	mieux	-1	1	p	2.077
233.2438	0.2	jongler	23	verb	phrase	4	8	nomatch	mieux	-1	1	p	2.077
233.4437	0.0	+	23	verb	phrase	4	9	nomatch	mieux	-1	1	p	2.077
233.8436	0.2	vite	23	verb	phrase	4	10	nomatch	mieux	-1	1	p	2.077
234.04350000000002	0.0	+	23	verb	phrase	4	11	nomatch	mieux	-1	1	p	2.077
234.4433	0.0	+	23	verb	phrase	4	12	nomatch	mieux	-1	1	p	2.077
236.4424	0.0	MIEUX	23	verb	phrase	4	13	nomatch	mieux	-1	1	p	2.077
238.5748	0.0	+	23	verb	phrase	4	14	nomatch	mieux	-1	1	p	2.077
238.5194	0.0	[response]	23	verb	phrase	4	15	nomatch	mieux	-1	1	p	2.077
238.84130000000002	0.0	+	24	noun	list	1	1	match	panier	5	1	y	0.73508
239.39110000000002	0.2	fqdk	24	noun	list	1	2	match	panier	5	1	y	0.73508
239.59099999999998	0.0	+	24	noun	list	1	3	match	panier	5	1	y	0.73508
239.9908	0.2	htzd	24	noun	list	1	4	match	panier	5	1	y	0.73508
240.19070000000002	0.0	+	24	noun	list	1	5	match	panier	5	1	y	0.73508
240.5905	0.2	kmc	24	noun	list	1	6	match	panier	5	1	y	0.73508
240.79049999999998	0.0	+	24	noun	list	1	7	match	panier	5	1	y	0.73508
241.1903	0.2	qdlg	24	noun	list	1	8	match	panier	5	1	y	0.73508
241.39020000000002	0.0	+	24	noun	list	1	9	match	panier	5	1	y	0.73508
241.79	0.2	panier	24	noun	list	1	10	match	panier	5	1	y	0.73508
241.9899	0.0	+	24	noun	list	1	11	match	panier	5	1	y	0.73508
242.3898	0.0	+	24	noun	list	1	12	match	panier	5	1	y	0.73508
244.38880000000003	0.0	PANIER	24	noun	list	1	13	match	panier	5	1	y	0.73508
245.1885	0.0	+	24	noun	list	1	14	match	panier	5	1	y	0.73508
245.12390000000002	0.0	[response]	24	noun	list	1	15	match	panier	5	1	y	0.73508
246.78779999999998	0.0	+	25	noun	phrase	4	1	match	petit	4	1	y	0.87843
247.3375	0.2	fqdt	25	noun	phrase	4	2	match	petit	4	1	y	0.87843
247.53740000000002	0.0	+	25	noun	phrase	4	3	match	petit	4	1	y	0.87843
247.93730000000002	0.2	sous	25	noun	phrase	4	4	match	petit	4	1	y	0.87843
248.13719999999998	0.0	+	25	noun	phrase	4	5	match	petit	4	1	y	0.87843
248.537	0.2	mon	25	noun	phrase	4	6	match	petit	4	1	y	0.87843
248.73690000000002	0.0	+	25	noun	phrase	4	7	match	petit	4	1	y	0.87843
249.1367	0.2	petit	25	noun	phrase	4	8	match	petit	4	1	y	0.87843
249.3366	0.0	+	25	noun	phrase	4	9	match	petit	4	1	y	0.87843
249.7365	0.2	cendrier	25	noun	phrase	4	10	match	petit	4	1	y	0.87843
249.93640000000002	0.0	+	25	noun	phrase	4	11	match	petit	4	1	y	0.87843
250.3362	0.0	+	25	noun	phrase	4	12	match	petit	4	1	y	0.87843
252.3353	0.0	PETIT	25	noun	phrase	4	13	match	petit	4	1	y	0.87843
253.2682	0.0	+	25	noun	phrase	4	14	match	petit	4	1	y	0.87843
253.21370000000005	0.0	[response]	25	noun	phrase	4	15	match	petit	4	1	y	0.87843
254.73420000000002	0.0	+	26	noun	phrase	2	1	nomatch	noir	-1	1	p	0.88172
255.28400000000002	0.2	xvhs	26	noun	phrase	2	2	nomatch	noir	-1	1	p	0.88172
255.48389999999998	0.0	+	26	noun	phrase	2	3	nomatch	noir	-1	1	p	0.88172
255.8837	0.2	rflt	26	noun	phrase	2	4	nomatch	noir	-1	1	p	0.88172
256.08360000000005	0.0	+	26	noun	phrase	2	5	nomatch	noir	-1	1	p	0.88172
256.5001	0.2	fpmt	26	noun	phrase	2	6	nomatch	noir	-1	1	p	0.88172
256.70000000000005	0.0	+	26	noun	phrase	2	7	nomatch	noir	-1	1	p	0.88172
257.09979999999996	0.2	casier	26	noun	phrase	2	8	nomatch	noir	-1	1	p	0.88172
257.2998	0.0	+	26	noun	phrase	2	9	nomatch	noir	-1	1	p	0.88172
257.69960000000003	0.2	bleu	26	noun	phrase	2	10	nomatch	noir	-1	1	p	0.88172
257.8995	0.0	+	26	noun	phrase	2	11	nomatch	noir	-1	1	p	0.88172
258.2993	0.0	+	26	noun	phrase	2	12	nomatch	noir	-1	1	p	0.88172
260.2984	0.0	NOIR	26	noun	phrase	2	13	nomatch	noir	-1	1	p	0.88172
261.24800000000005	0.0	+	26	noun	phrase	2	14	nomatch	noir	-1	1	p	0.88172
261.18010000000004	0.0	[response]	26	noun	phrase	2	15	nomatch	noir	-1	1	p	0.88172
262.69730000000004	0.0	+	27	noun	list	1	1	match	sablier	5	1	y	0.7671400000000002
263.24710000000005	0.2	rqn	27	noun	list	1	2	match	sablier	5	1	y	0.7671400000000002
263.447	0.0	+	27	noun	list	1	3	match	sablier	5	1	y	0.7671400000000002
263.84680000000003	0.2	pkq	27	noun	list	1	4	match	sablier	5	1	y	0.7671400000000002
264.0467	0.0	+	27	noun	list	1	5	match	sablier	5	1	y	0.7671400000000002
264.4466	0.2	nblj	27	noun	list	1	6	match	sablier	5	1	y	0.7671400000000002
264.64650000000006	0.0	+	27	noun	list	1	7	match	sablier	5	1	y	0.7671400000000002
265.0463	0.2	kcrv	27	noun	list	1	8	match	sablier	5	1	y	0.7671400000000002
265.24620000000004	0.0	+	27	noun	list	1	9	match	sablier	5	1	y	0.7671400000000002
265.64599999999996	0.2	sablier	27	noun	list	1	10	match	sablier	5	1	y	0.7671400000000002
265.84590000000003	0.0	+	27	noun	list	1	11	match	sablier	5	1	y	0.7671400000000002
266.24580000000003	0.0	+	27	noun	list	1	12	match	sablier	5	1	y	0.7671400000000002
268.24490000000003	0.0	SABLIER	27	noun	list	1	13	match	sablier	5	1	y	0.7671400000000002
269.0778	0.0	+	27	noun	list	1	14	match	sablier	5	1	y	0.7671400000000002
269.01200000000006	0.0	[response]	27	noun	list	1	15	match	sablier	5	1	y	0.7671400000000002
278.64020000000005	0.0	+	28	verb	list	3	1	nomatch	loin	-1	1	p	0.73224
279.19000000000005	0.2	kdlrx	28	verb	list	3	2	nomatch	loin	-1	1	p	0.73224
279.3899	0.0	+	28	verb	list	3	3	nomatch	loin	-1	1	p	0.73224
279.78970000000004	0.2	npvf	28	verb	list	3	4	nomatch	loin	-1	1	p	0.73224
279.9896	0.0	+	28	verb	list	3	5	nomatch	loin	-1	1	p	0.73224
280.3894	0.2	mon	28	verb	list	3	6	nomatch	loin	-1	1	p	0.73224
280.5893	0.0	+	28	verb	list	3	7	nomatch	loin	-1	1	p	0.73224
280.9892	0.2	parader	28	verb	list	3	8	nomatch	loin	-1	1	p	0.73224
281.18910000000005	0.0	+	28	verb	list	3	9	nomatch	loin	-1	1	p	0.73224
281.58889999999997	0.2	noir	28	verb	list	3	10	nomatch	loin	-1	1	p	0.73224
281.78880000000004	0.0	+	28	verb	list	3	11	nomatch	loin	-1	1	p	0.73224
282.18870000000004	0.0	+	28	verb	list	3	12	nomatch	loin	-1	1	p	0.73224
284.18780000000004	0.0	LOIN	28	verb	list	3	13	nomatch	loin	-1	1	p	0.73224
284.9874	0.0	+	28	verb	list	3	14	nomatch	loin	-1	1	p	0.73224
284.91999999999996	0.0	[response]	28	verb	list	3	15	nomatch	loin	-1	1	p	0.73224
286.58669999999995	0.0	+	29	verb	phrase	2	1	nomatch	petit	-1	1	p	0.74638
287.1364	0.2	tgzvb	29	verb	phrase	2	2	nomatch	petit	-1	1	p	0.74638
287.33630000000005	0.0	+	29	verb	phrase	2	3	nomatch	petit	-1	1	p	0.74638
287.73620000000005	0.2	htzd	29	verb	phrase	2	4	nomatch	petit	-1	1	p	0.74638
287.9361	0.0	+	29	verb	phrase	2	5	nomatch	petit	-1	1	p	0.74638
288.33590000000004	0.2	mvbw	29	verb	phrase	2	6	nomatch	petit	-1	1	p	0.74638
288.5358	0.0	+	29	verb	phrase	2	7	nomatch	petit	-1	1	p	0.74638
288.9356	0.2	moins	29	verb	phrase	2	8	nomatch	petit	-1	1	p	0.74638
289.1355	0.0	+	29	verb	phrase	2	9	nomatch	petit	-1	1	p	0.74638
289.5354	0.2	nager	29	verb	phrase	2	10	nomatch	petit	-1	1	p	0.74638
289.73530000000005	0.0	+	29	verb	phrase	2	11	nomatch	petit	-1	1	p	0.74638
290.13509999999997	0.0	+	29	verb	phrase	2	12	nomatch	petit	-1	1	p	0.74638
292.13419999999996	0.0	PETIT	29	verb	phrase	2	13	nomatch	petit	-1	1	p	0.74638
292.9338	0.0	+	29	verb	phrase	2	14	nomatch	petit	-1	1	p	0.74638
292.88059999999996	0.0	[response]	29	verb	phrase	2	15	nomatch	petit	-1	1	p	0.74638
294.5498	0.0	+	30	noun	list	1	1	nomatch	doit	-1	1	p	1.1643
295.09950000000003	0.2	fsv	30	noun	list	1	2	nomatch	doit	-1	1	p	1.1643
295.29949999999997	0.0	+	30	noun	list	1	3	nomatch	doit	-1	1	p	1.1643
295.6993	0.2	pkq	30	noun	list	1	4	nomatch	doit	-1	1	p	1.1643
295.89919999999995	0.0	+	30	noun	list	1	5	nomatch	doit	-1	1	p	1.1643
296.299	0.2	lj	30	noun	list	1	6	nomatch	doit	-1	1	p	1.1643
296.49890000000005	0.0	+	30	noun	list	1	7	nomatch	doit	-1	1	p	1.1643
296.89869999999996	0.2	cmjsxw	30	noun	list	1	8	nomatch	doit	-1	1	p	1.1643
297.09860000000003	0.0	+	30	noun	list	1	9	nomatch	doit	-1	1	p	1.1643
297.49850000000004	0.2	tôt	30	noun	list	1	10	nomatch	doit	-1	1	p	1.1643
297.6984	0.0	+	30	noun	list	1	11	nomatch	doit	-1	1	p	1.1643
298.0982	0.0	+	30	noun	list	1	12	nomatch	doit	-1	1	p	1.1643
300.0973	0.0	DOIT	30	noun	list	1	13	nomatch	doit	-1	1	p	1.1643
301.3134	0.0	+	30	noun	list	1	14	nomatch	doit	-1	1	p	1.1643
301.26160000000004	0.0	[response]	30	noun	list	1	15	nomatch	doit	-1	1	p	1.1643
310.4927	0.0	+	31	noun	phrase	1	1	nomatch	adam	-1	1	p	0.84036
311.04240000000004	0.2	fnsmkr	31	noun	phrase	1	2	nomatch	adam	-1	1	p	0.84036
311.2423	0.0	+	31	noun	phrase	1	3	nomatch	adam	-1	1	p	0.84036
311.6422	0.2	wpsh	31	noun	phrase	1	4	nomatch	adam	-1	1	p	0.84036
311.84209999999996	0.0	+	31	noun	phrase	1	5	nomatch	adam	-1	1	p	0.84036
312.2419	0.2	zxd	31	noun	phrase	1	6	nomatch	adam	-1	1	p	0.84036
312.44180000000006	0.0	+	31	noun	phrase	1	7	nomatch	adam	-1	1	p	0.84036
312.84159999999997	0.2	kwmcf	31	noun	phrase	1	8	nomatch	adam	-1	1	p	0.84036
313.04150000000004	0.0	+	31	noun	phrase	1	9	nomatch	adam	-1	1	p	0.84036
313.44140000000004	0.2	casier	31	noun	phrase	1	10	nomatch	adam	-1	1	p	0.84036
313.6413	0.0	+	31	noun	phrase	1	11	nomatch	adam	-1	1	p	0.84036
314.04110000000003	0.0	+	31	noun	phrase	1	12	nomatch	adam	-1	1	p	0.84036
316.0402	0.0	ADAM	31	noun	phrase	1	13	nomatch	adam	-1	1	p	0.84036
316.9398	0.0	+	31	noun	phrase	1	14	nomatch	adam	-1	1	p	0.84036
316.88059999999996	0.0	[response]	31	noun	phrase	1	15	nomatch	adam	-1	1	p	0.84036
326.43550000000005	0.0	+	32	noun	phrase	1	1	match	blanc	5	1	y	0.591
326.98530000000005	0.2	shwnjp	32	noun	phrase	1	2	match	blanc	5	1	y	0.591
327.1852	0.0	+	32	noun	phrase	1	3	match	blanc	5	1	y	0.591
327.58500000000004	0.2	rflt	32	noun	phrase	1	4	match	blanc	5	1	y	0.591
327.7849	0.0	+	32	noun	phrase	1	5	match	blanc	5	1	y	0.591
328.1848	0.2	kmc	32	noun	phrase	1	6	match	blanc	5	1	y	0.591
328.38469999999995	0.0	+	32	noun	phrase	1	7	match	blanc	5	1	y	0.591
328.7845	0.2	xflzwk	32	noun	phrase	1	8	match	blanc	5	1	y	0.591
328.98440000000005	0.0	+	32	noun	phrase	1	9	match	blanc	5	1	y	0.591
329.38419999999996	0.2	blanc	32	noun	phrase	1	10	match	blanc	5	1	y	0.591
329.58410000000003	0.0	+	32	noun	phrase	1	11	match	blanc	5	1	y	0.591
329.98400000000004	0.0	+	32	noun	phrase	1	12	match	blanc	5	1	y	0.591
331.99969999999996	0.0	BLANC	32	noun	phrase	1	13	match	blanc	5	1	y	0.591
332.6495	0.0	+	32	noun	phrase	1	14	match	blanc	5	1	y	0.591
332.59069999999997	0.0	[response]	32	noun	phrase	1	15	match	blanc	5	1	y	0.591
334.39869999999996	0.0	+	33	verb	phrase	1	1	nomatch	beaucoup	-1	1	p	0.82199
334.9484	0.2	dqxnk	33	verb	phrase	1	2	nomatch	beaucoup	-1	1	p	0.82199
335.14829999999995	0.0	+	33	verb	phrase	1	3	nomatch	beaucoup	-1	1	p	0.82199
335.5484	0.2	jhvb	33	verb	phrase	1	4	nomatch	beaucoup	-1	1	p	0.82199
335.7481	0.0	+	33	verb	phrase	1	5	nomatch	beaucoup	-1	1	p	0.82199
336.14790000000005	0.2	lj	33	verb	phrase	1	6	nomatch	beaucoup	-1	1	p	0.82199
336.3478	0.0	+	33	verb	phrase	1	7	nomatch	beaucoup	-1	1	p	0.82199
336.74760000000003	0.2	nkbswgt	33	verb	phrase	1	8	nomatch	beaucoup	-1	1	p	0.82199
336.9475	0.0	+	33	verb	phrase	1	9	nomatch	beaucoup	-1	1	p	0.82199
337.3473	0.2	moins	33	verb	phrase	1	10	nomatch	beaucoup	-1	1	p	0.82199
337.54729999999995	0.0	+	33	verb	phrase	1	11	nomatch	beaucoup	-1	1	p	0.82199
337.9471	0.0	+	33	verb	phrase	1	12	nomatch	beaucoup	-1	1	p	0.82199
339.9462	0.0	BEAUCOUP	33	verb	phrase	1	13	nomatch	beaucoup	-1	1	p	0.82199
340.82910000000004	0.0	+	33	verb	phrase	1	14	nomatch	beaucoup	-1	1	p	0.82199
340.7682	0.0	[response]	33	verb	phrase	1	15	nomatch	beaucoup	-1	1	p	0.82199
342.3451	0.0	+	34	noun	list	4	1	match	mieux	4	1	y	0.95518
342.8949	0.2	fkdmxz	34	noun	list	4	2	match	mieux	4	1	y	0.95518
343.09479999999996	0.0	+	34	noun	list	4	3	match	mieux	4	1	y	0.95518
343.4946	0.2	jean	34	noun	list	4	4	match	mieux	4	1	y	0.95518
343.69449999999995	0.0	+	34	noun	list	4	5	match	mieux	4	1	y	0.95518
344.0943	0.2	son	34	noun	list	4	6	match	mieux	4	1	y	0.95518
344.29420000000005	0.0	+	34	noun	list	4	7	match	mieux	4	1	y	0.95518
344.69410000000005	0.2	mieux	34	noun	list	4	8	match	mieux	4	1	y	0.95518
344.894	0.0	+	34	noun	list	4	9	match	mieux	4	1	y	0.95518
345.29380000000003	0.2	cendrier	34	noun	list	4	10	match	mieux	4	1	y	0.95518
345.4937	0.0	+	34	noun	list	4	11	match	mieux	4	1	y	0.95518
345.8935	0.0	+	34	noun	list	4	12	match	mieux	4	1	y	0.95518
347.8926	0.0	MIEUX	34	noun	list	4	13	match	mieux	4	1	y	0.95518
348.90880000000004	0.0	+	34	noun	list	4	14	match	mieux	4	1	y	0.95518
348.8478	0.0	[response]	34	noun	list	4	15	match	mieux	4	1	y	0.95518
350.2916	0.0	+	35	noun	list	2	1	match	clavier	5	1	y	1.4154000000000002
350.84130000000005	0.2	rlbjhnz	35	noun	list	2	2	match	clavier	5	1	y	1.4154000000000002
351.0412	0.0	+	35	noun	list	2	3	match	clavier	5	1	y	1.4154000000000002
351.4411	0.2	gjnb	35	noun	list	2	4	match	clavier	5	1	y	1.4154000000000002
351.64099999999996	0.0	+	35	noun	list	2	5	match	clavier	5	1	y	1.4154000000000002
352.0408	0.2	kmc	35	noun	list	2	6	match	clavier	5	1	y	1.4154000000000002
352.24069999999995	0.0	+	35	noun	list	2	7	match	clavier	5	1	y	1.4154000000000002
352.6405	0.2	trop	35	noun	list	2	8	match	clavier	5	1	y	1.4154000000000002
352.84040000000005	0.0	+	35	noun	list	2	9	match	clavier	5	1	y	1.4154000000000002
353.24019999999996	0.2	clavier	35	noun	list	2	10	match	clavier	5	1	y	1.4154000000000002
353.4402	0.0	+	35	noun	list	2	11	match	clavier	5	1	y	1.4154000000000002
353.84000000000003	0.0	+	35	noun	list	2	12	match	clavier	5	1	y	1.4154000000000002
355.83910000000003	0.0	CLAVIER	35	noun	list	2	13	match	clavier	5	1	y	1.4154000000000002
357.32180000000005	0.0	+	35	noun	list	2	14	match	clavier	5	1	y	1.4154000000000002
357.2545	0.0	[response]	35	noun	list	2	15	match	clavier	5	1	y	1.4154000000000002
358.23800000000006	0.0	+	36	noun	phrase	1	1	nomatch	tôt	-1	1	p	0.9022300000000001
358.78779999999995	0.2	dsvfhw	36	noun	phrase	1	2	nomatch	tôt	-1	1	p	0.9022300000000001
358.9877	0.0	+	36	noun	phrase	1	3	nomatch	tôt	-1	1	p	0.9022300000000001
359.38750000000005	0.2	pkq	36	noun	phrase	1	4	nomatch	tôt	-1	1	p	0.9022300000000001
359.5874	0.0	+	36	noun	phrase	1	5	nomatch	tôt	-1	1	p	0.9022300000000001
359.98800000000006	0.2	fpmt	36	noun	phrase	1	6	nomatch	tôt	-1	1	p	0.9022300000000001
360.18719999999996	0.0	+	36	noun	phrase	1	7	nomatch	tôt	-1	1	p	0.9022300000000001
360.587	0.2	vsmnl	36	noun	phrase	1	8	nomatch	tôt	-1	1	p	0.9022300000000001
360.78690000000006	0.0	+	36	noun	phrase	1	9	nomatch	tôt	-1	1	p	0.9022300000000001
361.1867	0.2	rocher	36	noun	phrase	1	10	nomatch	tôt	-1	1	p	0.9022300000000001
361.38660000000004	0.0	+	36	noun	phrase	1	11	nomatch	tôt	-1	1	p	0.9022300000000001
361.78639999999996	0.0	+	36	noun	phrase	1	12	nomatch	tôt	-1	1	p	0.9022300000000001
363.78549999999996	0.0	TÔT	36	noun	phrase	1	13	nomatch	tôt	-1	1	p	0.9022300000000001
364.7518	0.0	+	36	noun	phrase	1	14	nomatch	tôt	-1	1	p	0.9022300000000001
364.68780000000004	0.0	[response]	36	noun	phrase	1	15	nomatch	tôt	-1	1	p	0.9022300000000001
366.18449999999996	0.0	+	37	noun	list	2	1	nomatch	loin	-1	1	p	0.95399
366.7342	0.2	gpr	37	noun	list	2	2	nomatch	loin	-1	1	p	0.95399
366.93410000000006	0.0	+	37	noun	list	2	3	nomatch	loin	-1	1	p	0.95399
367.33400000000006	0.2	rflt	37	noun	list	2	4	nomatch	loin	-1	1	p	0.95399
367.5339	0.0	+	37	noun	list	2	5	nomatch	loin	-1	1	p	0.95399
367.93370000000004	0.2	mvbw	37	noun	list	2	6	nomatch	loin	-1	1	p	0.95399
368.1336	0.0	+	37	noun	list	2	7	nomatch	loin	-1	1	p	0.95399
368.55010000000004	0.2	casier	37	noun	list	2	8	nomatch	loin	-1	1	p	0.95399
368.75	0.0	+	37	noun	list	2	9	nomatch	loin	-1	1	p	0.95399
369.1498	0.2	tard	37	noun	list	2	10	nomatch	loin	-1	1	p	0.95399
369.3497	0.0	+	37	noun	list	2	11	nomatch	loin	-1	1	p	0.95399
369.7495	0.0	+	37	noun	list	2	12	nomatch	loin	-1	1	p	0.95399
371.7487	0.0	LOIN	37	noun	list	2	13	nomatch	loin	-1	1	p	0.95399
372.7649	0.0	+	37	noun	list	2	14	nomatch	loin	-1	1	p	0.95399
372.70259999999996	0.0	[response]	37	noun	list	2	15	nomatch	loin	-1	1	p	0.95399
374.1476	0.0	+	38	verb	list	1	1	match	galoper	5	1	y	0.74881
374.69730000000004	0.2	wmvqjdr	38	verb	list	1	2	match	galoper	5	1	y	0.74881
374.8972	0.0	+	38	verb	list	1	3	match	galoper	5	1	y	0.74881
375.2971	0.2	fgvt	38	verb	list	1	4	match	galoper	5	1	y	0.74881
375.49699999999996	0.0	+	38	verb	list	1	5	match	galoper	5	1	y	0.74881
375.8968	0.2	nblj	38	verb	list	1	6	match	galoper	5	1	y	0.74881
376.09670000000006	0.0	+	38	verb	list	1	7	match	galoper	5	1	y	0.74881
376.49649999999997	0.2	vsmnl	38	verb	list	1	8	match	galoper	5	1	y	0.74881
376.6965	0.0	+	38	verb	list	1	9	match	galoper	5	1	y	0.74881
377.09630000000004	0.2	galoper	38	verb	list	1	10	match	galoper	5	1	y	0.74881
377.2962	0.0	+	38	verb	list	1	11	match	galoper	5	1	y	0.74881
377.696	0.0	+	38	verb	list	1	12	match	galoper	5	1	y	0.74881
379.6951	0.0	GALOPER	38	verb	list	1	13	match	galoper	5	1	y	0.74881
380.5114	0.0	+	38	verb	list	1	14	match	galoper	5	1	y	0.74881
380.4439	0.0	[response]	38	verb	list	1	15	match	galoper	5	1	y	0.74881
382.09400000000005	0.0	+	39	noun	phrase	1	1	match	rouge	5	1	y	0.61024
382.64380000000006	0.2	rjqh	39	noun	phrase	1	2	match	rouge	5	1	y	0.61024
382.8437	0.0	+	39	noun	phrase	1	3	match	rouge	5	1	y	0.61024
383.24350000000004	0.2	nwdx	39	noun	phrase	1	4	match	rouge	5	1	y	0.61024
383.4434	0.0	+	39	noun	phrase	1	5	match	rouge	5	1	y	0.61024
383.8433	0.2	zxd	39	noun	phrase	1	6	match	rouge	5	1	y	0.61024
384.04319999999996	0.0	+	39	noun	phrase	1	7	match	rouge	5	1	y	0.61024
384.443	0.2	pmvscfnj	39	noun	phrase	1	8	match	rouge	5	1	y	0.61024
384.64290000000005	0.0	+	39	noun	phrase	1	9	match	rouge	5	1	y	0.61024
385.04269999999997	0.2	rouge	39	noun	phrase	1	10	match	rouge	5	1	y	0.61024
385.24260000000004	0.0	+	39	noun	phrase	1	11	match	rouge	5	1	y	0.61024
385.64239999999995	0.0	+	39	noun	phrase	1	12	match	rouge	5	1	y	0.61024
387.64160000000004	0.0	ROUGE	39	noun	phrase	1	13	match	rouge	5	1	y	0.61024
388.3079	0.0	+	39	noun	phrase	1	14	match	rouge	5	1	y	0.61024
388.2518	0.0	[response]	39	noun	phrase	1	15	match	rouge	5	1	y	0.61024
390.04049999999995	0.0	+	40	noun	phrase	3	1	nomatch	mon	-1	1	p	0.88636
390.5902	0.2	mjkqzrw	40	noun	phrase	3	2	nomatch	mon	-1	1	p	0.88636
390.7902	0.0	+	40	noun	phrase	3	3	nomatch	mon	-1	1	p	0.88636
391.19000000000005	0.2	wpsh	40	noun	phrase	3	4	nomatch	mon	-1	1	p	0.88636
391.3899	0.0	+	40	noun	phrase	3	5	nomatch	mon	-1	1	p	0.88636
391.78970000000004	0.2	son	40	noun	phrase	3	6	nomatch	mon	-1	1	p	0.88636
391.9896	0.0	+	40	noun	phrase	3	7	nomatch	mon	-1	1	p	0.88636
392.3894	0.2	clavier	40	noun	phrase	3	8	nomatch	mon	-1	1	p	0.88636
392.58939999999996	0.0	+	40	noun	phrase	3	9	nomatch	mon	-1	1	p	0.88636
392.9896	0.2	bleu	40	noun	phrase	3	10	nomatch	mon	-1	1	p	0.88636
393.18910000000005	0.0	+	40	noun	phrase	3	11	nomatch	mon	-1	1	p	0.88636
393.58889999999997	0.0	+	40	noun	phrase	3	12	nomatch	mon	-1	1	p	0.88636
395.58799999999997	0.0	MON	40	noun	phrase	3	13	nomatch	mon	-1	1	p	0.88636
396.5376	0.0	+	40	noun	phrase	3	14	nomatch	mon	-1	1	p	0.88636
396.47440000000006	0.0	[response]	40	noun	phrase	3	15	nomatch	mon	-1	1	p	0.88636
397.9869	0.0	+	41	noun	phrase	3	1	nomatch	tard	-1	1	p	1.1745
398.5367	0.2	rkphzv	41	noun	phrase	3	2	nomatch	tard	-1	1	p	1.1745
398.73659999999995	0.0	+	41	noun	phrase	3	3	nomatch	tard	-1	1	p	1.1745
399.1364	0.2	pklg	41	noun	phrase	3	4	nomatch	tard	-1	1	p	1.1745
399.33630000000005	0.0	+	41	noun	phrase	3	5	nomatch	tard	-1	1	p	1.1745
399.73620000000005	0.2	leur	41	noun	phrase	3	6	nomatch	tard	-1	1	p	1.1745
399.9361	0.0	+	41	noun	phrase	3	7	nomatch	tard	-1	1	p	1.1745
400.33590000000004	0.2	sablier	41	noun	phrase	3	8	nomatch	tard	-1	1	p	1.1745
400.5358	0.0	+	41	noun	phrase	3	9	nomatch	tard	-1	1	p	1.1745
400.9356	0.2	noir	41	noun	phrase	3	10	nomatch	tard	-1	1	p	1.1745
401.1355	0.0	+	41	noun	phrase	3	11	nomatch	tard	-1	1	p	1.1745
401.5354	0.0	+	41	noun	phrase	3	12	nomatch	tard	-1	1	p	1.1745
403.5345	0.0	TARD	41	noun	phrase	3	13	nomatch	tard	-1	1	p	1.1745
404.7672	0.0	+	41	noun	phrase	3	14	nomatch	tard	-1	1	p	1.1745
404.7089000000001	0.0	[response]	41	noun	phrase	3	15	nomatch	tard	-1	1	p	1.1745
405.9501	0.0	+	42	noun	list	3	1	match	son	3	1	y	0.642
406.49980000000005	0.2	hjgz	42	noun	list	3	2	match	son	3	1	y	0.642
406.6997	0.0	+	42	noun	list	3	3	match	son	3	1	y	0.642
407.09950000000003	0.2	npvf	42	noun	list	3	4	match	son	3	1	y	0.642
407.2994	0.0	+	42	noun	list	3	5	match	son	3	1	y	0.642
407.6993	0.2	son	42	noun	list	3	6	match	son	3	1	y	0.642
407.89919999999995	0.0	+	42	noun	list	3	7	match	son	3	1	y	0.642
408.299	0.2	beaucoup	42	noun	list	3	8	match	son	3	1	y	0.642
408.49890000000005	0.0	+	42	noun	list	3	9	match	son	3	1	y	0.642
408.89869999999996	0.2	rocher	42	noun	list	3	10	match	son	3	1	y	0.642
409.09860000000003	0.0	+	42	noun	list	3	11	match	son	3	1	y	0.642
409.49850000000004	0.0	+	42	noun	list	3	12	match	son	3	1	y	0.642
411.49760000000003	0.0	SON	42	noun	list	3	13	match	son	3	1	y	0.642
412.19730000000004	0.0	+	42	noun	list	3	14	match	son	3	1	y	0.642
412.1396	0.0	[response]	42	noun	list	3	15	match	son	3	1	y	0.642
413.89650000000006	0.0	+	43	noun	list	2	1	nomatch	sablier	-1	0	y	1.2765
414.4462	0.2	tpld	43	noun	list	2	2	nomatch	sablier	-1	0	y	1.2765
414.6462	0.0	+	43	noun	list	2	3	nomatch	sablier	-1	0	y	1.2765
415.04600000000005	0.2	pkq	43	noun	list	2	4	nomatch	sablier	-1	0	y	1.2765
415.2459	0.0	+	43	noun	list	2	5	nomatch	sablier	-1	0	y	1.2765
415.64570000000003	0.2	nblj	43	noun	list	2	6	nomatch	sablier	-1	0	y	1.2765
415.8456	0.0	+	43	noun	list	2	7	nomatch	sablier	-1	0	y	1.2765
416.2455	0.2	clavier	43	noun	list	2	8	nomatch	sablier	-1	0	y	1.2765
416.44539999999995	0.0	+	43	noun	list	2	9	nomatch	sablier	-1	0	y	1.2765
416.8452	0.2	loin	43	noun	list	2	10	nomatch	sablier	-1	0	y	1.2765
417.04510000000005	0.0	+	43	noun	list	2	11	nomatch	sablier	-1	0	y	1.2765
417.44489999999996	0.0	+	43	noun	list	2	12	nomatch	sablier	-1	0	y	1.2765
419.44399999999996	0.0	SABLIER	43	noun	list	2	13	nomatch	sablier	-1	0	y	1.2765
420.7768	0.0	+	43	noun	list	2	14	nomatch	sablier	-1	0	y	1.2765
420.7205	0.0	[response]	43	noun	list	2	15	nomatch	sablier	-1	0	y	1.2765
421.84299999999996	0.0	+	44	verb	phrase	3	1	nomatch	doit	-1	1	p	1.3633
422.3927	0.2	skxdbj	44	verb	phrase	3	2	nomatch	doit	-1	1	p	1.3633
422.59259999999995	0.0	+	44	verb	phrase	3	3	nomatch	doit	-1	1	p	1.3633
422.9924	0.2	qhft	44	verb	phrase	3	4	nomatch	doit	-1	1	p	1.3633
423.1924	0.0	+	44	verb	phrase	3	5	nomatch	doit	-1	1	p	1.3633
423.59220000000005	0.2	va	44	verb	phrase	3	6	nomatch	doit	-1	1	p	1.3633
423.7921	0.0	+	44	verb	phrase	3	7	nomatch	doit	-1	1	p	1.3633
424.19190000000003	0.2	moins	44	verb	phrase	3	8	nomatch	doit	-1	1	p	1.3633
424.3918	0.0	+	44	verb	phrase	3	9	nomatch	doit	-1	1	p	1.3633
424.7916	0.2	galoper	44	verb	phrase	3	10	nomatch	doit	-1	1	p	1.3633
424.9915	0.0	+	44	verb	phrase	3	11	nomatch	doit	-1	1	p	1.3633
425.3914	0.0	+	44	verb	phrase	3	12	nomatch	doit	-1	1	p	1.3633
427.3905	0.0	DOIT	44	verb	phrase	3	13	nomatch	doit	-1	1	p	1.3633
428.8065	0.0	+	44	verb	phrase	3	14	nomatch	doit	-1	1	p	1.3633
428.7537	0.0	[response]	44	verb	phrase	3	15	nomatch	doit	-1	1	p	1.3633
437.7858	0.0	+	45	verb	list	1	1	match	grand	5	1	y	1.0723
438.3356	0.2	rhv	45	verb	list	1	2	match	grand	5	1	y	1.0723
438.53549999999996	0.0	+	45	verb	list	1	3	match	grand	5	1	y	1.0723
438.9353	0.2	wpsh	45	verb	list	1	4	match	grand	5	1	y	1.0723
439.13520000000005	0.0	+	45	verb	list	1	5	match	grand	5	1	y	1.0723
439.53510000000006	0.2	mvbw	45	verb	list	1	6	match	grand	5	1	y	1.0723
439.735	0.0	+	45	verb	list	1	7	match	grand	5	1	y	1.0723
440.13480000000004	0.2	bwmjdr	45	verb	list	1	8	match	grand	5	1	y	1.0723
440.3347	0.0	+	45	verb	list	1	9	match	grand	5	1	y	1.0723
440.7345	0.2	grand	45	verb	list	1	10	match	grand	5	1	y	1.0723
440.9344	0.0	+	45	verb	list	1	11	match	grand	5	1	y	1.0723
441.3343	0.0	+	45	verb	list	1	12	match	grand	5	1	y	1.0723
443.35	0.0	GRAND	45	verb	list	1	13	match	grand	5	1	y	1.0723
444.4828	0.0	+	45	verb	list	1	14	match	grand	5	1	y	1.0723
444.42229999999995	0.0	[response]	45	verb	list	1	15	match	grand	5	1	y	1.0723
445.74890000000005	0.0	+	46	verb	phrase	1	1	match	trop	5	0	TIMEOUT	-1.0
446.29870000000005	0.2	pjvzhwb	46	verb	phrase	1	2	match	trop	5	0	TIMEOUT	-1.0
446.4986	0.0	+	46	verb	phrase	1	3	match	trop	5	0	TIMEOUT	-1.0
446.89840000000004	0.2	jhvb	46	verb	phrase	1	4	match	trop	5	0	TIMEOUT	-1.0
447.0983	0.0	+	46	verb	phrase	1	5	match	trop	5	0	TIMEOUT	-1.0
447.4982	0.2	lj	46	verb	phrase	1	6	match	trop	5	0	TIMEOUT	-1.0
447.69809999999995	0.0	+	46	verb	phrase	1	7	match	trop	5	0	TIMEOUT	-1.0
448.0979	0.2	bdrzhls	46	verb	phrase	1	8	match	trop	5	0	TIMEOUT	-1.0
448.29780000000005	0.0	+	46	verb	phrase	1	9	match	trop	5	0	TIMEOUT	-1.0
448.69759999999997	0.2	trop	46	verb	phrase	1	10	match	trop	5	0	TIMEOUT	-1.0
448.89750000000004	0.0	+	46	verb	phrase	1	11	match	trop	5	0	TIMEOUT	-1.0
449.29740000000004	0.0	+	46	verb	phrase	1	12	match	trop	5	0	TIMEOUT	-1.0
451.29650000000004	0.0	TROP	46	verb	phrase	1	13	match	trop	5	0	TIMEOUT	-1.0
453.69539999999995	0.0	+	47	verb	phrase	1	1	nomatch	galoper	-1	1	p	1.4015
454.29510000000005	0.2	vxtghrb	47	verb	phrase	1	2	nomatch	galoper	-1	1	p	1.4015
454.495	0.0	+	47	verb	phrase	1	3	nomatch	galoper	-1	1	p	1.4015
454.8949	0.2	npvf	47	verb	phrase	1	4	nomatch	galoper	-1	1	p	1.4015
455.09479999999996	0.0	+	47	verb	phrase	1	5	nomatch	galoper	-1	1	p	1.4015
455.4946	0.2	mvbw	47	verb	phrase	1	6	nomatch	galoper	-1	1	p	1.4015
455.69449999999995	0.0	+	47	verb	phrase	1	7	nomatch	galoper	-1	1	p	1.4015
456.0943	0.2	xhdnfgjc	47	verb	phrase	1	8	nomatch	galoper	-1	1	p	1.4015
456.29420000000005	0.0	+	47	verb	phrase	1	9	nomatch	galoper	-1	1	p	1.4015
456.69410000000005	0.2	nager	47	verb	phrase	1	10	nomatch	galoper	-1	1	p	1.4015
456.894	0.0	+	47	verb	phrase	1	11	nomatch	galoper	-1	1	p	1.4015
457.29380000000003	0.0	+	47	verb	phrase	1	12	nomatch	galoper	-1	1	p	1.4015
459.29290000000003	0.0	GALOPER	47	verb	phrase	1	13	nomatch	galoper	-1	1	p	1.4015
460.75890000000004	0.0	+	47	verb	phrase	1	14	nomatch	galoper	-1	1	p	1.4015
460.6944000000001	0.0	[response]	47	verb	phrase	1	15	nomatch	galoper	-1	1	p	1.4015
461.69180000000006	0.0	+	48	verb	list	4	1	nomatch	rocher	-1	1	p	0.86179
462.24160000000006	0.2	lmc	48	verb	list	4	2	nomatch	rocher	-1	1	p	0.86179
462.4415	0.0	+	48	verb	list	4	3	nomatch	rocher	-1	1	p	0.86179
462.84130000000005	0.2	vers	48	verb	list	4	4	nomatch	rocher	-1	1	p	0.86179
463.0412	0.0	+	48	verb	list	4	5	nomatch	rocher	-1	1	p	0.86179
463.44100000000003	0.2	va	48	verb	list	4	6	nomatch	rocher	-1	1	p	0.86179
463.6410000000001	0.0	+	48	verb	list	4	7	nomatch	rocher	-1	1	p	0.86179
464.0408	0.2	petit	48	verb	list	4	8	nomatch	rocher	-1	1	p	0.86179
464.24070000000006	0.0	+	48	verb	list	4	9	nomatch	rocher	-1	1	p	0.86179
464.6405000000001	0.2	parader	48	verb	list	4	10	nomatch	rocher	-1	1	p	0.86179
464.84040000000005	0.0	+	48	verb	list	4	11	nomatch	rocher	-1	1	p	0.86179
465.2402000000001	0.0	+	48	verb	list	4	12	nomatch	rocher	-1	1	p	0.86179
467.23940000000005	0.0	ROCHER	48	verb	list	4	13	nomatch	rocher	-1	1	p	0.86179
468.15560000000005	0.0	+	48	verb	list	4	14	nomatch	rocher	-1	1	p	0.86179
468.1011000000001	0.0	[response]	48	verb	list	4	15	nomatch	rocher	-1	1	p	0.86179
469.6383000000001	0.0	+	49	verb	list	3	1	match	galoper	4	1	y	0.64475
470.188	0.2	cbwlkfz	49	verb	list	3	2	match	galoper	4	1	y	0.64475
470.38800000000003	0.0	+	49	verb	list	3	3	match	galoper	4	1	y	0.64475
470.78780000000006	0.2	hfk	49	verb	list	3	4	match	galoper	4	1	y	0.64475
470.98840000000007	0.0	+	49	verb	list	3	5	match	galoper	4	1	y	0.64475
471.38750000000005	0.2	son	49	verb	list	3	6	match	galoper	4	1	y	0.64475
471.5874	0.0	+	49	verb	list	3	7	match	galoper	4	1	y	0.64475
471.98720000000003	0.2	galoper	49	verb	list	3	8	match	galoper	4	1	y	0.64475
472.1871	0.0	+	49	verb	list	3	9	match	galoper	4	1	y	0.64475
472.587	0.2	noir	49	verb	list	3	10	match	galoper	4	1	y	0.64475
472.78690000000006	0.0	+	49	verb	list	3	11	match	galoper	4	1	y	0.64475
473.1867000000001	0.0	+	49	verb	list	3	12	match	galoper	4	1	y	0.64475
475.1858000000001	0.0	GALOPER	49	verb	list	3	13	match	galoper	4	1	y	0.64475
475.8855	0.0	+	49	verb	list	3	14	match	galoper	4	1	y	0.64475
475.83050000000003	0.0	[response]	49	verb	list	3	15	match	galoper	4	1	y	0.64475
477.5847	0.0	+	50	verb	phrase	4	1	match	nager	5	1	y	0.8707700000000002
478.1345	0.2	wgmqj	50	verb	phrase	4	2	match	nager	5	1	y	0.8707700000000002
478.3344000000001	0.0	+	50	verb	phrase	4	3	match	nager	5	1	y	0.8707700000000002
478.7342	0.2	yves	50	verb	phrase	4	4	match	nager	5	1	y	0.8707700000000002
478.93410000000006	0.0	+	50	verb	phrase	4	5	match	nager	5	1	y	0.8707700000000002
479.33400000000006	0.2	doit	50	verb	phrase	4	6	match	nager	5	1	y	0.8707700000000002
479.5339	0.0	+	50	verb	phrase	4	7	match	nager	5	1	y	0.8707700000000002
479.93370000000004	0.2	beaucoup	50	verb	phrase	4	8	match	nager	5	1	y	0.8707700000000002
480.1336	0.0	+	50	verb	phrase	4	9	match	nager	5	1	y	0.8707700000000002
480.55010000000004	0.2	nager	50	verb	phrase	4	10	match	nager	5	1	y	0.8707700000000002
480.75	0.0	+	50	verb	phrase	4	11	match	nager	5	1	y	0.8707700000000002
481.1498	0.0	+	50	verb	phrase	4	12	match	nager	5	1	y	0.8707700000000002
483.1489	0.0	NAGER	50	verb	phrase	4	13	match	nager	5	1	y	0.8707700000000002
484.08180000000004	0.0	+	50	verb	phrase	4	14	match	nager	5	1	y	0.8707700000000002
484.01970000000006	0.0	[response]	50	verb	phrase	4	15	match	nager	5	1	y	0.8707700000000002
485.54780000000005	0.0	+	51	noun	list	2	1	match	plus	4	1	y	0.7322
486.09760000000006	0.2	pmxwzq	51	noun	list	2	2	match	plus	4	1	y	0.7322
486.2975	0.0	+	51	noun	list	2	3	match	plus	4	1	y	0.7322
486.69730000000004	0.2	htzd	51	noun	list	2	4	match	plus	4	1	y	0.7322
486.8972	0.0	+	51	noun	list	2	5	match	plus	4	1	y	0.7322
487.297	0.2	zxd	51	noun	list	2	6	match	plus	4	1	y	0.7322
487.49700000000007	0.0	+	51	noun	list	2	7	match	plus	4	1	y	0.7322
487.8968	0.2	plus	51	noun	list	2	8	match	plus	4	1	y	0.7322
488.09670000000006	0.0	+	51	noun	list	2	9	match	plus	4	1	y	0.7322
488.4965000000001	0.2	panier	51	noun	list	2	10	match	plus	4	1	y	0.7322
488.69640000000004	0.0	+	51	noun	list	2	11	match	plus	4	1	y	0.7322
489.09620000000007	0.0	+	51	noun	list	2	12	match	plus	4	1	y	0.7322
491.09540000000004	0.0	PLUS	51	noun	list	2	13	match	plus	4	1	y	0.7322
491.895	0.0	+	51	noun	list	2	14	match	plus	4	1	y	0.7322
491.8276000000002	0.0	[response]	51	noun	list	2	15	match	plus	4	1	y	0.7322
493.49430000000007	0.0	+	52	verb	list	4	1	match	plonger	5	1	y	0.67705
494.044	0.2	ctmwk	52	verb	list	4	2	match	plonger	5	1	y	0.67705
494.244	0.0	+	52	verb	list	4	3	match	plonger	5	1	y	0.67705
494.64380000000006	0.2	dans	52	verb	list	4	4	match	plonger	5	1	y	0.67705
494.8437	0.0	+	52	verb	list	4	5	match	plonger	5	1	y	0.67705
495.24350000000004	0.2	peut	52	verb	list	4	6	match	plonger	5	1	y	0.67705
495.4434	0.0	+	52	verb	list	4	7	match	plonger	5	1	y	0.67705
495.8432	0.2	grand	52	verb	list	4	8	match	plonger	5	1	y	0.67705
496.0434	0.0	+	52	verb	list	4	9	match	plonger	5	1	y	0.67705
496.443	0.2	plonger	52	verb	list	4	10	match	plonger	5	1	y	0.67705
496.64290000000005	0.0	+	52	verb	list	4	11	match	plonger	5	1	y	0.67705
497.0427000000001	0.0	+	52	verb	list	4	12	match	plonger	5	1	y	0.67705
499.0418000000001	0.0	PLONGER	52	verb	list	4	13	match	plonger	5	1	y	0.67705
499.7748	0.0	+	52	verb	list	4	14	match	plonger	5	1	y	0.67705
499.7189000000001	0.0	[response]	52	verb	list	4	15	match	plonger	5	1	y	0.67705
501.4407	0.0	+	53	verb	list	1	1	match	vert	5	1	y	0.8718300000000001
501.9905	0.2	mdhswk	53	verb	list	1	2	match	vert	5	1	y	0.8718300000000001
502.19040000000007	0.0	+	53	verb	list	1	3	match	vert	5	1	y	0.8718300000000001
502.5902	0.2	lgnz	53	verb	list	1	4	match	vert	5	1	y	0.8718300000000001
502.79010000000005	0.0	+	53	verb	list	1	5	match	vert	5	1	y	0.8718300000000001
503.19000000000005	0.2	zxd	53	verb	list	1	6	match	vert	5	1	y	0.8718300000000001
503.3899	0.0	+	53	verb	list	1	7	match	vert	5	1	y	0.8718300000000001
503.78970000000004	0.2	gkpjq	53	verb	list	1	8	match	vert	5	1	y	0.8718300000000001
503.98980000000006	0.0	+	53	verb	list	1	9	match	vert	5	1	y	0.8718300000000001
504.3894	0.2	vert	53	verb	list	1	10	match	vert	5	1	y	0.8718300000000001
504.5893	0.0	+	53	verb	list	1	11	match	vert	5	1	y	0.8718300000000001
504.9892	0.0	+	53	verb	list	1	12	match	vert	5	1	y	0.8718300000000001
506.9883	0.0	VERT	53	verb	list	1	13	match	vert	5	1	y	0.8718300000000001
507.9212	0.0	+	53	verb	list	1	14	match	vert	5	1	y	0.8718300000000001
507.8601	0.0	[response]	53	verb	list	1	15	match	vert	5	1	y	0.8718300000000001
509.3872	0.0	+	54	verb	list	1	1	nomatch	ainsi	-1	1	p	1.6728
509.93690000000004	0.2	zrbthcp	54	verb	list	1	2	nomatch	ainsi	-1	1	p	1.6728
510.1369000000001	0.0	+	54	verb	list	1	3	nomatch	ainsi	-1	1	p	1.6728
510.5367	0.2	wpsh	54	verb	list	1	4	nomatch	ainsi	-1	1	p	1.6728
510.73660000000007	0.0	+	54	verb	list	1	5	nomatch	ainsi	-1	1	p	1.6728
511.1364	0.2	lj	54	verb	list	1	6	nomatch	ainsi	-1	1	p	1.6728
511.33630000000005	0.0	+	54	verb	list	1	7	nomatch	ainsi	-1	1	p	1.6728
511.7361000000001	0.2	bwjlr	54	verb	list	1	8	nomatch	ainsi	-1	1	p	1.6728
511.9361	0.0	+	54	verb	list	1	9	nomatch	ainsi	-1	1	p	1.6728
512.3359	0.2	parader	54	verb	list	1	10	nomatch	ainsi	-1	1	p	1.6728
512.5358	0.0	+	54	verb	list	1	11	nomatch	ainsi	-1	1	p	1.6728
512.9356	0.0	+	54	verb	list	1	12	nomatch	ainsi	-1	1	p	1.6728
514.9347	0.0	AINSI	54	verb	list	1	13	nomatch	ainsi	-1	1	p	1.6728
516.6673000000001	0.0	+	54	verb	list	1	14	nomatch	ainsi	-1	1	p	1.6728
516.6075000000001	0.0	[response]	54	verb	list	1	15	nomatch	ainsi	-1	1	p	1.6728
525.3467	0.0	+	55	verb	phrase	3	1	nomatch	leur	-1	1	p	0.8807400000000001
525.8965000000001	0.2	jwnd	55	verb	phrase	3	2	nomatch	leur	-1	1	p	0.8807400000000001
526.0964	0.0	+	55	verb	phrase	3	3	nomatch	leur	-1	1	p	0.8807400000000001
526.4962	0.2	npvf	55	verb	phrase	3	4	nomatch	leur	-1	1	p	0.8807400000000001
526.6961	0.0	+	55	verb	phrase	3	5	nomatch	leur	-1	1	p	0.8807400000000001
527.096	0.2	va	55	verb	phrase	3	6	nomatch	leur	-1	1	p	0.8807400000000001
527.2959000000001	0.0	+	55	verb	phrase	3	7	nomatch	leur	-1	1	p	0.8807400000000001
527.6957	0.2	voyager	55	verb	phrase	3	8	nomatch	leur	-1	1	p	0.8807400000000001
527.8956000000001	0.0	+	55	verb	phrase	3	9	nomatch	leur	-1	1	p	0.8807400000000001
528.2954000000001	0.2	tard	55	verb	phrase	3	10	nomatch	leur	-1	1	p	0.8807400000000001
528.4953	0.0	+	55	verb	phrase	3	11	nomatch	leur	-1	1	p	0.8807400000000001
528.8951000000001	0.0	+	55	verb	phrase	3	12	nomatch	leur	-1	1	p	0.8807400000000001
530.8943	0.0	LEUR	55	verb	phrase	3	13	nomatch	leur	-1	1	p	0.8807400000000001
531.8272000000001	0.0	+	55	verb	phrase	3	14	nomatch	leur	-1	1	p	0.8807400000000001
531.7750000000001	0.0	[response]	55	verb	phrase	3	15	nomatch	leur	-1	1	p	0.8807400000000001
533.2932000000001	0.0	+	56	verb	phrase	1	1	match	chasser	5	1	y	0.48868
533.8429	0.2	rkzcms	56	verb	phrase	1	2	match	chasser	5	1	y	0.48868
534.0429	0.0	+	56	verb	phrase	1	3	match	chasser	5	1	y	0.48868
534.4427000000001	0.2	lgnz	56	verb	phrase	1	4	match	chasser	5	1	y	0.48868
534.6426	0.0	+	56	verb	phrase	1	5	match	chasser	5	1	y	0.48868
535.0424	0.2	lj	56	verb	phrase	1	6	match	chasser	5	1	y	0.48868
535.2423	0.0	+	56	verb	phrase	1	7	match	chasser	5	1	y	0.48868
535.6421	0.2	nzdps	56	verb	phrase	1	8	match	chasser	5	1	y	0.48868
535.842	0.0	+	56	verb	phrase	1	9	match	chasser	5	1	y	0.48868
536.2419	0.2	chasser	56	verb	phrase	1	10	match	chasser	5	1	y	0.48868
536.4418000000001	0.0	+	56	verb	phrase	1	11	match	chasser	5	1	y	0.48868
536.8416000000001	0.0	+	56	verb	phrase	1	12	match	chasser	5	1	y	0.48868
538.8407000000001	0.0	CHASSER	56	verb	phrase	1	13	match	chasser	5	1	y	0.48868
539.3905000000001	0.0	+	56	verb	phrase	1	14	match	chasser	5	1	y	0.48868
539.3294000000001	0.0	[response]	56	verb	phrase	1	15	match	chasser	5	1	y	0.48868
541.2397000000001	0.0	+	57	verb	list	2	1	match	blanc	5	1	y	1.0305
541.7894	0.2	znx	57	verb	list	2	2	match	blanc	5	1	y	1.0305
541.9893000000001	0.0	+	57	verb	list	2	3	match	blanc	5	1	y	1.0305
542.3891	0.2	jhvb	57	verb	list	2	4	match	blanc	5	1	y	1.0305
542.589	0.0	+	57	verb	list	2	5	match	blanc	5	1	y	1.0305
542.9892	0.2	zxd	57	verb	list	2	6	match	blanc	5	1	y	1.0305
543.1888	0.0	+	57	verb	list	2	7	match	blanc	5	1	y	1.0305
543.5886	0.2	nager	57	verb	list	2	8	match	blanc	5	1	y	1.0305
543.7885	0.0	+	57	verb	list	2	9	match	blanc	5	1	y	1.0305
544.1883	0.2	blanc	57	verb	list	2	10	match	blanc	5	1	y	1.0305
544.3882	0.0	+	57	verb	list	2	11	match	blanc	5	1	y	1.0305
544.788	0.0	+	57	verb	list	2	12	match	blanc	5	1	y	1.0305
546.7872	0.0	BLANC	57	verb	list	2	13	match	blanc	5	1	y	1.0305
547.87	0.0	+	57	verb	list	2	14	match	blanc	5	1	y	1.0305
547.8177000000001	0.0	[response]	57	verb	list	2	15	match	blanc	5	1	y	1.0305
549.1861	0.0	+	58	verb	phrase	4	1	match	tôt	5	1	y	0.81857
549.7358	0.2	xfmqplb	58	verb	phrase	4	2	match	tôt	5	1	y	0.81857
549.9358000000001	0.0	+	58	verb	phrase	4	3	match	tôt	5	1	y	0.81857
550.3356	0.2	marc	58	verb	phrase	4	4	match	tôt	5	1	y	0.81857
550.5355000000001	0.0	+	58	verb	phrase	4	5	match	tôt	5	1	y	0.81857
550.9353	0.2	doit	58	verb	phrase	4	6	match	tôt	5	1	y	0.81857
551.1352	0.0	+	58	verb	phrase	4	7	match	tôt	5	1	y	0.81857
551.5350000000001	0.2	plonger	58	verb	phrase	4	8	match	tôt	5	1	y	0.81857
551.7349	0.0	+	58	verb	phrase	4	9	match	tôt	5	1	y	0.81857
552.1348	0.2	tôt	58	verb	phrase	4	10	match	tôt	5	1	y	0.81857
552.3347	0.0	+	58	verb	phrase	4	11	match	tôt	5	1	y	0.81857
552.7345	0.0	+	58	verb	phrase	4	12	match	tôt	5	1	y	0.81857
554.7337	0.0	TÔT	58	verb	phrase	4	13	match	tôt	5	1	y	0.81857
555.6166000000001	0.0	+	58	verb	phrase	4	14	match	tôt	5	1	y	0.81857
555.5522000000001	0.0	[response]	58	verb	phrase	4	15	match	tôt	5	1	y	0.81857
565.1456000000001	0.0	+	59	verb	list	4	1	nomatch	leur	-1	1	p	1.6136
565.6954000000001	0.2	wjszl	59	verb	list	4	2	nomatch	leur	-1	1	p	1.6136
565.8953	0.0	+	59	verb	list	4	3	nomatch	leur	-1	1	p	1.6136
566.2951	0.2	pour	59	verb	list	4	4	nomatch	leur	-1	1	p	1.6136
566.495	0.0	+	59	verb	list	4	5	nomatch	leur	-1	1	p	1.6136
566.8949	0.2	va	59	verb	list	4	6	nomatch	leur	-1	1	p	1.6136
567.0948000000001	0.0	+	59	verb	list	4	7	nomatch	leur	-1	1	p	1.6136
567.4946	0.2	grand	59	verb	list	4	8	nomatch	leur	-1	1	p	1.6136
567.6945000000001	0.0	+	59	verb	list	4	9	nomatch	leur	-1	1	p	1.6136
568.0943	0.2	rouler	59	verb	list	4	10	nomatch	leur	-1	1	p	1.6136
568.2942	0.0	+	59	verb	list	4	11	nomatch	leur	-1	1	p	1.6136
568.6940000000001	0.0	+	59	verb	list	4	12	nomatch	leur	-1	1	p	1.6136
570.6932	0.0	LEUR	59	verb	list	4	13	nomatch	leur	-1	1	p	1.6136
572.3591	0.0	+	59	verb	list	4	14	nomatch	leur	-1	1	p	1.6136
572.3067	0.0	[response]	59	verb	list	4	15	nomatch	leur	-1	1	p	1.6136
573.0921000000001	0.0	+	60	noun	phrase	2	1	nomatch	rouge	-1	1	p	1.0599
573.6418	0.2	rnktz	60	noun	phrase	2	2	nomatch	rouge	-1	1	p	1.0599
573.8417000000001	0.0	+	60	noun	phrase	2	3	nomatch	rouge	-1	1	p	1.0599
574.2416000000001	0.2	lnjp	60	noun	phrase	2	4	nomatch	rouge	-1	1	p	1.0599
574.4415	0.0	+	60	noun	phrase	2	5	nomatch	rouge	-1	1	p	1.0599
574.8413	0.2	zxd	60	noun	phrase	2	6	nomatch	rouge	-1	1	p	1.0599
575.0412	0.0	+	60	noun	phrase	2	7	nomatch	rouge	-1	1	p	1.0599
575.441	0.2	nouveau	60	noun	phrase	2	8	nomatch	rouge	-1	1	p	1.0599
575.6409	0.0	+	60	noun	phrase	2	9	nomatch	rouge	-1	1	p	1.0599
576.0408	0.2	rocher	60	noun	phrase	2	10	nomatch	rouge	-1	1	p	1.0599
576.2407000000001	0.0	+	60	noun	phrase	2	11	nomatch	rouge	-1	1	p	1.0599
576.6405000000001	0.0	+	60	noun	phrase	2	12	nomatch	rouge	-1	1	p	1.0599
578.6396000000001	0.0	ROUGE	60	noun	phrase	2	13	nomatch	rouge	-1	1	p	1.0599
579.7558	0.0	+	60	noun	phrase	2	14	nomatch	rouge	-1	1	p	1.0599
579.6995000000001	0.0	[response]	60	noun	phrase	2	15	nomatch	rouge	-1	1	p	1.0599
581.0385	0.0	+	61	verb	phrase	2	1	match	loin	5	0	p	1.0662
581.5883	0.2	tjm	61	verb	phrase	2	2	match	loin	5	0	p	1.0662
581.7882000000001	0.0	+	61	verb	phrase	2	3	match	loin	5	0	p	1.0662
582.188	0.2	hfk	61	verb	phrase	2	4	match	loin	5	0	p	1.0662
582.3879000000001	0.0	+	61	verb	phrase	2	5	match	loin	5	0	p	1.0662
582.7877000000001	0.2	lj	61	verb	phrase	2	6	match	loin	5	0	p	1.0662
582.9877	0.0	+	61	verb	phrase	2	7	match	loin	5	0	p	1.0662
583.3875	0.2	plonger	61	verb	phrase	2	8	match	loin	5	0	p	1.0662
583.5874	0.0	+	61	verb	phrase	2	9	match	loin	5	0	p	1.0662
583.9872	0.2	loin	61	verb	phrase	2	10	match	loin	5	0	p	1.0662
584.1871	0.0	+	61	verb	phrase	2	11	match	loin	5	0	p	1.0662
584.587	0.0	+	61	verb	phrase	2	12	match	loin	5	0	p	1.0662
586.586	0.0	LOIN	61	verb	phrase	2	13	match	loin	5	0	p	1.0662
587.7189000000001	0.0	+	61	verb	phrase	2	14	match	loin	5	0	p	1.0662
587.6523000000001	0.0	[response]	61	verb	phrase	2	15	match	loin	5	0	p	1.0662
588.985	0.0	+	62	noun	list	3	1	match	panier	4	1	y	1.0275
589.5347	0.2	kgfj	62	noun	list	3	2	match	panier	4	1	y	1.0275
589.7346	0.0	+	62	noun	list	3	3	match	panier	4	1	y	1.0275
590.1345	0.2	rflt	62	noun	list	3	4	match	panier	4	1	y	1.0275
590.3344000000001	0.0	+	62	noun	list	3	5	match	panier	4	1	y	1.0275
590.7342	0.2	va	62	noun	list	3	6	match	panier	4	1	y	1.0275
590.9341000000001	0.0	+	62	noun	list	3	7	match	panier	4	1	y	1.0275
591.3339000000001	0.2	panier	62	noun	list	3	8	match	panier	4	1	y	1.0275
591.5338	0.0	+	62	noun	list	3	9	match	panier	4	1	y	1.0275
591.9337	0.2	ainsi	62	noun	list	3	10	match	panier	4	1	y	1.0275
592.1336	0.0	+	62	noun	list	3	11	match	panier	4	1	y	1.0275
592.5501	0.0	+	62	noun	list	3	12	match	panier	4	1	y	1.0275
594.5494	0.0	PANIER	62	noun	list	3	13	match	panier	4	1	y	1.0275
595.6320000000001	0.0	+	62	noun	list	3	14	match	panier	4	1	y	1.0275
595.5769	0.0	[response]	62	noun	list	3	15	match	panier	4	1	y	1.0275
596.9481000000001	0.0	+	63	verb	phrase	3	1	match	plonger	5	1	y	0.62417
597.4979000000001	0.2	rstlwd	63	verb	phrase	3	2	match	plonger	5	1	y	0.62417
597.6978	0.0	+	63	verb	phrase	3	3	match	plonger	5	1	y	0.62417
598.0976	0.2	npvf	63	verb	phrase	3	4	match	plonger	5	1	y	0.62417
598.2975	0.0	+	63	verb	phrase	3	5	match	plonger	5	1	y	0.62417
598.6973	0.2	peut	63	verb	phrase	3	6	match	plonger	5	1	y	0.62417
598.8972	0.0	+	63	verb	phrase	3	7	match	plonger	5	1	y	0.62417
599.297	0.2	beaucoup	63	verb	phrase	3	8	match	plonger	5	1	y	0.62417
599.4970000000001	0.0	+	63	verb	phrase	3	9	match	plonger	5	1	y	0.62417
599.8968	0.2	plonger	63	verb	phrase	3	10	match	plonger	5	1	y	0.62417
600.0967	0.0	+	63	verb	phrase	3	11	match	plonger	5	1	y	0.62417
600.4965000000001	0.0	+	63	verb	phrase	3	12	match	plonger	5	1	y	0.62417
602.4956000000001	0.0	PLONGER	63	verb	phrase	3	13	match	plonger	5	1	y	0.62417
603.1786000000001	0.0	+	63	verb	phrase	3	14	match	plonger	5	1	y	0.62417
603.1198	0.0	[response]	63	verb	phrase	3	15	match	plonger	5	1	y	0.62417
604.8945	0.0	+	64	verb	list	2	1	match	galoper	4	1	y	2.0046
605.4443	0.2	npb	64	verb	list	2	2	match	galoper	4	1	y	2.0046
605.6442000000001	0.0	+	64	verb	list	2	3	match	galoper	4	1	y	2.0046
606.044	0.2	lgnz	64	verb	list	2	4	match	galoper	4	1	y	2.0046
606.2439	0.0	+	64	verb	list	2	5	match	galoper	4	1	y	2.0046
606.6438	0.2	fpmt	64	verb	list	2	6	match	galoper	4	1	y	2.0046
606.8437	0.0	+	64	verb	list	2	7	match	galoper	4	1	y	2.0046
607.2435	0.2	galoper	64	verb	list	2	8	match	galoper	4	1	y	2.0046
607.4434	0.0	+	64	verb	list	2	9	match	galoper	4	1	y	2.0046
607.8432	0.2	noir	64	verb	list	2	10	match	galoper	4	1	y	2.0046
608.0431	0.0	+	64	verb	list	2	11	match	galoper	4	1	y	2.0046
608.443	0.0	+	64	verb	list	2	12	match	galoper	4	1	y	2.0046
610.4421	0.0	GALOPER	64	verb	list	2	13	match	galoper	4	1	y	2.0046
612.5078000000001	0.0	+	64	verb	list	2	14	match	galoper	4	1	y	2.0046
612.4467000000001	0.0	[response]	64	verb	list	2	15	match	galoper	4	1	y	2.0046
628.8339000000001	0.0	+	65	verb	list	1	1	nomatch	grand	-1	1	p	0.91454
629.3837	0.2	nkdz	65	verb	list	1	2	nomatch	grand	-1	1	p	0.91454
629.6002000000001	0.0	+	65	verb	list	1	3	nomatch	grand	-1	1	p	0.91454
630.0	0.2	pklg	65	verb	list	1	4	nomatch	grand	-1	1	p	0.91454
630.1999000000001	0.0	+	65	verb	list	1	5	nomatch	grand	-1	1	p	0.91454
630.5997	0.2	lj	65	verb	list	1	6	nomatch	grand	-1	1	p	0.91454
630.7997	0.0	+	65	verb	list	1	7	nomatch	grand	-1	1	p	0.91454
631.1995000000001	0.2	bdrzhls	65	verb	list	1	8	nomatch	grand	-1	1	p	0.91454
631.3994	0.0	+	65	verb	list	1	9	nomatch	grand	-1	1	p	0.91454
631.7992	0.2	nouveau	65	verb	list	1	10	nomatch	grand	-1	1	p	0.91454
631.9991	0.0	+	65	verb	list	1	11	nomatch	grand	-1	1	p	0.91454
632.3989	0.0	+	65	verb	list	1	12	nomatch	grand	-1	1	p	0.91454
634.398	0.0	GRAND	65	verb	list	1	13	nomatch	grand	-1	1	p	0.91454
635.3643000000001	0.0	+	65	verb	list	1	14	nomatch	grand	-1	1	p	0.91454
635.3126000000001	0.0	[response]	65	verb	list	1	15	nomatch	grand	-1	1	p	0.91454
636.797	0.0	+	66	verb	phrase	1	1	nomatch	galoper	-1	1	p	0.95281
637.3467	0.2	szpf	66	verb	phrase	1	2	nomatch	galoper	-1	1	p	0.95281
637.5466	0.0	+	66	verb	phrase	1	3	nomatch	galoper	-1	1	p	0.95281
637.9464	0.2	npvf	66	verb	phrase	1	4	nomatch	galoper	-1	1	p	0.95281
638.1464000000001	0.0	+	66	verb	phrase	1	5	nomatch	galoper	-1	1	p	0.95281
638.5462	0.2	mvbw	66	verb	phrase	1	6	nomatch	galoper	-1	1	p	0.95281
638.7461000000001	0.0	+	66	verb	phrase	1	7	nomatch	galoper	-1	1	p	0.95281
639.1459	0.2	gkpjq	66	verb	phrase	1	8	nomatch	galoper	-1	1	p	0.95281
639.3458	0.0	+	66	verb	phrase	1	9	nomatch	galoper	-1	1	p	0.95281
639.7457	0.2	vite	66	verb	phrase	1	10	nomatch	galoper	-1	1	p	0.95281
639.9456	0.0	+	66	verb	phrase	1	11	nomatch	galoper	-1	1	p	0.95281
640.3454	0.0	+	66	verb	phrase	1	12	nomatch	galoper	-1	1	p	0.95281
642.3445	0.0	GALOPER	66	verb	phrase	1	13	nomatch	galoper	-1	1	p	0.95281
643.3607000000001	0.0	+	66	verb	phrase	1	14	nomatch	galoper	-1	1	p	0.95281
643.2973000000001	0.0	[response]	66	verb	phrase	1	15	nomatch	galoper	-1	1	p	0.95281
644.7434000000001	0.0	+	67	verb	list	1	1	nomatch	parader	-1	1	p	1.0876
645.2932000000001	0.2	ctq	67	verb	list	1	2	nomatch	parader	-1	1	p	1.0876
645.4931	0.0	+	67	verb	list	1	3	nomatch	parader	-1	1	p	1.0876
645.8929	0.2	pklg	67	verb	list	1	4	nomatch	parader	-1	1	p	1.0876
646.0928	0.0	+	67	verb	list	1	5	nomatch	parader	-1	1	p	1.0876
646.4926	0.2	lj	67	verb	list	1	6	nomatch	parader	-1	1	p	1.0876
646.6925	0.0	+	67	verb	list	1	7	nomatch	parader	-1	1	p	1.0876
647.0924	0.2	fpcgm	67	verb	list	1	8	nomatch	parader	-1	1	p	1.0876
647.2923000000001	0.0	+	67	verb	list	1	9	nomatch	parader	-1	1	p	1.0876
647.6921	0.2	nager	67	verb	list	1	10	nomatch	parader	-1	1	p	1.0876
647.892	0.0	+	67	verb	list	1	11	nomatch	parader	-1	1	p	1.0876
648.2918000000001	0.0	+	67	verb	list	1	12	nomatch	parader	-1	1	p	1.0876
650.291	0.0	PARADER	67	verb	list	1	13	nomatch	parader	-1	1	p	1.0876
651.4404000000001	0.0	+	67	verb	list	1	14	nomatch	parader	-1	1	p	1.0876
651.3786	0.0	[response]	67	verb	list	1	15	nomatch	parader	-1	1	p	1.0876
652.6899000000001	0.0	+	68	verb	phrase	3	1	nomatch	chasser	-1	0	y	1.0288
653.2396	0.2	vrgb	68	verb	phrase	3	2	nomatch	chasser	-1	0	y	1.0288
653.4395000000001	0.0	+	68	verb	phrase	3	3	nomatch	chasser	-1	0	y	1.0288
653.8394000000001	0.2	jhvb	68	verb	phrase	3	4	nomatch	chasser	-1	0	y	1.0288
654.0393	0.0	+	68	verb	phrase	3	5	nomatch	chasser	-1	0	y	1.0288
654.4391	0.2	va	68	verb	phrase	3	6	nomatch	chasser	-1	0	y	1.0288
654.639	0.0	+	68	verb	phrase	3	7	nomatch	chasser	-1	0	y	1.0288
655.0388	0.2	jongler	68	verb	phrase	3	8	nomatch	chasser	-1	0	y	1.0288
655.2387	0.0	+	68	verb	phrase	3	9	nomatch	chasser	-1	0	y	1.0288
655.6386	0.2	vite	68	verb	phrase	3	10	nomatch	chasser	-1	0	y	1.0288
655.8385000000001	0.0	+	68	verb	phrase	3	11	nomatch	chasser	-1	0	y	1.0288
656.2383	0.0	+	68	verb	phrase	3	12	nomatch	chasser	-1	0	y	1.0288
658.2374	0.0	CHASSER	68	verb	phrase	3	13	nomatch	chasser	-1	0	y	1.0288
659.3202	0.0	+	68	verb	phrase	3	14	nomatch	chasser	-1	0	y	1.0288
659.2662	0.0	[response]	68	verb	phrase	3	15	nomatch	chasser	-1	0	y	1.0288
668.6494	0.0	+	69	verb	list	2	1	match	rouge	5	1	y	0.95172
669.1992	0.2	ckq	69	verb	list	2	2	match	rouge	5	1	y	0.95172
669.3991	0.0	+	69	verb	list	2	3	match	rouge	5	1	y	0.95172
669.7989	0.2	qhft	69	verb	list	2	4	match	rouge	5	1	y	0.95172
669.9988000000001	0.0	+	69	verb	list	2	5	match	rouge	5	1	y	0.95172
670.3986	0.2	fpmt	69	verb	list	2	6	match	rouge	5	1	y	0.95172
670.5985000000001	0.0	+	69	verb	list	2	7	match	rouge	5	1	y	0.95172
670.9984000000001	0.2	parader	69	verb	list	2	8	match	rouge	5	1	y	0.95172
671.1983	0.0	+	69	verb	list	2	9	match	rouge	5	1	y	0.95172
671.5981	0.2	rouge	69	verb	list	2	10	match	rouge	5	1	y	0.95172
671.798	0.0	+	69	verb	list	2	11	match	rouge	5	1	y	0.95172
672.1978	0.0	+	69	verb	list	2	12	match	rouge	5	1	y	0.95172
674.1969	0.0	ROUGE	69	verb	list	2	13	match	rouge	5	1	y	0.95172
675.2132	0.0	+	69	verb	list	2	14	match	rouge	5	1	y	0.95172
675.1487000000001	0.0	[response]	69	verb	list	2	15	match	rouge	5	1	y	0.95172
676.5959	0.0	+	70	noun	list	3	1	match	vite	5	1	y	0.94928
677.1456000000001	0.2	bkxjwg	70	noun	list	3	2	match	vite	5	1	y	0.94928
677.3455	0.0	+	70	noun	list	3	3	match	vite	5	1	y	0.94928
677.7454	0.2	lnjp	70	noun	list	3	4	match	vite	5	1	y	0.94928
677.9453000000001	0.0	+	70	noun	list	3	5	match	vite	5	1	y	0.94928
678.3451	0.2	doit	70	noun	list	3	6	match	vite	5	1	y	0.94928
678.5452	0.0	+	70	noun	list	3	7	match	vite	5	1	y	0.94928
678.9448	0.2	casier	70	noun	list	3	8	match	vite	5	1	y	0.94928
679.1447000000001	0.0	+	70	noun	list	3	9	match	vite	5	1	y	0.94928
679.5445000000001	0.2	vite	70	noun	list	3	10	match	vite	5	1	y	0.94928
679.7444	0.0	+	70	noun	list	3	11	match	vite	5	1	y	0.94928
680.1443	0.0	+	70	noun	list	3	12	match	vite	5	1	y	0.94928
682.1434	0.0	VITE	70	noun	list	3	13	match	vite	5	1	y	0.94928
683.1596000000001	0.0	+	70	noun	list	3	14	match	vite	5	1	y	0.94928
683.0927	0.0	[response]	70	noun	list	3	15	match	vite	5	1	y	0.94928
684.5423000000001	0.0	+	71	verb	list	3	1	nomatch	marc	-1	1	p	1.607
685.0921000000001	0.2	slfrc	71	verb	list	3	2	nomatch	marc	-1	1	p	1.607
685.292	0.0	+	71	verb	list	3	3	nomatch	marc	-1	1	p	1.607
685.6918000000001	0.2	fgvt	71	verb	list	3	4	nomatch	marc	-1	1	p	1.607
685.8917	0.0	+	71	verb	list	3	5	nomatch	marc	-1	1	p	1.607
686.2915	0.2	va	71	verb	list	3	6	nomatch	marc	-1	1	p	1.607
686.4914	0.0	+	71	verb	list	3	7	nomatch	marc	-1	1	p	1.607
686.8913	0.2	nouveau	71	verb	list	3	8	nomatch	marc	-1	1	p	1.607
687.0912000000001	0.0	+	71	verb	list	3	9	nomatch	marc	-1	1	p	1.607
687.491	0.2	nager	71	verb	list	3	10	nomatch	marc	-1	1	p	1.607
687.6909	0.0	+	71	verb	list	3	11	nomatch	marc	-1	1	p	1.607
688.0907000000001	0.0	+	71	verb	list	3	12	nomatch	marc	-1	1	p	1.607
690.0898000000001	0.0	MARC	71	verb	list	3	13	nomatch	marc	-1	1	p	1.607
691.7558	0.0	+	71	verb	list	3	14	nomatch	marc	-1	1	p	1.607
691.6969	0.0	[response]	71	verb	list	3	15	nomatch	marc	-1	1	p	1.607
692.4888000000001	0.0	+	72	verb	phrase	1	1	nomatch	moins	-1	1	p	0.8262
693.0385	0.2	qmnrsz	72	verb	phrase	1	2	nomatch	moins	-1	1	p	0.8262
693.2384000000001	0.0	+	72	verb	phrase	1	3	nomatch	moins	-1	1	p	0.8262
693.6382	0.2	qhft	72	verb	phrase	1	4	nomatch	moins	-1	1	p	0.8262
693.8382	0.0	+	72	verb	phrase	1	5	nomatch	moins	-1	1	p	0.8262
694.238	0.2	mvbw	72	verb	phrase	1	6	nomatch	moins	-1	1	p	0.8262
694.4379	0.0	+	72	verb	phrase	1	7	nomatch	moins	-1	1	p	0.8262
694.8377	0.2	bwmjdr	72	verb	phrase	1	8	nomatch	moins	-1	1	p	0.8262
695.0376	0.0	+	72	verb	phrase	1	9	nomatch	moins	-1	1	p	0.8262
695.4375	0.2	beaucoup	72	verb	phrase	1	10	nomatch	moins	-1	1	p	0.8262
695.6374000000001	0.0	+	72	verb	phrase	1	11	nomatch	moins	-1	1	p	0.8262
696.0372	0.0	+	72	verb	phrase	1	12	nomatch	moins	-1	1	p	0.8262
698.0363	0.0	MOINS	72	verb	phrase	1	13	nomatch	moins	-1	1	p	0.8262
698.9192	0.0	+	72	verb	phrase	1	14	nomatch	moins	-1	1	p	0.8262
698.8625000000001	0.0	[response]	72	verb	phrase	1	15	nomatch	moins	-1	1	p	0.8262
700.4352	0.0	+	73	verb	list	3	1	nomatch	rouge	-1	1	p	0.95113
700.985	0.2	lhmvrt	73	verb	list	3	2	nomatch	rouge	-1	1	p	0.95113
701.1849000000001	0.0	+	73	verb	list	3	3	nomatch	rouge	-1	1	p	0.95113
701.5847	0.2	jhvb	73	verb	list	3	4	nomatch	rouge	-1	1	p	0.95113
701.7846000000001	0.0	+	73	verb	list	3	5	nomatch	rouge	-1	1	p	0.95113
702.1844	0.2	mon	73	verb	list	3	6	nomatch	rouge	-1	1	p	0.95113
702.3844	0.0	+	73	verb	list	3	7	nomatch	rouge	-1	1	p	0.95113
702.7842	0.2	voyager	73	verb	list	3	8	nomatch	rouge	-1	1	p	0.95113
702.9841	0.0	+	73	verb	list	3	9	nomatch	rouge	-1	1	p	0.95113
703.3839	0.2	blanc	73	verb	list	3	10	nomatch	rouge	-1	1	p	0.95113
703.5838	0.0	+	73	verb	list	3	11	nomatch	rouge	-1	1	p	0.95113
703.9836	0.0	+	73	verb	list	3	12	nomatch	rouge	-1	1	p	0.95113
705.9994	0.0	ROUGE	73	verb	list	3	13	nomatch	rouge	-1	1	p	0.95113
707.0156000000001	0.0	+	73	verb	list	3	14	nomatch	rouge	-1	1	p	0.95113
706.9505	0.0	[response]	73	verb	list	3	15	nomatch	rouge	-1	1	p	0.95113
708.3983000000001	0.0	+	74	verb	list	1	1	match	beau	5	1	y	1.1384
708.9481000000001	0.2	rmsd	74	verb	list	1	2	match	beau	5	1	y	1.1384
709.148	0.0	+	74	verb	list	1	3	match	beau	5	1	y	1.1384
709.5478	0.2	fgvt	74	verb	list	1	4	match	beau	5	1	y	1.1384
709.7477	0.0	+	74	verb	list	1	5	match	beau	5	1	y	1.1384
710.1475	0.2	lj	74	verb	list	1	6	match	beau	5	1	y	1.1384
710.3475000000001	0.0	+	74	verb	list	1	7	match	beau	5	1	y	1.1384
710.7473	0.2	gkpjq	74	verb	list	1	8	match	beau	5	1	y	1.1384
710.9472000000001	0.0	+	74	verb	list	1	9	match	beau	5	1	y	1.1384
711.347	0.2	beau	74	verb	list	1	10	match	beau	5	1	y	1.1384
711.5469	0.0	+	74	verb	list	1	11	match	beau	5	1	y	1.1384
711.9467000000001	0.0	+	74	verb	list	1	12	match	beau	5	1	y	1.1384
713.9458000000001	0.0	BEAU	74	verb	list	1	13	match	beau	5	1	y	1.1384
715.1453	0.0	+	74	verb	list	1	14	match	beau	5	1	y	1.1384
715.0843	0.0	[response]	74	verb	list	1	15	match	beau	5	1	y	1.1384
716.3448000000001	0.0	+	75	verb	list	1	1	match	rouler	5	1	y	2.0629
716.8945	0.2	wrtdqj	75	verb	list	1	2	match	rouler	5	1	y	2.0629
717.0944000000001	0.0	+	75	verb	list	1	3	match	rouler	5	1	y	2.0629
717.4943000000001	0.2	npvf	75	verb	list	1	4	match	rouler	5	1	y	2.0629
717.6942	0.0	+	75	verb	list	1	5	match	rouler	5	1	y	2.0629
718.094	0.2	fpmt	75	verb	list	1	6	match	rouler	5	1	y	2.0629
718.2939	0.0	+	75	verb	list	1	7	match	rouler	5	1	y	2.0629
718.6937	0.2	jcfb	75	verb	list	1	8	match	rouler	5	1	y	2.0629
718.8936	0.0	+	75	verb	list	1	9	match	rouler	5	1	y	2.0629
719.2935	0.2	rouler	75	verb	list	1	10	match	rouler	5	1	y	2.0629
719.4934000000001	0.0	+	75	verb	list	1	11	match	rouler	5	1	y	2.0629
719.8932	0.0	+	75	verb	list	1	12	match	rouler	5	1	y	2.0629
721.8923	0.0	ROULER	75	verb	list	1	13	match	rouler	5	1	y	2.0629
724.008	0.0	+	75	verb	list	1	14	match	rouler	5	1	y	2.0629
723.9552	0.0	[response]	75	verb	list	1	15	match	rouler	5	1	y	2.0629
724.2912	0.0	+	76	verb	list	2	1	match	petit	4	0	TIMEOUT	-1.0
724.841	0.2	nfgz	76	verb	list	2	2	match	petit	4	0	TIMEOUT	-1.0
725.0409000000001	0.0	+	76	verb	list	2	3	match	petit	4	0	TIMEOUT	-1.0
725.4407	0.2	wpsh	76	verb	list	2	4	match	petit	4	0	TIMEOUT	-1.0
725.6406000000001	0.0	+	76	verb	list	2	5	match	petit	4	0	TIMEOUT	-1.0
726.0405000000001	0.2	mvbw	76	verb	list	2	6	match	petit	4	0	TIMEOUT	-1.0
726.2404	0.0	+	76	verb	list	2	7	match	petit	4	0	TIMEOUT	-1.0
726.6402	0.2	petit	76	verb	list	2	8	match	petit	4	0	TIMEOUT	-1.0
726.8401	0.0	+	76	verb	list	2	9	match	petit	4	0	TIMEOUT	-1.0
727.2399	0.2	nager	76	verb	list	2	10	match	petit	4	0	TIMEOUT	-1.0
727.4398	0.0	+	76	verb	list	2	11	match	petit	4	0	TIMEOUT	-1.0
727.8397	0.0	+	76	verb	list	2	12	match	petit	4	0	TIMEOUT	-1.0
729.8388	0.0	PETIT	76	verb	list	2	13	match	petit	4	0	TIMEOUT	-1.0
732.2377	0.0	+	77	noun	phrase	2	1	match	cendrier	5	0	TIMEOUT	-1.0
732.8374	0.2	vrb	77	noun	phrase	2	2	match	cendrier	5	0	TIMEOUT	-1.0
733.0373000000001	0.0	+	77	noun	phrase	2	3	match	cendrier	5	0	TIMEOUT	-1.0
733.4371	0.2	lnjp	77	noun	phrase	2	4	match	cendrier	5	0	TIMEOUT	-1.0
733.6370000000001	0.0	+	77	noun	phrase	2	5	match	cendrier	5	0	TIMEOUT	-1.0
734.0369000000001	0.2	zxd	77	noun	phrase	2	6	match	cendrier	5	0	TIMEOUT	-1.0
734.2368	0.0	+	77	noun	phrase	2	7	match	cendrier	5	0	TIMEOUT	-1.0
734.6366	0.2	grand	77	noun	phrase	2	8	match	cendrier	5	0	TIMEOUT	-1.0
734.8365	0.0	+	77	noun	phrase	2	9	match	cendrier	5	0	TIMEOUT	-1.0
735.2363	0.2	cendrier	77	noun	phrase	2	10	match	cendrier	5	0	TIMEOUT	-1.0
735.4363000000001	0.0	+	77	noun	phrase	2	11	match	cendrier	5	0	TIMEOUT	-1.0
735.8361	0.0	+	77	noun	phrase	2	12	match	cendrier	5	0	TIMEOUT	-1.0
737.8352	0.0	CENDRIER	77	noun	phrase	2	13	match	cendrier	5	0	TIMEOUT	-1.0
740.2508	0.0	+	78	verb	list	4	1	match	pour	2	0	TIMEOUT	-1.0
740.8338	0.2	fndxlk	78	verb	list	4	2	match	pour	2	0	TIMEOUT	-1.0
741.0338	0.0	+	78	verb	list	4	3	match	pour	2	0	TIMEOUT	-1.0
741.4336000000001	0.2	pour	78	verb	list	4	4	match	pour	2	0	TIMEOUT	-1.0
741.6502	0.0	+	78	verb	list	4	5	match	pour	2	0	TIMEOUT	-1.0
742.0500000000001	0.2	peut	78	verb	list	4	6	match	pour	2	0	TIMEOUT	-1.0
742.2499	0.0	+	78	verb	list	4	7	match	pour	2	0	TIMEOUT	-1.0
742.6497	0.2	vieux	78	verb	list	4	8	match	pour	2	0	TIMEOUT	-1.0
742.8496	0.0	+	78	verb	list	4	9	match	pour	2	0	TIMEOUT	-1.0
743.2494	0.2	voyager	78	verb	list	4	10	match	pour	2	0	TIMEOUT	-1.0
743.4493	0.0	+	78	verb	list	4	11	match	pour	2	0	TIMEOUT	-1.0
743.8492	0.0	+	78	verb	list	4	12	match	pour	2	0	TIMEOUT	-1.0
745.8483	0.0	POUR	78	verb	list	4	13	match	pour	2	0	TIMEOUT	-1.0
748.2472	0.0	+	79	verb	phrase	1	1	match	parader	5	1	y	0.61917
748.8469	0.2	nrbtpdz	79	verb	phrase	1	2	match	parader	5	1	y	0.61917
749.0468000000001	0.0	+	79	verb	phrase	1	3	match	parader	5	1	y	0.61917
749.4467000000001	0.2	qhft	79	verb	phrase	1	4	match	parader	5	1	y	0.61917
749.6466	0.0	+	79	verb	phrase	1	5	match	parader	5	1	y	0.61917
750.0464000000001	0.2	nblj	79	verb	phrase	1	6	match	parader	5	1	y	0.61917
750.2463	0.0	+	79	verb	phrase	1	7	match	parader	5	1	y	0.61917
750.6461	0.2	znptx	79	verb	phrase	1	8	match	parader	5	1	y	0.61917
750.846	0.0	+	79	verb	phrase	1	9	match	parader	5	1	y	0.61917
751.2459	0.2	parader	79	verb	phrase	1	10	match	parader	5	1	y	0.61917
751.4458000000001	0.0	+	79	verb	phrase	1	11	match	parader	5	1	y	0.61917
751.8456	0.0	+	79	verb	phrase	1	12	match	parader	5	1	y	0.61917
753.8447	0.0	PARADER	79	verb	phrase	1	13	match	parader	5	1	y	0.61917
754.5277	0.0	+	79	verb	phrase	1	14	match	parader	5	1	y	0.61917
754.4639000000001	0.0	[response]	79	verb	phrase	1	15	match	parader	5	1	y	0.61917
756.2436	0.0	+	80	verb	phrase	1	1	nomatch	tôt	-1	1	p	0.68764
756.7934	0.2	twjcnm	80	verb	phrase	1	2	nomatch	tôt	-1	1	p	0.68764
756.9933	0.0	+	80	verb	phrase	1	3	nomatch	tôt	-1	1	p	0.68764
757.3931	0.2	lgnz	80	verb	phrase	1	4	nomatch	tôt	-1	1	p	0.68764
757.5930000000001	0.0	+	80	verb	phrase	1	5	nomatch	tôt	-1	1	p	0.68764
757.9928	0.2	mvbw	80	verb	phrase	1	6	nomatch	tôt	-1	1	p	0.68764
758.1928	0.0	+	80	verb	phrase	1	7	nomatch	tôt	-1	1	p	0.68764
758.5926000000001	0.2	gfxmldq	80	verb	phrase	1	8	nomatch	tôt	-1	1	p	0.68764
758.7925	0.0	+	80	verb	phrase	1	9	nomatch	tôt	-1	1	p	0.68764
759.1923	0.2	ainsi	80	verb	phrase	1	10	nomatch	tôt	-1	1	p	0.68764
759.3922	0.0	+	80	verb	phrase	1	11	nomatch	tôt	-1	1	p	0.68764
759.7921	0.0	+	80	verb	phrase	1	12	nomatch	tôt	-1	1	p	0.68764
761.7912	0.0	TÔT	80	verb	phrase	1	13	nomatch	tôt	-1	1	p	0.68764
762.5408	0.0	+	80	verb	phrase	1	14	nomatch	tôt	-1	1	p	0.68764
764.1901	0.0	+	80	verb	phrase	1	15	nomatch	tôt	-1	1	p	0.68764
765.0064	0.0	+	80	verb	phrase	1	16	nomatch	tôt	-1	1	p	0.68764
765.1063	0.0	+	80	verb	phrase	1	17	nomatch	tôt	-1	1	p	0.68764
766.5057	0.0	+	80	verb	phrase	1	18	nomatch	tôt	-1	1	p	0.68764
766.6057000000001	0.0	+	80	verb	phrase	1	19	nomatch	tôt	-1	1	p	0.68764
768.0051000000001	0.0	+	80	verb	phrase	1	20	nomatch	tôt	-1	1	p	0.68764
768.105	0.0	+	80	verb	phrase	1	21	nomatch	tôt	-1	1	p	0.68764
769.5044	0.0	+	80	verb	phrase	1	22	nomatch	tôt	-1	1	p	0.68764
769.6043000000001	0.0	+	80	verb	phrase	1	23	nomatch	tôt	-1	1	p	0.68764
771.0037	0.0	+	80	verb	phrase	1	24	nomatch	tôt	-1	1	p	0.68764
771.1037	0.0	+	80	verb	phrase	1	25	nomatch	tôt	-1	1	p	0.68764
772.503	0.0	+	80	verb	phrase	1	26	nomatch	tôt	-1	1	p	0.68764
772.6030000000001	0.0	+	80	verb	phrase	1	27	nomatch	tôt	-1	1	p	0.68764
774.0024000000001	0.0	+	80	verb	phrase	1	28	nomatch	tôt	-1	1	p	0.68764
774.1023	0.0	+	80	verb	phrase	1	29	nomatch	tôt	-1	1	p	0.68764
775.5017	0.0	+	80	verb	phrase	1	30	nomatch	tôt	-1	1	p	0.68764
775.6016000000001	0.0	+	80	verb	phrase	1	31	nomatch	tôt	-1	1	p	0.68764
777.001	0.0	+	80	verb	phrase	1	32	nomatch	tôt	-1	1	p	0.68764
777.101	0.0	+	80	verb	phrase	1	33	nomatch	tôt	-1	1	p	0.68764
778.5004	0.0	+	80	verb	phrase	1	34	nomatch	tôt	-1	1	p	0.68764
778.6003000000001	0.0	+	80	verb	phrase	1	35	nomatch	tôt	-1	1	p	0.68764
779.3167000000001	0.0	+	80	verb	phrase	1	36	nomatch	tôt	-1	1	p	0.68764
762.4788	0.0	[response]	80	verb	phrase	1	37	nomatch	tôt	-1	1	p	0.68764
