onset	duration	stim	trial_number	trial_type	trial_structure	trial_length	sequential_position	probe_type	probe	probe_position	response_correct	response_key	response_time
0.06480000000001951	0.0	+	1	verb	list	2	1	match	noir	5	1	y	1.0455
0.5478999999999985	0.2	svmz	1	verb	list	2	2	match	noir	5	1	y	1.0455
0.7478000000000122	0.0	+	1	verb	list	2	3	match	noir	5	1	y	1.0455
1.1477000000000146	0.2	npvf	1	verb	list	2	4	match	noir	5	1	y	1.0455
1.3476	0.0	+	1	verb	list	2	5	match	noir	5	1	y	1.0455
1.747399999999999	0.2	zxd	1	verb	list	2	6	match	noir	5	1	y	1.0455
1.9473000000000127	0.0	+	1	verb	list	2	7	match	noir	5	1	y	1.0455
2.347200000000015	0.2	rouler	1	verb	list	2	8	match	noir	5	1	y	1.0455
2.547100000000029	0.0	+	1	verb	list	2	9	match	noir	5	1	y	1.0455
2.9468999999999994	0.2	noir	1	verb	list	2	10	match	noir	5	1	y	1.0455
3.146800000000013	0.0	+	1	verb	list	2	11	match	noir	5	1	y	1.0455
3.5465999999999838	0.0	+	1	verb	list	2	12	match	noir	5	1	y	1.0455
5.545700000000039	0.0	NOIR	1	verb	list	2	13	match	noir	5	1	y	1.0455
6.645200000000017	0.0	+	1	verb	list	2	14	match	noir	5	1	y	1.0455
6.591199999999986	0.0	[response]	1	verb	list	2	15	match	noir	5	1	y	1.0455
7.944699999999983	0.0	+	2	noun	phrase	4	1	match	son	3	1	y	1.1575
8.494400000000013	0.2	jkqtm	2	noun	phrase	4	2	match	son	3	1	y	1.1575
8.694300000000027	0.0	+	2	noun	phrase	4	3	match	son	3	1	y	1.1575
9.094099999999997	0.2	vers	2	noun	phrase	4	4	match	son	3	1	y	1.1575
9.294000000000011	0.0	+	2	noun	phrase	4	5	match	son	3	1	y	1.1575
9.693900000000014	0.2	son	2	noun	phrase	4	6	match	son	3	1	y	1.1575
9.893800000000027	0.0	+	2	noun	phrase	4	7	match	son	3	1	y	1.1575
10.293599999999998	0.2	sablier	2	noun	phrase	4	8	match	son	3	1	y	1.1575
10.493500000000012	0.0	+	2	noun	phrase	4	9	match	son	3	1	y	1.1575
10.893300000000039	0.2	rouge	2	noun	phrase	4	10	match	son	3	1	y	1.1575
11.093199999999996	0.0	+	2	noun	phrase	4	11	match	son	3	1	y	1.1575
11.493099999999998	0.0	+	2	noun	phrase	4	12	match	son	3	1	y	1.1575
13.492199999999997	0.0	SON	2	noun	phrase	4	13	match	son	3	1	y	1.1575
14.708300000000037	0.0	+	2	noun	phrase	4	14	match	son	3	1	y	1.1575
14.649599999999992	0.0	[response]	2	noun	phrase	4	15	match	son	3	1	y	1.1575
15.891100000000023	0.0	+	3	noun	list	1	1	match	vite	5	1	y	1.0791
16.440799999999996	0.2	dblmqr	3	noun	list	1	2	match	vite	5	1	y	1.0791
16.640799999999984	0.0	+	3	noun	list	1	3	match	vite	5	1	y	1.0791
17.040600000000012	0.2	lnjp	3	noun	list	1	4	match	vite	5	1	y	1.0791
17.240500000000026	0.0	+	3	noun	list	1	5	match	vite	5	1	y	1.0791
17.640299999999996	0.2	nblj	3	noun	list	1	6	match	vite	5	1	y	1.0791
17.84020000000001	0.0	+	3	noun	list	1	7	match	vite	5	1	y	1.0791
18.240000000000038	0.2	xflzwk	3	noun	list	1	8	match	vite	5	1	y	1.0791
18.440000000000026	0.0	+	3	noun	list	1	9	match	vite	5	1	y	1.0791
18.839799999999997	0.2	vite	3	noun	list	1	10	match	vite	5	1	y	1.0791
19.03970000000001	0.0	+	3	noun	list	1	11	match	vite	5	1	y	1.0791
19.439500000000038	0.0	+	3	noun	list	1	12	match	vite	5	1	y	1.0791
21.438600000000037	0.0	VITE	3	noun	list	1	13	match	vite	5	1	y	1.0791
22.571499999999986	0.0	+	3	noun	list	1	14	match	vite	5	1	y	1.0791
22.51770000000002	0.0	[response]	3	noun	list	1	15	match	vite	5	1	y	1.0791
23.837500000000006	0.0	+	4	noun	phrase	3	1	match	sablier	5	1	y	1.0073
24.38730000000001	0.2	cbwjn	4	noun	phrase	3	2	match	sablier	5	1	y	1.0073
24.587200000000024	0.0	+	4	noun	phrase	3	3	match	sablier	5	1	y	1.0073
24.986999999999995	0.2	pklg	4	noun	phrase	3	4	match	sablier	5	1	y	1.0073
25.186999999999983	0.0	+	4	noun	phrase	3	5	match	sablier	5	1	y	1.0073
25.58680000000001	0.2	mon	4	noun	phrase	3	6	match	sablier	5	1	y	1.0073
25.786700000000025	0.0	+	4	noun	phrase	3	7	match	sablier	5	1	y	1.0073
26.186499999999995	0.2	grand	4	noun	phrase	3	8	match	sablier	5	1	y	1.0073
26.38640000000001	0.0	+	4	noun	phrase	3	9	match	sablier	5	1	y	1.0073
26.786200000000036	0.2	sablier	4	noun	phrase	3	10	match	sablier	5	1	y	1.0073
26.986099999999993	0.0	+	4	noun	phrase	3	11	match	sablier	5	1	y	1.0073
27.385999999999996	0.0	+	4	noun	phrase	3	12	match	sablier	5	1	y	1.0073
29.385099999999994	0.0	SABLIER	4	noun	phrase	3	13	match	sablier	5	1	y	1.0073
30.451300000000032	0.0	+	4	noun	phrase	3	14	match	sablier	5	1	y	1.0073
30.392300000000006	0.0	[response]	4	noun	phrase	3	15	match	sablier	5	1	y	1.0073
31.78400000000002	0.0	+	5	noun	phrase	3	1	match	tablier	5	1	y	1.1553
32.333800000000025	0.2	rxvjs	5	noun	phrase	3	2	match	tablier	5	1	y	1.1553
32.53370000000004	0.0	+	5	noun	phrase	3	3	match	tablier	5	1	y	1.1553
32.950200000000024	0.2	wpsh	5	noun	phrase	3	4	match	tablier	5	1	y	1.1553
33.15010000000004	0.0	+	5	noun	phrase	3	5	match	tablier	5	1	y	1.1553
33.54990000000001	0.2	son	5	noun	phrase	3	6	match	tablier	5	1	y	1.1553
33.74980000000002	0.0	+	5	noun	phrase	3	7	match	tablier	5	1	y	1.1553
34.14959999999999	0.2	beau	5	noun	phrase	3	8	match	tablier	5	1	y	1.1553
34.349500000000006	0.0	+	5	noun	phrase	3	9	match	tablier	5	1	y	1.1553
34.749300000000034	0.2	tablier	5	noun	phrase	3	10	match	tablier	5	1	y	1.1553
34.94930000000002	0.0	+	5	noun	phrase	3	11	match	tablier	5	1	y	1.1553
35.34909999999999	0.0	+	5	noun	phrase	3	12	match	tablier	5	1	y	1.1553
37.34819999999999	0.0	TABLIER	5	noun	phrase	3	13	match	tablier	5	1	y	1.1553
38.56430000000003	0.0	+	5	noun	phrase	3	14	match	tablier	5	1	y	1.1553
38.5035	0.0	[response]	5	noun	phrase	3	15	match	tablier	5	1	y	1.1553
39.74710000000002	0.0	+	6	verb	list	1	1	nomatch	blanc	-1	1	p	0.96781
40.29690000000002	0.2	fmc	6	verb	list	1	2	nomatch	blanc	-1	1	p	0.96781
40.496800000000036	0.0	+	6	verb	list	1	3	nomatch	blanc	-1	1	p	0.96781
40.89660000000001	0.2	npvf	6	verb	list	1	4	nomatch	blanc	-1	1	p	0.96781
41.09650000000002	0.0	+	6	verb	list	1	5	nomatch	blanc	-1	1	p	0.96781
41.49629999999999	0.2	zxd	6	verb	list	1	6	nomatch	blanc	-1	1	p	0.96781
41.696300000000036	0.0	+	6	verb	list	1	7	nomatch	blanc	-1	1	p	0.96781
42.09610000000001	0.2	cdzvknh	6	verb	list	1	8	nomatch	blanc	-1	1	p	0.96781
42.29600000000002	0.0	+	6	verb	list	1	9	nomatch	blanc	-1	1	p	0.96781
42.69579999999999	0.2	bleu	6	verb	list	1	10	nomatch	blanc	-1	1	p	0.96781
42.895700000000005	0.0	+	6	verb	list	1	11	nomatch	blanc	-1	1	p	0.96781
43.29550000000003	0.0	+	6	verb	list	1	12	nomatch	blanc	-1	1	p	0.96781
45.294700000000006	0.0	BLANC	6	verb	list	1	13	nomatch	blanc	-1	1	p	0.96781
46.327500000000015	0.0	+	6	verb	list	1	14	nomatch	blanc	-1	1	p	0.96781
46.26250000000002	0.0	[response]	6	verb	list	1	15	nomatch	blanc	-1	1	p	0.96781
47.69360000000003	0.0	+	7	noun	list	2	1	nomatch	peut	-1	1	p	1.2295
48.243300000000005	0.2	zdtl	7	noun	list	2	2	nomatch	peut	-1	1	p	1.2295
48.44320000000002	0.0	+	7	noun	list	2	3	nomatch	peut	-1	1	p	1.2295
48.84310000000002	0.2	gjnb	7	noun	list	2	4	nomatch	peut	-1	1	p	1.2295
49.043000000000035	0.0	+	7	noun	list	2	5	nomatch	peut	-1	1	p	1.2295
49.442800000000005	0.2	fpmt	7	noun	list	2	6	nomatch	peut	-1	1	p	1.2295
49.64270000000002	0.0	+	7	noun	list	2	7	nomatch	peut	-1	1	p	1.2295
50.04249999999999	0.2	moins	7	noun	list	2	8	nomatch	peut	-1	1	p	1.2295
50.2424	0.0	+	7	noun	list	2	9	nomatch	peut	-1	1	p	1.2295
50.642300000000006	0.2	tablier	7	noun	list	2	10	nomatch	peut	-1	1	p	1.2295
50.84220000000002	0.0	+	7	noun	list	2	11	nomatch	peut	-1	1	p	1.2295
51.24199999999999	0.0	+	7	noun	list	2	12	nomatch	peut	-1	1	p	1.2295
53.24109999999999	0.0	PEUT	7	noun	list	2	13	nomatch	peut	-1	1	p	1.2295
54.5239	0.0	+	7	noun	list	2	14	nomatch	peut	-1	1	p	1.2295
54.47060000000002	0.0	[response]	7	noun	list	2	15	nomatch	peut	-1	1	p	1.2295
55.640000000000015	0.0	+	8	noun	phrase	2	1	nomatch	voyager	-1	1	p	1.035
56.18980000000002	0.2	pvzfdqt	8	noun	phrase	2	2	nomatch	voyager	-1	1	p	1.035
56.38970000000003	0.0	+	8	noun	phrase	2	3	nomatch	voyager	-1	1	p	1.035
56.789500000000004	0.2	fgvt	8	noun	phrase	2	4	nomatch	voyager	-1	1	p	1.035
56.98940000000002	0.0	+	8	noun	phrase	2	5	nomatch	voyager	-1	1	p	1.035
57.38919999999999	0.2	kmc	8	noun	phrase	2	6	nomatch	voyager	-1	1	p	1.035
57.589200000000034	0.0	+	8	noun	phrase	2	7	nomatch	voyager	-1	1	p	1.035
57.989000000000004	0.2	sablier	8	noun	phrase	2	8	nomatch	voyager	-1	1	p	1.035
58.18890000000002	0.0	+	8	noun	phrase	2	9	nomatch	voyager	-1	1	p	1.035
58.58869999999999	0.2	rouge	8	noun	phrase	2	10	nomatch	voyager	-1	1	p	1.035
58.7886	0.0	+	8	noun	phrase	2	11	nomatch	voyager	-1	1	p	1.035
59.18840000000003	0.0	+	8	noun	phrase	2	12	nomatch	voyager	-1	1	p	1.035
61.1876	0.0	VOYAGER	8	noun	phrase	2	13	nomatch	voyager	-1	1	p	1.035
62.28710000000004	0.0	+	8	noun	phrase	2	14	nomatch	voyager	-1	1	p	1.035
62.2225	0.0	[response]	8	noun	phrase	2	15	nomatch	voyager	-1	1	p	1.035
63.58650000000003	0.0	+	9	noun	list	4	1	match	leur	3	1	y	1.0988
64.1362	0.2	plvfg	9	noun	list	4	2	match	leur	3	1	y	1.0988
64.33619999999999	0.0	+	9	noun	list	4	3	match	leur	3	1	y	1.0988
64.73600000000002	0.2	luc	9	noun	list	4	4	match	leur	3	1	y	1.0988
64.93590000000003	0.0	+	9	noun	list	4	5	match	leur	3	1	y	1.0988
65.3357	0.2	leur	9	noun	list	4	6	match	leur	3	1	y	1.0988
65.53560000000002	0.0	+	9	noun	list	4	7	match	leur	3	1	y	1.0988
65.93539999999999	0.2	trop	9	noun	list	4	8	match	leur	3	1	y	1.0988
66.13540000000003	0.0	+	9	noun	list	4	9	match	leur	3	1	y	1.0988
66.5352	0.2	tablier	9	noun	list	4	10	match	leur	3	1	y	1.0988
66.73510000000002	0.0	+	9	noun	list	4	11	match	leur	3	1	y	1.0988
67.13489999999999	0.0	+	9	noun	list	4	12	match	leur	3	1	y	1.0988
69.13399999999999	0.0	LEUR	9	noun	list	4	13	match	leur	3	1	y	1.0988
70.30010000000001	0.0	+	9	noun	list	4	14	match	leur	3	1	y	1.0988
70.23280000000003	0.0	[response]	9	noun	list	4	15	match	leur	3	1	y	1.0988
71.54960000000003	0.0	+	10	verb	phrase	4	1	match	va	3	1	y	1.0458
72.0993	0.2	jds	10	verb	phrase	4	2	match	va	3	1	y	1.0458
72.29929999999999	0.0	+	10	verb	phrase	4	3	match	va	3	1	y	1.0458
72.69910000000002	0.2	paul	10	verb	phrase	4	4	match	va	3	1	y	1.0458
72.89900000000003	0.0	+	10	verb	phrase	4	5	match	va	3	1	y	1.0458
73.2988	0.2	va	10	verb	phrase	4	6	match	va	3	1	y	1.0458
73.49870000000001	0.0	+	10	verb	phrase	4	7	match	va	3	1	y	1.0458
73.89860000000002	0.2	moins	10	verb	phrase	4	8	match	va	3	1	y	1.0458
74.09850000000003	0.0	+	10	verb	phrase	4	9	match	va	3	1	y	1.0458
74.4983	0.2	parader	10	verb	phrase	4	10	match	va	3	1	y	1.0458
74.69820000000001	0.0	+	10	verb	phrase	4	11	match	va	3	1	y	1.0458
75.09799999999998	0.0	+	10	verb	phrase	4	12	match	va	3	1	y	1.0458
77.09709999999998	0.0	VA	10	verb	phrase	4	13	match	va	3	1	y	1.0458
78.19660000000002	0.0	+	10	verb	phrase	4	14	match	va	3	1	y	1.0458
78.14290000000003	0.0	[response]	10	verb	phrase	4	15	match	va	3	1	y	1.0458
79.49609999999998	0.0	+	11	noun	list	4	1	match	voilier	4	1	y	0.8094
80.04580000000001	0.2	gmhfb	11	noun	list	4	2	match	voilier	4	1	y	0.8094
80.24570000000003	0.0	+	11	noun	list	4	3	match	voilier	4	1	y	0.8094
80.6455	0.2	avec	11	noun	list	4	4	match	voilier	4	1	y	0.8094
80.84549999999999	0.0	+	11	noun	list	4	5	match	voilier	4	1	y	0.8094
81.24530000000001	0.2	peut	11	noun	list	4	6	match	voilier	4	1	y	0.8094
81.44520000000003	0.0	+	11	noun	list	4	7	match	voilier	4	1	y	0.8094
81.845	0.2	voilier	11	noun	list	4	8	match	voilier	4	1	y	0.8094
82.04490000000001	0.0	+	11	noun	list	4	9	match	voilier	4	1	y	0.8094
82.44469999999998	0.2	ainsi	11	noun	list	4	10	match	voilier	4	1	y	0.8094
82.64470000000003	0.0	+	11	noun	list	4	11	match	voilier	4	1	y	0.8094
83.0445	0.0	+	11	noun	list	4	12	match	voilier	4	1	y	0.8094
85.0436	0.0	VOILIER	11	noun	list	4	13	match	voilier	4	1	y	0.8094
85.90990000000002	0.0	+	11	noun	list	4	14	match	voilier	4	1	y	0.8094
85.85300000000004	0.0	[response]	11	noun	list	4	15	match	voilier	4	1	y	0.8094
87.44250000000002	0.0	+	12	noun	phrase	2	1	nomatch	son	-1	1	p	0.99931
87.99230000000003	0.2	xlq	12	noun	phrase	2	2	nomatch	son	-1	1	p	0.99931
88.19219999999999	0.0	+	12	noun	phrase	2	3	nomatch	son	-1	1	p	0.99931
88.59200000000001	0.2	pkq	12	noun	phrase	2	4	nomatch	son	-1	1	p	0.99931
88.79190000000003	0.0	+	12	noun	phrase	2	5	nomatch	son	-1	1	p	0.99931
89.1917	0.2	fpmt	12	noun	phrase	2	6	nomatch	son	-1	1	p	0.99931
89.39160000000001	0.0	+	12	noun	phrase	2	7	nomatch	son	-1	1	p	0.99931
89.79150000000001	0.2	rocher	12	noun	phrase	2	8	nomatch	son	-1	1	p	0.99931
89.99140000000003	0.0	+	12	noun	phrase	2	9	nomatch	son	-1	1	p	0.99931
90.3912	0.2	noir	12	noun	phrase	2	10	nomatch	son	-1	1	p	0.99931
90.59110000000001	0.0	+	12	noun	phrase	2	11	nomatch	son	-1	1	p	0.99931
90.99090000000004	0.0	+	12	noun	phrase	2	12	nomatch	son	-1	1	p	0.99931
92.99030000000002	0.0	SON	12	noun	phrase	2	13	nomatch	son	-1	1	p	0.99931
94.05620000000002	0.0	+	12	noun	phrase	2	14	nomatch	son	-1	1	p	0.99931
93.98960000000002	0.0	[response]	12	noun	phrase	2	15	nomatch	son	-1	1	p	0.99931
95.38900000000004	0.0	+	13	noun	phrase	3	1	match	nouveau	4	1	y	0.89985
95.93870000000001	0.2	wdhl	13	noun	phrase	3	2	match	nouveau	4	1	y	0.89985
96.13860000000003	0.0	+	13	noun	phrase	3	3	match	nouveau	4	1	y	0.89985
96.5384	0.2	rflt	13	noun	phrase	3	4	match	nouveau	4	1	y	0.89985
96.73839999999998	0.0	+	13	noun	phrase	3	5	match	nouveau	4	1	y	0.89985
97.13820000000001	0.2	leur	13	noun	phrase	3	6	match	nouveau	4	1	y	0.89985
97.33810000000003	0.0	+	13	noun	phrase	3	7	match	nouveau	4	1	y	0.89985
97.7379	0.2	nouveau	13	noun	phrase	3	8	match	nouveau	4	1	y	0.89985
97.93780000000001	0.0	+	13	noun	phrase	3	9	match	nouveau	4	1	y	0.89985
98.33760000000004	0.2	casier	13	noun	phrase	3	10	match	nouveau	4	1	y	0.89985
98.5377	0.0	+	13	noun	phrase	3	11	match	nouveau	4	1	y	0.89985
98.9374	0.0	+	13	noun	phrase	3	12	match	nouveau	4	1	y	0.89985
100.9365	0.0	NOUVEAU	13	noun	phrase	3	13	match	nouveau	4	1	y	0.89985
101.90270000000001	0.0	+	13	noun	phrase	3	14	match	nouveau	4	1	y	0.89985
101.83630000000008	0.0	[response]	13	noun	phrase	3	15	match	nouveau	4	1	y	0.89985
103.33540000000002	0.0	+	14	verb	phrase	1	1	match	trop	5	1	y	0.7786
103.88520000000003	0.2	czghv	14	verb	phrase	1	2	match	trop	5	1	y	0.7786
104.08510000000004	0.0	+	14	verb	phrase	1	3	match	trop	5	1	y	0.7786
104.48490000000001	0.2	npvf	14	verb	phrase	1	4	match	trop	5	1	y	0.7786
104.68480000000002	0.0	+	14	verb	phrase	1	5	match	trop	5	1	y	0.7786
105.0846	0.2	mvbw	14	verb	phrase	1	6	match	trop	5	1	y	0.7786
105.28459999999998	0.0	+	14	verb	phrase	1	7	match	trop	5	1	y	0.7786
105.68440000000001	0.2	gkpjq	14	verb	phrase	1	8	match	trop	5	1	y	0.7786
105.88430000000002	0.0	+	14	verb	phrase	1	9	match	trop	5	1	y	0.7786
106.2841	0.2	trop	14	verb	phrase	1	10	match	trop	5	1	y	0.7786
106.48400000000001	0.0	+	14	verb	phrase	1	11	match	trop	5	1	y	0.7786
106.88380000000004	0.0	+	14	verb	phrase	1	12	match	trop	5	1	y	0.7786
108.89959999999999	0.0	TROP	14	verb	phrase	1	13	match	trop	5	1	y	0.7786
109.73260000000002	0.0	+	14	verb	phrase	1	14	match	trop	5	1	y	0.7786
109.67820000000003	0.0	[response]	14	verb	phrase	1	15	match	trop	5	1	y	0.7786
111.29850000000002	0.0	+	15	noun	phrase	3	1	nomatch	jade	-1	1	p	0.97271
111.84830000000002	0.2	kjqprb	15	noun	phrase	3	2	nomatch	jade	-1	1	p	0.97271
112.04820000000004	0.0	+	15	noun	phrase	3	3	nomatch	jade	-1	1	p	0.97271
112.44800000000001	0.2	pkq	15	noun	phrase	3	4	nomatch	jade	-1	1	p	0.97271
112.64790000000002	0.0	+	15	noun	phrase	3	5	nomatch	jade	-1	1	p	0.97271
113.04780000000002	0.2	leur	15	noun	phrase	3	6	nomatch	jade	-1	1	p	0.97271
113.24770000000004	0.0	+	15	noun	phrase	3	7	nomatch	jade	-1	1	p	0.97271
113.64750000000001	0.2	panier	15	noun	phrase	3	8	nomatch	jade	-1	1	p	0.97271
113.84740000000002	0.0	+	15	noun	phrase	3	9	nomatch	jade	-1	1	p	0.97271
114.24719999999999	0.2	vert	15	noun	phrase	3	10	nomatch	jade	-1	1	p	0.97271
114.4471	0.0	+	15	noun	phrase	3	11	nomatch	jade	-1	1	p	0.97271
114.84700000000001	0.0	+	15	noun	phrase	3	12	nomatch	jade	-1	1	p	0.97271
116.8461	0.0	JADE	15	noun	phrase	3	13	nomatch	jade	-1	1	p	0.97271
117.87890000000002	0.0	+	15	noun	phrase	3	14	nomatch	jade	-1	1	p	0.97271
117.81880000000004	0.0	[response]	15	noun	phrase	3	15	nomatch	jade	-1	1	p	0.97271
127.24140000000003	0.0	+	16	noun	list	4	1	match	avec	2	1	y	0.8112100000000001
127.79120000000003	0.2	xzldp	16	noun	list	4	2	match	avec	2	1	y	0.8112100000000001
127.99109999999999	0.0	+	16	noun	list	4	3	match	avec	2	1	y	0.8112100000000001
128.39090000000002	0.2	avec	16	noun	list	4	4	match	avec	2	1	y	0.8112100000000001
128.59080000000003	0.0	+	16	noun	list	4	5	match	avec	2	1	y	0.8112100000000001
128.9906	0.2	doit	16	noun	list	4	6	match	avec	2	1	y	0.8112100000000001
129.19050000000001	0.0	+	16	noun	list	4	7	match	avec	2	1	y	0.8112100000000001
129.59040000000002	0.2	cendrier	16	noun	list	4	8	match	avec	2	1	y	0.8112100000000001
129.79030000000003	0.0	+	16	noun	list	4	9	match	avec	2	1	y	0.8112100000000001
130.1901	0.2	loin	16	noun	list	4	10	match	avec	2	1	y	0.8112100000000001
130.39000000000001	0.0	+	16	noun	list	4	11	match	avec	2	1	y	0.8112100000000001
130.78979999999999	0.0	+	16	noun	list	4	12	match	avec	2	1	y	0.8112100000000001
132.78889999999998	0.0	AVEC	16	noun	list	4	13	match	avec	2	1	y	0.8112100000000001
133.6552	0.0	+	16	noun	list	4	14	match	avec	2	1	y	0.8112100000000001
133.60010000000003	0.0	[response]	16	noun	list	4	15	match	avec	2	1	y	0.8112100000000001
135.18789999999998	0.0	+	17	noun	list	2	1	match	beaucoup	4	1	y	0.70777
135.73760000000001	0.2	lhqdp	17	noun	list	2	2	match	beaucoup	4	1	y	0.70777
135.93750000000003	0.0	+	17	noun	list	2	3	match	beaucoup	4	1	y	0.70777
136.33740000000003	0.2	jhvb	17	noun	list	2	4	match	beaucoup	4	1	y	0.70777
136.5373	0.0	+	17	noun	list	2	5	match	beaucoup	4	1	y	0.70777
136.93710000000002	0.2	kmc	17	noun	list	2	6	match	beaucoup	4	1	y	0.70777
137.13700000000003	0.0	+	17	noun	list	2	7	match	beaucoup	4	1	y	0.70777
137.5368	0.2	beaucoup	17	noun	list	2	8	match	beaucoup	4	1	y	0.70777
137.7367	0.0	+	17	noun	list	2	9	match	beaucoup	4	1	y	0.70777
138.13660000000002	0.2	voilier	17	noun	list	2	10	match	beaucoup	4	1	y	0.70777
138.33650000000003	0.0	+	17	noun	list	2	11	match	beaucoup	4	1	y	0.70777
138.7363	0.0	+	17	noun	list	2	12	match	beaucoup	4	1	y	0.70777
140.7354	0.0	BEAUCOUP	17	noun	list	2	13	match	beaucoup	4	1	y	0.70777
141.5017	0.0	+	17	noun	list	2	14	match	beaucoup	4	1	y	0.70777
141.44320000000002	0.0	[response]	17	noun	list	2	15	match	beaucoup	4	1	y	0.70777
143.13430000000002	0.0	+	18	verb	phrase	3	1	nomatch	doit	-1	1	p	0.94438
143.68410000000003	0.2	qdnt	18	verb	phrase	3	2	nomatch	doit	-1	1	p	0.94438
143.884	0.0	+	18	verb	phrase	3	3	nomatch	doit	-1	1	p	0.94438
144.2838	0.2	gjnb	18	verb	phrase	3	4	nomatch	doit	-1	1	p	0.94438
144.48370000000003	0.0	+	18	verb	phrase	3	5	nomatch	doit	-1	1	p	0.94438
144.88360000000003	0.2	peut	18	verb	phrase	3	6	nomatch	doit	-1	1	p	0.94438
145.10010000000003	0.0	+	18	verb	phrase	3	7	nomatch	doit	-1	1	p	0.94438
145.4999	0.2	trop	18	verb	phrase	3	8	nomatch	doit	-1	1	p	0.94438
145.6998	0.0	+	18	verb	phrase	3	9	nomatch	doit	-1	1	p	0.94438
146.0997	0.2	voyager	18	verb	phrase	3	10	nomatch	doit	-1	1	p	0.94438
146.29960000000003	0.0	+	18	verb	phrase	3	11	nomatch	doit	-1	1	p	0.94438
146.6994	0.0	+	18	verb	phrase	3	12	nomatch	doit	-1	1	p	0.94438
148.6985	0.0	DOIT	18	verb	phrase	3	13	nomatch	doit	-1	1	p	0.94438
149.69810000000004	0.0	+	18	verb	phrase	3	14	nomatch	doit	-1	1	p	0.94438
149.64290000000003	0.0	[response]	18	verb	phrase	3	15	nomatch	doit	-1	1	p	0.94438
151.09740000000002	0.0	+	19	noun	phrase	4	1	nomatch	beaucoup	-1	1	p	0.86064
151.64720000000003	0.2	rtxzbq	19	noun	phrase	4	2	nomatch	beaucoup	-1	1	p	0.86064
151.84709999999998	0.0	+	19	noun	phrase	4	3	nomatch	beaucoup	-1	1	p	0.86064
152.2469	0.2	sans	19	noun	phrase	4	4	nomatch	beaucoup	-1	1	p	0.86064
152.44680000000002	0.0	+	19	noun	phrase	4	5	nomatch	beaucoup	-1	1	p	0.86064
152.84670000000003	0.2	mon	19	noun	phrase	4	6	nomatch	beaucoup	-1	1	p	0.86064
153.04659999999998	0.0	+	19	noun	phrase	4	7	nomatch	beaucoup	-1	1	p	0.86064
153.4464	0.2	voilier	19	noun	phrase	4	8	nomatch	beaucoup	-1	1	p	0.86064
153.64630000000002	0.0	+	19	noun	phrase	4	9	nomatch	beaucoup	-1	1	p	0.86064
154.0461	0.2	rouge	19	noun	phrase	4	10	nomatch	beaucoup	-1	1	p	0.86064
154.246	0.0	+	19	noun	phrase	4	11	nomatch	beaucoup	-1	1	p	0.86064
154.6459	0.0	+	19	noun	phrase	4	12	nomatch	beaucoup	-1	1	p	0.86064
156.645	0.0	BEAUCOUP	19	noun	phrase	4	13	nomatch	beaucoup	-1	1	p	0.86064
157.5612	0.0	+	19	noun	phrase	4	14	nomatch	beaucoup	-1	1	p	0.86064
157.5056	0.0	[response]	19	noun	phrase	4	15	nomatch	beaucoup	-1	1	p	0.86064
159.04390000000004	0.0	+	20	verb	phrase	2	1	match	vite	5	1	y	0.7622900000000001
159.59369999999998	0.2	khqdwrt	20	verb	phrase	2	2	match	vite	5	1	y	0.7622900000000001
159.7936	0.0	+	20	verb	phrase	2	3	match	vite	5	1	y	0.7622900000000001
160.19340000000003	0.2	npvf	20	verb	phrase	2	4	match	vite	5	1	y	0.7622900000000001
160.39330000000004	0.0	+	20	verb	phrase	2	5	match	vite	5	1	y	0.7622900000000001
160.7931	0.2	mvbw	20	verb	phrase	2	6	match	vite	5	1	y	0.7622900000000001
160.99300000000002	0.0	+	20	verb	phrase	2	7	match	vite	5	1	y	0.7622900000000001
161.39290000000003	0.2	voyager	20	verb	phrase	2	8	match	vite	5	1	y	0.7622900000000001
161.59280000000004	0.0	+	20	verb	phrase	2	9	match	vite	5	1	y	0.7622900000000001
161.9926	0.2	vite	20	verb	phrase	2	10	match	vite	5	1	y	0.7622900000000001
162.19250000000002	0.0	+	20	verb	phrase	2	11	match	vite	5	1	y	0.7622900000000001
162.5923	0.0	+	20	verb	phrase	2	12	match	vite	5	1	y	0.7622900000000001
164.5914	0.0	VITE	20	verb	phrase	2	13	match	vite	5	1	y	0.7622900000000001
165.4077	0.0	+	20	verb	phrase	2	14	match	vite	5	1	y	0.7622900000000001
165.35370000000003	0.0	[response]	20	verb	phrase	2	15	match	vite	5	1	y	0.7622900000000001
166.99030000000002	0.0	+	21	noun	list	2	1	nomatch	petit	-1	1	p	0.67208
167.54010000000002	0.2	rxvghzs	21	noun	list	2	2	nomatch	petit	-1	1	p	0.67208
167.74000000000004	0.0	+	21	noun	list	2	3	nomatch	petit	-1	1	p	0.67208
168.1398	0.2	pkq	21	noun	list	2	4	nomatch	petit	-1	1	p	0.67208
168.3398	0.0	+	21	noun	list	2	5	nomatch	petit	-1	1	p	0.67208
168.73960000000002	0.2	lj	21	noun	list	2	6	nomatch	petit	-1	1	p	0.67208
168.93950000000004	0.0	+	21	noun	list	2	7	nomatch	petit	-1	1	p	0.67208
169.3393	0.2	panier	21	noun	list	2	8	nomatch	petit	-1	1	p	0.67208
169.53920000000002	0.0	+	21	noun	list	2	9	nomatch	petit	-1	1	p	0.67208
169.939	0.2	ainsi	21	noun	list	2	10	nomatch	petit	-1	1	p	0.67208
170.1389	0.0	+	21	noun	list	2	11	nomatch	petit	-1	1	p	0.67208
170.5388	0.0	+	21	noun	list	2	12	nomatch	petit	-1	1	p	0.67208
172.5379	0.0	PETIT	21	noun	list	2	13	nomatch	petit	-1	1	p	0.67208
173.2709	0.0	+	21	noun	list	2	14	nomatch	petit	-1	1	p	0.67208
173.21	0.0	[response]	21	noun	list	2	15	nomatch	petit	-1	1	p	0.67208
174.93680000000003	0.0	+	22	noun	list	3	1	nomatch	rouge	-1	1	p	0.63131
175.48660000000004	0.2	xzvmpk	22	noun	list	3	2	nomatch	rouge	-1	1	p	0.63131
175.6865	0.0	+	22	noun	list	3	3	nomatch	rouge	-1	1	p	0.63131
176.08630000000002	0.2	gjnb	22	noun	list	3	4	nomatch	rouge	-1	1	p	0.63131
176.28620000000004	0.0	+	22	noun	list	3	5	nomatch	rouge	-1	1	p	0.63131
176.686	0.2	leur	22	noun	list	3	6	nomatch	rouge	-1	1	p	0.63131
176.88590000000002	0.0	+	22	noun	list	3	7	nomatch	rouge	-1	1	p	0.63131
177.28580000000002	0.2	trop	22	noun	list	3	8	nomatch	rouge	-1	1	p	0.63131
177.48570000000004	0.0	+	22	noun	list	3	9	nomatch	rouge	-1	1	p	0.63131
177.8855	0.2	casier	22	noun	list	3	10	nomatch	rouge	-1	1	p	0.63131
178.08540000000002	0.0	+	22	noun	list	3	11	nomatch	rouge	-1	1	p	0.63131
178.4852	0.0	+	22	noun	list	3	12	nomatch	rouge	-1	1	p	0.63131
180.4843	0.0	ROUGE	22	noun	list	3	13	nomatch	rouge	-1	1	p	0.63131
181.16740000000001	0.0	+	22	noun	list	3	14	nomatch	rouge	-1	1	p	0.63131
181.1156	0.0	[response]	22	noun	list	3	15	nomatch	rouge	-1	1	p	0.63131
182.89990000000003	0.0	+	23	verb	phrase	3	1	nomatch	rocher	-1	1	p	1.2663
183.44970000000004	0.2	mgxzhqt	23	verb	phrase	3	2	nomatch	rocher	-1	1	p	1.2663
183.6496	0.0	+	23	verb	phrase	3	3	nomatch	rocher	-1	1	p	1.2663
184.04940000000002	0.2	lgnz	23	verb	phrase	3	4	nomatch	rocher	-1	1	p	1.2663
184.24930000000003	0.0	+	23	verb	phrase	3	5	nomatch	rocher	-1	1	p	1.2663
184.6491	0.2	peut	23	verb	phrase	3	6	nomatch	rocher	-1	1	p	1.2663
184.84900000000002	0.0	+	23	verb	phrase	3	7	nomatch	rocher	-1	1	p	1.2663
185.24890000000002	0.2	moins	23	verb	phrase	3	8	nomatch	rocher	-1	1	p	1.2663
185.44880000000003	0.0	+	23	verb	phrase	3	9	nomatch	rocher	-1	1	p	1.2663
185.8486	0.2	rouler	23	verb	phrase	3	10	nomatch	rocher	-1	1	p	1.2663
186.04850000000002	0.0	+	23	verb	phrase	3	11	nomatch	rocher	-1	1	p	1.2663
186.4483	0.0	+	23	verb	phrase	3	12	nomatch	rocher	-1	1	p	1.2663
188.4474	0.0	ROCHER	23	verb	phrase	3	13	nomatch	rocher	-1	1	p	1.2663
189.7802	0.0	+	23	verb	phrase	3	14	nomatch	rocher	-1	1	p	1.2663
189.71370000000005	0.0	[response]	23	verb	phrase	3	15	nomatch	rocher	-1	1	p	1.2663
190.8464	0.0	+	24	noun	list	2	1	nomatch	mieux	-1	1	p	0.75873
191.39610000000002	0.2	vgn	24	noun	list	2	2	nomatch	mieux	-1	1	p	0.75873
191.59600000000003	0.0	+	24	noun	list	2	3	nomatch	mieux	-1	1	p	0.75873
191.99590000000003	0.2	rflt	24	noun	list	2	4	nomatch	mieux	-1	1	p	0.75873
192.1958	0.0	+	24	noun	list	2	5	nomatch	mieux	-1	1	p	0.75873
192.59560000000002	0.2	mvbw	24	noun	list	2	6	nomatch	mieux	-1	1	p	0.75873
192.79550000000003	0.0	+	24	noun	list	2	7	nomatch	mieux	-1	1	p	0.75873
193.1953	0.2	tablier	24	noun	list	2	8	nomatch	mieux	-1	1	p	0.75873
193.39520000000002	0.0	+	24	noun	list	2	9	nomatch	mieux	-1	1	p	0.75873
193.79510000000002	0.2	ainsi	24	noun	list	2	10	nomatch	mieux	-1	1	p	0.75873
193.99500000000003	0.0	+	24	noun	list	2	11	nomatch	mieux	-1	1	p	0.75873
194.3948	0.0	+	24	noun	list	2	12	nomatch	mieux	-1	1	p	0.75873
196.3939	0.0	MIEUX	24	noun	list	2	13	nomatch	mieux	-1	1	p	0.75873
197.21020000000001	0.0	+	24	noun	list	2	14	nomatch	mieux	-1	1	p	0.75873
197.15260000000004	0.0	[response]	24	noun	list	2	15	nomatch	mieux	-1	1	p	0.75873
198.79280000000003	0.0	+	25	noun	phrase	1	1	match	bleu	5	1	y	0.82439
199.34260000000003	0.2	nmxrcft	25	noun	phrase	1	2	match	bleu	5	1	y	0.82439
199.5425	0.0	+	25	noun	phrase	1	3	match	bleu	5	1	y	0.82439
199.94230000000002	0.2	lnjp	25	noun	phrase	1	4	match	bleu	5	1	y	0.82439
200.14220000000003	0.0	+	25	noun	phrase	1	5	match	bleu	5	1	y	0.82439
200.542	0.2	fpmt	25	noun	phrase	1	6	match	bleu	5	1	y	0.82439
200.742	0.0	+	25	noun	phrase	1	7	match	bleu	5	1	y	0.82439
201.14180000000002	0.2	cmjsxw	25	noun	phrase	1	8	match	bleu	5	1	y	0.82439
201.34170000000003	0.0	+	25	noun	phrase	1	9	match	bleu	5	1	y	0.82439
201.7415	0.2	bleu	25	noun	phrase	1	10	match	bleu	5	1	y	0.82439
201.94140000000002	0.0	+	25	noun	phrase	1	11	match	bleu	5	1	y	0.82439
202.3412	0.0	+	25	noun	phrase	1	12	match	bleu	5	1	y	0.82439
204.34029999999998	0.0	BLEU	25	noun	phrase	1	13	match	bleu	5	1	y	0.82439
205.22330000000002	0.0	+	25	noun	phrase	1	14	match	bleu	5	1	y	0.82439
205.1647	0.0	[response]	25	noun	phrase	1	15	match	bleu	5	1	y	0.82439
206.7393	0.0	+	26	noun	phrase	1	1	match	cendrier	5	1	y	0.74415
207.28900000000002	0.2	csbpn	26	noun	phrase	1	2	match	cendrier	5	1	y	0.74415
207.48890000000003	0.0	+	26	noun	phrase	1	3	match	cendrier	5	1	y	0.74415
207.88880000000003	0.2	wpsh	26	noun	phrase	1	4	match	cendrier	5	1	y	0.74415
208.0887	0.0	+	26	noun	phrase	1	5	match	cendrier	5	1	y	0.74415
208.48850000000002	0.2	zxd	26	noun	phrase	1	6	match	cendrier	5	1	y	0.74415
208.68840000000003	0.0	+	26	noun	phrase	1	7	match	cendrier	5	1	y	0.74415
209.0882	0.2	fpjc	26	noun	phrase	1	8	match	cendrier	5	1	y	0.74415
209.28810000000001	0.0	+	26	noun	phrase	1	9	match	cendrier	5	1	y	0.74415
209.68800000000002	0.2	cendrier	26	noun	phrase	1	10	match	cendrier	5	1	y	0.74415
209.88790000000003	0.0	+	26	noun	phrase	1	11	match	cendrier	5	1	y	0.74415
210.2877	0.0	+	26	noun	phrase	1	12	match	cendrier	5	1	y	0.74415
212.2868	0.0	CENDRIER	26	noun	phrase	1	13	match	cendrier	5	1	y	0.74415
213.0864	0.0	+	26	noun	phrase	1	14	match	cendrier	5	1	y	0.74415
213.0310000000001	0.0	[response]	26	noun	phrase	1	15	match	cendrier	5	1	y	0.74415
214.68570000000003	0.0	+	27	noun	list	1	1	match	mieux	5	1	y	0.70671
215.23550000000003	0.2	htjrgcn	27	noun	list	1	2	match	mieux	5	1	y	0.70671
215.4354	0.0	+	27	noun	list	1	3	match	mieux	5	1	y	0.70671
215.83520000000001	0.2	gjnb	27	noun	list	1	4	match	mieux	5	1	y	0.70671
216.03510000000003	0.0	+	27	noun	list	1	5	match	mieux	5	1	y	0.70671
216.43500000000003	0.2	kmc	27	noun	list	1	6	match	mieux	5	1	y	0.70671
216.6349	0.0	+	27	noun	list	1	7	match	mieux	5	1	y	0.70671
217.03470000000002	0.2	cmjsxw	27	noun	list	1	8	match	mieux	5	1	y	0.70671
217.23460000000003	0.0	+	27	noun	list	1	9	match	mieux	5	1	y	0.70671
217.6344	0.2	mieux	27	noun	list	1	10	match	mieux	5	1	y	0.70671
217.8343	0.0	+	27	noun	list	1	11	match	mieux	5	1	y	0.70671
218.23420000000002	0.0	+	27	noun	list	1	12	match	mieux	5	1	y	0.70671
220.2499	0.0	MIEUX	27	noun	list	1	13	match	mieux	5	1	y	0.70671
221.0162	0.0	+	27	noun	list	1	14	match	mieux	5	1	y	0.70671
220.95660000000007	0.0	[response]	27	noun	list	1	15	match	mieux	5	1	y	0.70671
222.64880000000002	0.0	+	28	verb	phrase	1	1	nomatch	plus	-1	1	p	0.6493
223.19860000000003	0.2	qhwfv	28	verb	phrase	1	2	nomatch	plus	-1	1	p	0.6493
223.39849999999998	0.0	+	28	verb	phrase	1	3	nomatch	plus	-1	1	p	0.6493
223.7983	0.2	hfk	28	verb	phrase	1	4	nomatch	plus	-1	1	p	0.6493
223.99820000000003	0.0	+	28	verb	phrase	1	5	nomatch	plus	-1	1	p	0.6493
224.39810000000003	0.2	nblj	28	verb	phrase	1	6	nomatch	plus	-1	1	p	0.6493
224.59799999999998	0.0	+	28	verb	phrase	1	7	nomatch	plus	-1	1	p	0.6493
224.9978	0.2	vczkjpt	28	verb	phrase	1	8	nomatch	plus	-1	1	p	0.6493
225.19770000000003	0.0	+	28	verb	phrase	1	9	nomatch	plus	-1	1	p	0.6493
225.5975	0.2	beaucoup	28	verb	phrase	1	10	nomatch	plus	-1	1	p	0.6493
225.7974	0.0	+	28	verb	phrase	1	11	nomatch	plus	-1	1	p	0.6493
226.1973	0.0	+	28	verb	phrase	1	12	nomatch	plus	-1	1	p	0.6493
228.1964	0.0	PLUS	28	verb	phrase	1	13	nomatch	plus	-1	1	p	0.6493
228.9127	0.0	+	28	verb	phrase	1	14	nomatch	plus	-1	1	p	0.6493
228.8457	0.0	[response]	28	verb	phrase	1	15	nomatch	plus	-1	1	p	0.6493
238.59170000000003	0.0	+	29	verb	list	2	1	nomatch	trop	-1	1	p	1.0707
239.14150000000004	0.2	gdcjs	29	verb	list	2	2	nomatch	trop	-1	1	p	1.0707
239.3414	0.0	+	29	verb	list	2	3	nomatch	trop	-1	1	p	1.0707
239.74120000000002	0.2	fgvt	29	verb	list	2	4	nomatch	trop	-1	1	p	1.0707
239.94110000000003	0.0	+	29	verb	list	2	5	nomatch	trop	-1	1	p	1.0707
240.34100000000004	0.2	mvbw	29	verb	list	2	6	nomatch	trop	-1	1	p	1.0707
240.5409	0.0	+	29	verb	list	2	7	nomatch	trop	-1	1	p	1.0707
240.94070000000002	0.2	grand	29	verb	list	2	8	nomatch	trop	-1	1	p	1.0707
241.14060000000003	0.0	+	29	verb	list	2	9	nomatch	trop	-1	1	p	1.0707
241.5404	0.2	voyager	29	verb	list	2	10	nomatch	trop	-1	1	p	1.0707
241.74030000000002	0.0	+	29	verb	list	2	11	nomatch	trop	-1	1	p	1.0707
242.14020000000002	0.0	+	29	verb	list	2	12	nomatch	trop	-1	1	p	1.0707
244.13930000000002	0.0	TROP	29	verb	list	2	13	nomatch	trop	-1	1	p	1.0707
245.2721	0.0	+	29	verb	list	2	14	nomatch	trop	-1	1	p	1.0707
245.20990000000003	0.0	[response]	29	verb	list	2	15	nomatch	trop	-1	1	p	1.0707
246.5382	0.0	+	30	verb	list	1	1	match	parader	5	1	y	0.70045
247.08790000000002	0.2	dzhxrw	30	verb	list	1	2	match	parader	5	1	y	0.70045
247.2879	0.0	+	30	verb	list	1	3	match	parader	5	1	y	0.70045
247.68770000000004	0.2	jhvb	30	verb	list	1	4	match	parader	5	1	y	0.70045
247.8876	0.0	+	30	verb	list	1	5	match	parader	5	1	y	0.70045
248.28740000000002	0.2	zxd	30	verb	list	1	6	match	parader	5	1	y	0.70045
248.48730000000003	0.0	+	30	verb	list	1	7	match	parader	5	1	y	0.70045
248.8873	0.2	kwmcf	30	verb	list	1	8	match	parader	5	1	y	0.70045
249.0871	0.0	+	30	verb	list	1	9	match	parader	5	1	y	0.70045
249.48690000000002	0.2	parader	30	verb	list	1	10	match	parader	5	1	y	0.70045
249.68680000000003	0.0	+	30	verb	list	1	11	match	parader	5	1	y	0.70045
250.0866	0.0	+	30	verb	list	1	12	match	parader	5	1	y	0.70045
252.0857	0.0	PARADER	30	verb	list	1	13	match	parader	5	1	y	0.70045
252.85210000000004	0.0	+	30	verb	list	1	14	match	parader	5	1	y	0.70045
252.78620000000004	0.0	[response]	30	verb	list	1	15	match	parader	5	1	y	0.70045
254.48460000000003	0.0	+	31	noun	list	1	1	nomatch	vite	-1	1	p	1.0587
255.03440000000003	0.2	nbds	31	noun	list	1	2	nomatch	vite	-1	1	p	1.0587
255.2343	0.0	+	31	noun	list	1	3	nomatch	vite	-1	1	p	1.0587
255.63410000000002	0.2	npvf	31	noun	list	1	4	nomatch	vite	-1	1	p	1.0587
255.83400000000003	0.0	+	31	noun	list	1	5	nomatch	vite	-1	1	p	1.0587
256.23390000000006	0.2	kmc	31	noun	list	1	6	nomatch	vite	-1	1	p	1.0587
256.4338	0.0	+	31	noun	list	1	7	nomatch	vite	-1	1	p	1.0587
256.83360000000005	0.2	nzmklh	31	noun	list	1	8	nomatch	vite	-1	1	p	1.0587
257.0502	0.0	+	31	noun	list	1	9	nomatch	vite	-1	1	p	1.0587
257.45000000000005	0.2	trop	31	noun	list	1	10	nomatch	vite	-1	1	p	1.0587
257.6499	0.0	+	31	noun	list	1	11	nomatch	vite	-1	1	p	1.0587
258.04970000000003	0.0	+	31	noun	list	1	12	nomatch	vite	-1	1	p	1.0587
260.0488	0.0	VITE	31	noun	list	1	13	nomatch	vite	-1	1	p	1.0587
261.1650000000001	0.0	+	31	noun	list	1	14	nomatch	vite	-1	1	p	1.0587
261.10760000000005	0.0	[response]	31	noun	list	1	15	nomatch	vite	-1	1	p	1.0587
262.44780000000003	0.0	+	32	verb	list	3	1	match	nager	4	1	y	0.70678
262.99750000000006	0.2	klvf	32	verb	list	3	2	match	nager	4	1	y	0.70678
263.1974	0.0	+	32	verb	list	3	3	match	nager	4	1	y	0.70678
263.5973	0.2	jhvb	32	verb	list	3	4	match	nager	4	1	y	0.70678
263.7972000000001	0.0	+	32	verb	list	3	5	match	nager	4	1	y	0.70678
264.197	0.2	leur	32	verb	list	3	6	match	nager	4	1	y	0.70678
264.3969000000001	0.0	+	32	verb	list	3	7	match	nager	4	1	y	0.70678
264.7967	0.2	nager	32	verb	list	3	8	match	nager	4	1	y	0.70678
264.99660000000006	0.0	+	32	verb	list	3	9	match	nager	4	1	y	0.70678
265.39650000000006	0.2	vert	32	verb	list	3	10	match	nager	4	1	y	0.70678
265.5964	0.0	+	32	verb	list	3	11	match	nager	4	1	y	0.70678
265.99620000000004	0.0	+	32	verb	list	3	12	match	nager	4	1	y	0.70678
267.99530000000004	0.0	NAGER	32	verb	list	3	13	match	nager	4	1	y	0.70678
268.76160000000004	0.0	+	32	verb	list	3	14	match	nager	4	1	y	0.70678
268.7021000000001	0.0	[response]	32	verb	list	3	15	match	nager	4	1	y	0.70678
278.39060000000006	0.0	+	33	noun	list	1	1	match	beaucoup	5	1	y	0.65509
278.94040000000007	0.2	cqdrmv	33	noun	list	1	2	match	beaucoup	5	1	y	0.65509
279.1403	0.0	+	33	noun	list	1	3	match	beaucoup	5	1	y	0.65509
279.54010000000005	0.2	htzd	33	noun	list	1	4	match	beaucoup	5	1	y	0.65509
279.7401	0.0	+	33	noun	list	1	5	match	beaucoup	5	1	y	0.65509
280.1399	0.2	kmc	33	noun	list	1	6	match	beaucoup	5	1	y	0.65509
280.3398000000001	0.0	+	33	noun	list	1	7	match	beaucoup	5	1	y	0.65509
280.7396	0.2	fwrxghp	33	noun	list	1	8	match	beaucoup	5	1	y	0.65509
280.93950000000007	0.0	+	33	noun	list	1	9	match	beaucoup	5	1	y	0.65509
281.3393000000001	0.2	beaucoup	33	noun	list	1	10	match	beaucoup	5	1	y	0.65509
281.53920000000005	0.0	+	33	noun	list	1	11	match	beaucoup	5	1	y	0.65509
281.93910000000005	0.0	+	33	noun	list	1	12	match	beaucoup	5	1	y	0.65509
283.9384	0.0	BEAUCOUP	33	noun	list	1	13	match	beaucoup	5	1	y	0.65509
284.6545	0.0	+	33	noun	list	1	14	match	beaucoup	5	1	y	0.65509
284.59350000000006	0.0	[response]	33	noun	list	1	15	match	beaucoup	5	1	y	0.65509
286.33720000000005	0.0	+	34	noun	phrase	4	1	match	sous	2	1	y	1.1311
286.8869000000001	0.2	xvdtpz	34	noun	phrase	4	2	match	sous	2	1	y	1.1311
287.08680000000004	0.0	+	34	noun	phrase	4	3	match	sous	2	1	y	1.1311
287.48660000000007	0.2	sous	34	noun	phrase	4	4	match	sous	2	1	y	1.1311
287.6865	0.0	+	34	noun	phrase	4	5	match	sous	2	1	y	1.1311
288.08630000000005	0.2	leur	34	noun	phrase	4	6	match	sous	2	1	y	1.1311
288.2862	0.0	+	34	noun	phrase	4	7	match	sous	2	1	y	1.1311
288.68600000000004	0.2	beau	34	noun	phrase	4	8	match	sous	2	1	y	1.1311
288.8860000000001	0.0	+	34	noun	phrase	4	9	match	sous	2	1	y	1.1311
289.2858	0.2	clavier	34	noun	phrase	4	10	match	sous	2	1	y	1.1311
289.48570000000007	0.0	+	34	noun	phrase	4	11	match	sous	2	1	y	1.1311
289.8855000000001	0.0	+	34	noun	phrase	4	12	match	sous	2	1	y	1.1311
291.8846000000001	0.0	SOUS	34	noun	phrase	4	13	match	sous	2	1	y	1.1311
293.08410000000003	0.0	+	34	noun	phrase	4	14	match	sous	2	1	y	1.1311
293.01570000000004	0.0	[response]	34	noun	phrase	4	15	match	sous	2	1	y	1.1311
294.2836000000001	0.0	+	35	noun	list	3	1	match	son	3	1	y	1.2289
294.85	0.2	qgctvz	35	noun	list	3	2	match	son	3	1	y	1.2289
295.0499000000001	0.0	+	35	noun	list	3	3	match	son	3	1	y	1.2289
295.4497	0.2	qhft	35	noun	list	3	4	match	son	3	1	y	1.2289
295.6496000000001	0.0	+	35	noun	list	3	5	match	son	3	1	y	1.2289
296.0494	0.2	son	35	noun	list	3	6	match	son	3	1	y	1.2289
296.24930000000006	0.0	+	35	noun	list	3	7	match	son	3	1	y	1.2289
296.64920000000006	0.2	beaucoup	35	noun	list	3	8	match	son	3	1	y	1.2289
296.8491	0.0	+	35	noun	list	3	9	match	son	3	1	y	1.2289
297.24890000000005	0.2	sablier	35	noun	list	3	10	match	son	3	1	y	1.2289
297.4488	0.0	+	35	noun	list	3	11	match	son	3	1	y	1.2289
297.84860000000003	0.0	+	35	noun	list	3	12	match	son	3	1	y	1.2289
299.84770000000003	0.0	SON	35	noun	list	3	13	match	son	3	1	y	1.2289
301.1305	0.0	+	35	noun	list	3	14	match	son	3	1	y	1.2289
301.0766	0.0	[response]	35	noun	list	3	15	match	son	3	1	y	1.2289
302.24670000000003	0.0	+	36	noun	phrase	1	1	nomatch	clavier	-1	1	p	0.9922200000000001
302.79640000000006	0.2	rsqbtf	36	noun	phrase	1	2	nomatch	clavier	-1	1	p	0.9922200000000001
302.9963	0.0	+	36	noun	phrase	1	3	nomatch	clavier	-1	1	p	0.9922200000000001
303.3962	0.2	fgvt	36	noun	phrase	1	4	nomatch	clavier	-1	1	p	0.9922200000000001
303.5961000000001	0.0	+	36	noun	phrase	1	5	nomatch	clavier	-1	1	p	0.9922200000000001
303.9959	0.2	fpmt	36	noun	phrase	1	6	nomatch	clavier	-1	1	p	0.9922200000000001
304.1958000000001	0.0	+	36	noun	phrase	1	7	nomatch	clavier	-1	1	p	0.9922200000000001
304.5956	0.2	bwjlr	36	noun	phrase	1	8	nomatch	clavier	-1	1	p	0.9922200000000001
304.79550000000006	0.0	+	36	noun	phrase	1	9	nomatch	clavier	-1	1	p	0.9922200000000001
305.19540000000006	0.2	voilier	36	noun	phrase	1	10	nomatch	clavier	-1	1	p	0.9922200000000001
305.3953	0.0	+	36	noun	phrase	1	11	nomatch	clavier	-1	1	p	0.9922200000000001
305.79510000000005	0.0	+	36	noun	phrase	1	12	nomatch	clavier	-1	1	p	0.9922200000000001
307.79420000000005	0.0	CLAVIER	36	noun	phrase	1	13	nomatch	clavier	-1	1	p	0.9922200000000001
308.8437	0.0	+	36	noun	phrase	1	14	nomatch	clavier	-1	1	p	0.9922200000000001
308.78640000000007	0.0	[response]	36	noun	phrase	1	15	nomatch	clavier	-1	1	p	0.9922200000000001
318.18960000000004	0.0	+	37	verb	phrase	1	1	nomatch	avec	-1	1	p	1.0924
318.73930000000007	0.2	ntvw	37	verb	phrase	1	2	nomatch	avec	-1	1	p	1.0924
318.9392	0.0	+	37	verb	phrase	1	3	nomatch	avec	-1	1	p	1.0924
319.33900000000006	0.2	htzd	37	verb	phrase	1	4	nomatch	avec	-1	1	p	1.0924
319.5389	0.0	+	37	verb	phrase	1	5	nomatch	avec	-1	1	p	1.0924
319.9388	0.2	mvbw	37	verb	phrase	1	6	nomatch	avec	-1	1	p	1.0924
320.1387000000001	0.0	+	37	verb	phrase	1	7	nomatch	avec	-1	1	p	1.0924
320.5385	0.2	nft	37	verb	phrase	1	8	nomatch	avec	-1	1	p	1.0924
320.73840000000007	0.0	+	37	verb	phrase	1	9	nomatch	avec	-1	1	p	1.0924
321.1382	0.2	nager	37	verb	phrase	1	10	nomatch	avec	-1	1	p	1.0924
321.33810000000005	0.0	+	37	verb	phrase	1	11	nomatch	avec	-1	1	p	1.0924
321.73800000000006	0.0	+	37	verb	phrase	1	12	nomatch	avec	-1	1	p	1.0924
323.73710000000005	0.0	AVEC	37	verb	phrase	1	13	nomatch	avec	-1	1	p	1.0924
324.88660000000004	0.0	+	37	verb	phrase	1	14	nomatch	avec	-1	1	p	1.0924
324.82950000000005	0.0	[response]	37	verb	phrase	1	15	nomatch	avec	-1	1	p	1.0924
326.1360000000001	0.0	+	38	noun	list	3	1	match	ainsi	5	1	y	0.88715
326.6858000000001	0.2	txfrjg	38	noun	list	3	2	match	ainsi	5	1	y	0.88715
326.88570000000004	0.0	+	38	noun	list	3	3	match	ainsi	5	1	y	0.88715
327.28550000000007	0.2	nwdx	38	noun	list	3	4	match	ainsi	5	1	y	0.88715
327.4854	0.0	+	38	noun	list	3	5	match	ainsi	5	1	y	0.88715
327.88520000000005	0.2	peut	38	noun	list	3	6	match	ainsi	5	1	y	0.88715
328.0851	0.0	+	38	noun	list	3	7	match	ainsi	5	1	y	0.88715
328.485	0.2	tablier	38	noun	list	3	8	match	ainsi	5	1	y	0.88715
328.6849000000001	0.0	+	38	noun	list	3	9	match	ainsi	5	1	y	0.88715
329.0847	0.2	ainsi	38	noun	list	3	10	match	ainsi	5	1	y	0.88715
329.28460000000007	0.0	+	38	noun	list	3	11	match	ainsi	5	1	y	0.88715
329.6844000000001	0.0	+	38	noun	list	3	12	match	ainsi	5	1	y	0.88715
331.68370000000004	0.0	AINSI	38	noun	list	3	13	match	ainsi	5	1	y	0.88715
332.6331	0.0	+	38	noun	list	3	14	match	ainsi	5	1	y	0.88715
332.5708000000002	0.0	[response]	38	noun	list	3	15	match	ainsi	5	1	y	0.88715
334.0991	0.0	+	39	verb	list	2	1	nomatch	galoper	-1	1	p	1.3898
334.6489	0.2	rbkcz	39	verb	list	2	2	nomatch	galoper	-1	1	p	1.3898
334.8488000000001	0.0	+	39	verb	list	2	3	nomatch	galoper	-1	1	p	1.3898
335.2486	0.2	lgnz	39	verb	list	2	4	nomatch	galoper	-1	1	p	1.3898
335.4485000000001	0.0	+	39	verb	list	2	5	nomatch	galoper	-1	1	p	1.3898
335.8483	0.2	fpmt	39	verb	list	2	6	nomatch	galoper	-1	1	p	1.3898
336.04830000000004	0.0	+	39	verb	list	2	7	nomatch	galoper	-1	1	p	1.3898
336.44810000000007	0.2	chasser	39	verb	list	2	8	nomatch	galoper	-1	1	p	1.3898
336.648	0.0	+	39	verb	list	2	9	nomatch	galoper	-1	1	p	1.3898
337.04780000000005	0.2	blanc	39	verb	list	2	10	nomatch	galoper	-1	1	p	1.3898
337.2477	0.0	+	39	verb	list	2	11	nomatch	galoper	-1	1	p	1.3898
337.64750000000004	0.0	+	39	verb	list	2	12	nomatch	galoper	-1	1	p	1.3898
339.6467	0.0	GALOPER	39	verb	list	2	13	nomatch	galoper	-1	1	p	1.3898
341.096	0.0	+	39	verb	list	2	14	nomatch	galoper	-1	1	p	1.3898
341.03640000000007	0.0	[response]	39	verb	list	2	15	nomatch	galoper	-1	1	p	1.3898
342.04560000000004	0.0	+	40	noun	phrase	1	1	match	petit	5	1	y	0.55208
342.59530000000007	0.2	wsjd	40	noun	phrase	1	2	match	petit	5	1	y	0.55208
342.7952	0.0	+	40	noun	phrase	1	3	match	petit	5	1	y	0.55208
343.1951	0.2	wpsh	40	noun	phrase	1	4	match	petit	5	1	y	0.55208
343.3950000000001	0.0	+	40	noun	phrase	1	5	match	petit	5	1	y	0.55208
343.7948	0.2	kmc	40	noun	phrase	1	6	match	petit	5	1	y	0.55208
343.9947000000001	0.0	+	40	noun	phrase	1	7	match	petit	5	1	y	0.55208
344.3945	0.2	nzmklh	40	noun	phrase	1	8	match	petit	5	1	y	0.55208
344.59440000000006	0.0	+	40	noun	phrase	1	9	match	petit	5	1	y	0.55208
344.99430000000007	0.2	petit	40	noun	phrase	1	10	match	petit	5	1	y	0.55208
345.1942	0.0	+	40	noun	phrase	1	11	match	petit	5	1	y	0.55208
345.59400000000005	0.0	+	40	noun	phrase	1	12	match	petit	5	1	y	0.55208
347.59310000000005	0.0	PETIT	40	noun	phrase	1	13	match	petit	5	1	y	0.55208
348.20950000000005	0.0	+	40	noun	phrase	1	14	match	petit	5	1	y	0.55208
348.14520000000005	0.0	[response]	40	noun	phrase	1	15	match	petit	5	1	y	0.55208
349.9920000000001	0.0	+	41	noun	list	1	1	nomatch	sablier	-1	1	p	1.2702
350.5418000000001	0.2	vwj	41	noun	list	1	2	nomatch	sablier	-1	1	p	1.2702
350.74170000000004	0.0	+	41	noun	list	1	3	nomatch	sablier	-1	1	p	1.2702
351.14150000000006	0.2	jhvb	41	noun	list	1	4	nomatch	sablier	-1	1	p	1.2702
351.3414	0.0	+	41	noun	list	1	5	nomatch	sablier	-1	1	p	1.2702
351.74120000000005	0.2	fpmt	41	noun	list	1	6	nomatch	sablier	-1	1	p	1.2702
351.9412000000001	0.0	+	41	noun	list	1	7	nomatch	sablier	-1	1	p	1.2702
352.341	0.2	znptx	41	noun	list	1	8	nomatch	sablier	-1	1	p	1.2702
352.5412	0.0	+	41	noun	list	1	9	nomatch	sablier	-1	1	p	1.2702
352.9407	0.2	casier	41	noun	list	1	10	nomatch	sablier	-1	1	p	1.2702
353.14060000000006	0.0	+	41	noun	list	1	11	nomatch	sablier	-1	1	p	1.2702
353.5404000000001	0.0	+	41	noun	list	1	12	nomatch	sablier	-1	1	p	1.2702
355.5395000000001	0.0	SABLIER	41	noun	list	1	13	nomatch	sablier	-1	1	p	1.2702
356.8723	0.0	+	41	noun	list	1	14	nomatch	sablier	-1	1	p	1.2702
356.8098	0.0	[response]	41	noun	list	1	15	nomatch	sablier	-1	1	p	1.2702
357.9385000000001	0.0	+	42	noun	phrase	2	1	nomatch	voilier	-1	1	p	1.4999000000000002
358.4882	0.2	dnmr	42	noun	phrase	2	2	nomatch	voilier	-1	1	p	1.4999000000000002
358.6881000000001	0.0	+	42	noun	phrase	2	3	nomatch	voilier	-1	1	p	1.4999000000000002
359.0880000000001	0.2	fgvt	42	noun	phrase	2	4	nomatch	voilier	-1	1	p	1.4999000000000002
359.28790000000004	0.0	+	42	noun	phrase	2	5	nomatch	voilier	-1	1	p	1.4999000000000002
359.68770000000006	0.2	kmc	42	noun	phrase	2	6	nomatch	voilier	-1	1	p	1.4999000000000002
359.8876	0.0	+	42	noun	phrase	2	7	nomatch	voilier	-1	1	p	1.4999000000000002
360.28740000000005	0.2	panier	42	noun	phrase	2	8	nomatch	voilier	-1	1	p	1.4999000000000002
360.4873	0.0	+	42	noun	phrase	2	9	nomatch	voilier	-1	1	p	1.4999000000000002
360.8872	0.2	blanc	42	noun	phrase	2	10	nomatch	voilier	-1	1	p	1.4999000000000002
361.0871000000001	0.0	+	42	noun	phrase	2	11	nomatch	voilier	-1	1	p	1.4999000000000002
361.4869	0.0	+	42	noun	phrase	2	12	nomatch	voilier	-1	1	p	1.4999000000000002
363.486	0.0	VOILIER	42	noun	phrase	2	13	nomatch	voilier	-1	1	p	1.4999000000000002
365.052	0.0	+	42	noun	phrase	2	14	nomatch	voilier	-1	1	p	1.4999000000000002
364.9859	0.0	[response]	42	noun	phrase	2	15	nomatch	voilier	-1	1	p	1.4999000000000002
365.8849	0.0	+	43	verb	phrase	4	1	nomatch	nager	-1	1	p	2.0394
366.4347	0.2	vknj	43	verb	phrase	4	2	nomatch	nager	-1	1	p	2.0394
366.6346000000001	0.0	+	43	verb	phrase	4	3	nomatch	nager	-1	1	p	2.0394
367.0344	0.2	paul	43	verb	phrase	4	4	nomatch	nager	-1	1	p	2.0394
367.2343000000001	0.0	+	43	verb	phrase	4	5	nomatch	nager	-1	1	p	2.0394
367.6342000000001	0.2	doit	43	verb	phrase	4	6	nomatch	nager	-1	1	p	2.0394
367.83410000000003	0.0	+	43	verb	phrase	4	7	nomatch	nager	-1	1	p	2.0394
368.23390000000006	0.2	trop	43	verb	phrase	4	8	nomatch	nager	-1	1	p	2.0394
368.4338	0.0	+	43	verb	phrase	4	9	nomatch	nager	-1	1	p	2.0394
368.83360000000005	0.2	voyager	43	verb	phrase	4	10	nomatch	nager	-1	1	p	2.0394
369.0502	0.0	+	43	verb	phrase	4	11	nomatch	nager	-1	1	p	2.0394
369.45000000000005	0.0	+	43	verb	phrase	4	12	nomatch	nager	-1	1	p	2.0394
371.44910000000004	0.0	NAGER	43	verb	phrase	4	13	nomatch	nager	-1	1	p	2.0394
373.54820000000007	0.0	+	43	verb	phrase	4	14	nomatch	nager	-1	1	p	2.0394
373.48850000000004	0.0	[response]	43	verb	phrase	4	15	nomatch	nager	-1	1	p	2.0394
373.84810000000004	0.0	+	44	noun	phrase	1	1	nomatch	moins	-1	1	p	0.95222
374.3978000000001	0.2	bdqlcnz	44	noun	phrase	1	2	nomatch	moins	-1	1	p	0.95222
374.59770000000003	0.0	+	44	noun	phrase	1	3	nomatch	moins	-1	1	p	0.95222
374.99750000000006	0.2	nwdx	44	noun	phrase	1	4	nomatch	moins	-1	1	p	0.95222
375.1974	0.0	+	44	noun	phrase	1	5	nomatch	moins	-1	1	p	0.95222
375.5973	0.2	kmc	44	noun	phrase	1	6	nomatch	moins	-1	1	p	0.95222
375.7972000000001	0.0	+	44	noun	phrase	1	7	nomatch	moins	-1	1	p	0.95222
376.197	0.2	fvpln	44	noun	phrase	1	8	nomatch	moins	-1	1	p	0.95222
376.3969000000001	0.0	+	44	noun	phrase	1	9	nomatch	moins	-1	1	p	0.95222
376.7967	0.2	clavier	44	noun	phrase	1	10	nomatch	moins	-1	1	p	0.95222
376.99660000000006	0.0	+	44	noun	phrase	1	11	nomatch	moins	-1	1	p	0.95222
377.39650000000006	0.0	+	44	noun	phrase	1	12	nomatch	moins	-1	1	p	0.95222
379.39560000000006	0.0	MOINS	44	noun	phrase	1	13	nomatch	moins	-1	1	p	0.95222
380.4118000000001	0.0	+	44	noun	phrase	1	14	nomatch	moins	-1	1	p	0.95222
380.3478	0.0	[response]	44	noun	phrase	1	15	nomatch	moins	-1	1	p	0.95222
381.7945000000001	0.0	+	45	verb	list	1	1	nomatch	mon	-1	1	p	0.77541
382.3443000000001	0.2	vfjrplg	45	verb	list	1	2	nomatch	mon	-1	1	p	0.77541
382.54420000000005	0.0	+	45	verb	list	1	3	nomatch	mon	-1	1	p	0.77541
382.9440000000001	0.2	pklg	45	verb	list	1	4	nomatch	mon	-1	1	p	0.77541
383.14390000000003	0.0	+	45	verb	list	1	5	nomatch	mon	-1	1	p	0.77541
383.54370000000006	0.2	mvbw	45	verb	list	1	6	nomatch	mon	-1	1	p	0.77541
383.7436	0.0	+	45	verb	list	1	7	nomatch	mon	-1	1	p	0.77541
384.1435	0.2	nkbswgt	45	verb	list	1	8	nomatch	mon	-1	1	p	0.77541
384.3434000000001	0.0	+	45	verb	list	1	9	nomatch	mon	-1	1	p	0.77541
384.7432	0.2	grand	45	verb	list	1	10	nomatch	mon	-1	1	p	0.77541
384.9431000000001	0.0	+	45	verb	list	1	11	nomatch	mon	-1	1	p	0.77541
385.3429	0.0	+	45	verb	list	1	12	nomatch	mon	-1	1	p	0.77541
387.342	0.0	MON	45	verb	list	1	13	nomatch	mon	-1	1	p	0.77541
388.17500000000007	0.0	+	45	verb	list	1	14	nomatch	mon	-1	1	p	0.77541
388.1174000000001	0.0	[response]	45	verb	list	1	15	nomatch	mon	-1	1	p	0.77541
389.741	0.0	+	46	noun	list	4	1	match	casier	5	1	y	1.0058
390.2907	0.2	qszc	46	noun	list	4	2	match	casier	5	1	y	1.0058
390.4906000000001	0.0	+	46	noun	list	4	3	match	casier	5	1	y	1.0058
390.8904	0.2	yves	46	noun	list	4	4	match	casier	5	1	y	1.0058
391.09040000000005	0.0	+	46	noun	list	4	5	match	casier	5	1	y	1.0058
391.4902000000001	0.2	leur	46	noun	list	4	6	match	casier	5	1	y	1.0058
391.69010000000003	0.0	+	46	noun	list	4	7	match	casier	5	1	y	1.0058
392.08990000000006	0.2	moins	46	noun	list	4	8	match	casier	5	1	y	1.0058
392.2898	0.0	+	46	noun	list	4	9	match	casier	5	1	y	1.0058
392.68960000000004	0.2	casier	46	noun	list	4	10	match	casier	5	1	y	1.0058
392.8896000000001	0.0	+	46	noun	list	4	11	match	casier	5	1	y	1.0058
393.2894	0.0	+	46	noun	list	4	12	match	casier	5	1	y	1.0058
395.2885	0.0	CASIER	46	noun	list	4	13	match	casier	5	1	y	1.0058
396.3547000000001	0.0	+	46	noun	list	4	14	match	casier	5	1	y	1.0058
396.2943	0.0	[response]	46	noun	list	4	15	match	casier	5	1	y	1.0058
405.6838	0.0	+	47	verb	phrase	2	1	match	beaucoup	4	1	y	0.96177
406.2338000000001	0.2	xjqsk	47	verb	phrase	2	2	match	beaucoup	4	1	y	0.96177
406.4502	0.0	+	47	verb	phrase	2	3	match	beaucoup	4	1	y	0.96177
406.85	0.2	qhft	47	verb	phrase	2	4	match	beaucoup	4	1	y	0.96177
407.0499000000001	0.0	+	47	verb	phrase	2	5	match	beaucoup	4	1	y	0.96177
407.4497	0.2	mvbw	47	verb	phrase	2	6	match	beaucoup	4	1	y	0.96177
407.6496000000001	0.0	+	47	verb	phrase	2	7	match	beaucoup	4	1	y	0.96177
408.0495000000001	0.2	beaucoup	47	verb	phrase	2	8	match	beaucoup	4	1	y	0.96177
408.24940000000004	0.0	+	47	verb	phrase	2	9	match	beaucoup	4	1	y	0.96177
408.64920000000006	0.2	galoper	47	verb	phrase	2	10	match	beaucoup	4	1	y	0.96177
408.8491	0.0	+	47	verb	phrase	2	11	match	beaucoup	4	1	y	0.96177
409.24890000000005	0.0	+	47	verb	phrase	2	12	match	beaucoup	4	1	y	0.96177
411.24800000000005	0.0	BEAUCOUP	47	verb	phrase	2	13	match	beaucoup	4	1	y	0.96177
412.2642000000001	0.0	+	47	verb	phrase	2	14	match	beaucoup	4	1	y	0.96177
412.2098000000002	0.0	[response]	47	verb	phrase	2	15	match	beaucoup	4	1	y	0.96177
413.6469000000001	0.0	+	48	verb	list	1	1	nomatch	voyager	-1	1	p	0.86051
414.1967000000001	0.2	wsz	48	verb	list	1	2	nomatch	voyager	-1	1	p	0.86051
414.39660000000003	0.0	+	48	verb	list	1	3	nomatch	voyager	-1	1	p	0.86051
414.79640000000006	0.2	fgvt	48	verb	list	1	4	nomatch	voyager	-1	1	p	0.86051
414.9963	0.0	+	48	verb	list	1	5	nomatch	voyager	-1	1	p	0.86051
415.3962	0.2	nblj	48	verb	list	1	6	nomatch	voyager	-1	1	p	0.86051
415.5961000000001	0.0	+	48	verb	list	1	7	nomatch	voyager	-1	1	p	0.86051
415.9959	0.2	cdzvknh	48	verb	list	1	8	nomatch	voyager	-1	1	p	0.86051
416.1958000000001	0.0	+	48	verb	list	1	9	nomatch	voyager	-1	1	p	0.86051
416.5956	0.2	petit	48	verb	list	1	10	nomatch	voyager	-1	1	p	0.86051
416.79550000000006	0.0	+	48	verb	list	1	11	nomatch	voyager	-1	1	p	0.86051
417.19540000000006	0.0	+	48	verb	list	1	12	nomatch	voyager	-1	1	p	0.86051
419.19450000000006	0.0	VOYAGER	48	verb	list	1	13	nomatch	voyager	-1	1	p	0.86051
420.11070000000007	0.0	+	48	verb	list	1	14	nomatch	voyager	-1	1	p	0.86051
420.05500000000006	0.0	[response]	48	verb	list	1	15	nomatch	voyager	-1	1	p	0.86051
429.5898000000001	0.0	+	49	verb	phrase	4	1	match	luc	2	1	y	1.0239
430.1396000000001	0.2	wcjm	49	verb	phrase	4	2	match	luc	2	1	y	1.0239
430.33950000000004	0.0	+	49	verb	phrase	4	3	match	luc	2	1	y	1.0239
430.73930000000007	0.2	luc	49	verb	phrase	4	4	match	luc	2	1	y	1.0239
430.9392	0.0	+	49	verb	phrase	4	5	match	luc	2	1	y	1.0239
431.33900000000006	0.2	peut	49	verb	phrase	4	6	match	luc	2	1	y	1.0239
431.539	0.0	+	49	verb	phrase	4	7	match	luc	2	1	y	1.0239
431.9388	0.2	rouler	49	verb	phrase	4	8	match	luc	2	1	y	1.0239
432.1387000000001	0.0	+	49	verb	phrase	4	9	match	luc	2	1	y	1.0239
432.5385	0.2	loin	49	verb	phrase	4	10	match	luc	2	1	y	1.0239
432.73840000000007	0.0	+	49	verb	phrase	4	11	match	luc	2	1	y	1.0239
433.1383000000001	0.0	+	49	verb	phrase	4	12	match	luc	2	1	y	1.0239
435.13740000000007	0.0	LUC	49	verb	phrase	4	13	match	luc	2	1	y	1.0239
436.2202000000001	0.0	+	49	verb	phrase	4	14	match	luc	2	1	y	1.0239
436.1613000000001	0.0	[response]	49	verb	phrase	4	15	match	luc	2	1	y	1.0239
445.5494	0.0	+	50	noun	phrase	1	1	nomatch	son	-1	1	p	0.97372
446.0991	0.2	bfrhgmz	50	noun	phrase	1	2	nomatch	son	-1	1	p	0.97372
446.2990000000001	0.0	+	50	noun	phrase	1	3	nomatch	son	-1	1	p	0.97372
446.6989000000001	0.2	fgvt	50	noun	phrase	1	4	nomatch	son	-1	1	p	0.97372
446.89880000000005	0.0	+	50	noun	phrase	1	5	nomatch	son	-1	1	p	0.97372
447.2986000000001	0.2	kmc	50	noun	phrase	1	6	nomatch	son	-1	1	p	0.97372
447.49850000000004	0.0	+	50	noun	phrase	1	7	nomatch	son	-1	1	p	0.97372
447.89830000000006	0.2	lzqbcdn	50	noun	phrase	1	8	nomatch	son	-1	1	p	0.97372
448.0982	0.0	+	50	noun	phrase	1	9	nomatch	son	-1	1	p	0.97372
448.4981	0.2	noir	50	noun	phrase	1	10	nomatch	son	-1	1	p	0.97372
448.6980000000001	0.0	+	50	noun	phrase	1	11	nomatch	son	-1	1	p	0.97372
449.0978	0.0	+	50	noun	phrase	1	12	nomatch	son	-1	1	p	0.97372
451.0969	0.0	SON	50	noun	phrase	1	13	nomatch	son	-1	1	p	0.97372
452.12980000000005	0.0	+	50	noun	phrase	1	14	nomatch	son	-1	1	p	0.97372
452.0706000000001	0.0	[response]	50	noun	phrase	1	15	nomatch	son	-1	1	p	0.97372
453.49580000000003	0.0	+	51	verb	phrase	3	1	nomatch	galoper	-1	1	p	0.77885
454.04560000000004	0.2	vpnx	51	verb	phrase	3	2	nomatch	galoper	-1	1	p	0.77885
454.2455	0.0	+	51	verb	phrase	3	3	nomatch	galoper	-1	1	p	0.77885
454.6453	0.2	jhvb	51	verb	phrase	3	4	nomatch	galoper	-1	1	p	0.77885
454.8452000000001	0.0	+	51	verb	phrase	3	5	nomatch	galoper	-1	1	p	0.77885
455.2451000000001	0.2	doit	51	verb	phrase	3	6	nomatch	galoper	-1	1	p	0.77885
455.44500000000005	0.0	+	51	verb	phrase	3	7	nomatch	galoper	-1	1	p	0.77885
455.8448000000001	0.2	plonger	51	verb	phrase	3	8	nomatch	galoper	-1	1	p	0.77885
456.04470000000003	0.0	+	51	verb	phrase	3	9	nomatch	galoper	-1	1	p	0.77885
456.44450000000006	0.2	tt	51	verb	phrase	3	10	nomatch	galoper	-1	1	p	0.77885
456.6444	0.0	+	51	verb	phrase	3	11	nomatch	galoper	-1	1	p	0.77885
457.04420000000005	0.0	+	51	verb	phrase	3	12	nomatch	galoper	-1	1	p	0.77885
459.0434	0.0	GALOPER	51	verb	phrase	3	13	nomatch	galoper	-1	1	p	0.77885
459.8763	0.0	+	51	verb	phrase	3	14	nomatch	galoper	-1	1	p	0.77885
459.82220000000007	0.0	[response]	51	verb	phrase	3	15	nomatch	galoper	-1	1	p	0.77885
461.44230000000005	0.0	+	52	verb	list	3	1	match	jongler	5	1	y	1.1694000000000002
461.9920000000001	0.2	jvrplc	52	verb	list	3	2	match	jongler	5	1	y	1.1694000000000002
462.19190000000003	0.0	+	52	verb	list	3	3	match	jongler	5	1	y	1.1694000000000002
462.59180000000003	0.2	lnjp	52	verb	list	3	4	match	jongler	5	1	y	1.1694000000000002
462.7917	0.0	+	52	verb	list	3	5	match	jongler	5	1	y	1.1694000000000002
463.1915	0.2	peut	52	verb	list	3	6	match	jongler	5	1	y	1.1694000000000002
463.3914000000001	0.0	+	52	verb	list	3	7	match	jongler	5	1	y	1.1694000000000002
463.7912	0.2	beau	52	verb	list	3	8	match	jongler	5	1	y	1.1694000000000002
463.99120000000005	0.0	+	52	verb	list	3	9	match	jongler	5	1	y	1.1694000000000002
464.3910000000001	0.2	jongler	52	verb	list	3	10	match	jongler	5	1	y	1.1694000000000002
464.59090000000003	0.0	+	52	verb	list	3	11	match	jongler	5	1	y	1.1694000000000002
464.99070000000006	0.0	+	52	verb	list	3	12	match	jongler	5	1	y	1.1694000000000002
466.98980000000006	0.0	JONGLER	52	verb	list	3	13	match	jongler	5	1	y	1.1694000000000002
468.22260000000006	0.0	+	52	verb	list	3	14	match	jongler	5	1	y	1.1694000000000002
468.15920000000006	0.0	[response]	52	verb	list	3	15	match	jongler	5	1	y	1.1694000000000002
469.3887000000001	0.0	+	53	noun	list	1	1	nomatch	casier	-1	1	p	1.0158
469.9385000000001	0.2	lbfnvsr	53	noun	list	1	2	nomatch	casier	-1	1	p	1.0158
470.13840000000005	0.0	+	53	noun	list	1	3	nomatch	casier	-1	1	p	1.0158
470.5382000000001	0.2	pkq	53	noun	list	1	4	nomatch	casier	-1	1	p	1.0158
470.73810000000003	0.0	+	53	noun	list	1	5	nomatch	casier	-1	1	p	1.0158
471.13800000000003	0.2	mvbw	53	noun	list	1	6	nomatch	casier	-1	1	p	1.0158
471.3379	0.0	+	53	noun	list	1	7	nomatch	casier	-1	1	p	1.0158
471.7377	0.2	kcrv	53	noun	list	1	8	nomatch	casier	-1	1	p	1.0158
471.9376000000001	0.0	+	53	noun	list	1	9	nomatch	casier	-1	1	p	1.0158
472.3374	0.2	cendrier	53	noun	list	1	10	nomatch	casier	-1	1	p	1.0158
472.5373000000001	0.0	+	53	noun	list	1	11	nomatch	casier	-1	1	p	1.0158
472.9371	0.0	+	53	noun	list	1	12	nomatch	casier	-1	1	p	1.0158
474.9363000000001	0.0	CASIER	53	noun	list	1	13	nomatch	casier	-1	1	p	1.0158
476.0191000000001	0.0	+	53	noun	list	1	14	nomatch	casier	-1	1	p	1.0158
475.9521000000001	0.0	[response]	53	noun	list	1	15	nomatch	casier	-1	1	p	1.0158
477.3352	0.0	+	54	verb	list	2	1	match	rouge	5	1	y	0.57462
477.8849	0.2	qxjhsr	54	verb	list	2	2	match	rouge	5	1	y	0.57462
478.08490000000006	0.0	+	54	verb	list	2	3	match	rouge	5	1	y	0.57462
478.4847000000001	0.2	npvf	54	verb	list	2	4	match	rouge	5	1	y	0.57462
478.68460000000005	0.0	+	54	verb	list	2	5	match	rouge	5	1	y	0.57462
479.0844000000001	0.2	kmc	54	verb	list	2	6	match	rouge	5	1	y	0.57462
479.28430000000003	0.0	+	54	verb	list	2	7	match	rouge	5	1	y	0.57462
479.68410000000006	0.2	voyager	54	verb	list	2	8	match	rouge	5	1	y	0.57462
479.884	0.0	+	54	verb	list	2	9	match	rouge	5	1	y	0.57462
480.2839	0.2	rouge	54	verb	list	2	10	match	rouge	5	1	y	0.57462
480.4838000000001	0.0	+	54	verb	list	2	11	match	rouge	5	1	y	0.57462
480.8837000000001	0.0	+	54	verb	list	2	12	match	rouge	5	1	y	0.57462
482.8994	0.0	ROUGE	54	verb	list	2	13	match	rouge	5	1	y	0.57462
483.53240000000005	0.0	+	54	verb	list	2	14	match	rouge	5	1	y	0.57462
483.47400000000005	0.0	[response]	54	verb	list	2	15	match	rouge	5	1	y	0.57462
485.29830000000004	0.0	+	55	verb	list	4	1	match	mon	3	1	y	0.86859
485.84810000000004	0.2	wsbc	55	verb	list	4	2	match	mon	3	1	y	0.86859
486.048	0.0	+	55	verb	list	4	3	match	mon	3	1	y	0.86859
486.44780000000003	0.2	luc	55	verb	list	4	4	match	mon	3	1	y	0.86859
486.6477	0.0	+	55	verb	list	4	5	match	mon	3	1	y	0.86859
487.0475	0.2	mon	55	verb	list	4	6	match	mon	3	1	y	0.86859
487.2474000000001	0.0	+	55	verb	list	4	7	match	mon	3	1	y	0.86859
487.6473000000001	0.2	nager	55	verb	list	4	8	match	mon	3	1	y	0.86859
487.84720000000004	0.0	+	55	verb	list	4	9	match	mon	3	1	y	0.86859
488.24700000000007	0.2	noir	55	verb	list	4	10	match	mon	3	1	y	0.86859
488.4469	0.0	+	55	verb	list	4	11	match	mon	3	1	y	0.86859
488.84670000000006	0.0	+	55	verb	list	4	12	match	mon	3	1	y	0.86859
490.84580000000005	0.0	MON	55	verb	list	4	13	match	mon	3	1	y	0.86859
491.7787000000001	0.0	+	55	verb	list	4	14	match	mon	3	1	y	0.86859
491.71440000000007	0.0	[response]	55	verb	list	4	15	match	mon	3	1	y	0.86859
493.24480000000005	0.0	+	56	noun	list	3	1	nomatch	sur	-1	1	p	0.66146
493.7945000000001	0.2	lgqcj	56	noun	list	3	2	nomatch	sur	-1	1	p	0.66146
493.99440000000004	0.0	+	56	noun	list	3	3	nomatch	sur	-1	1	p	0.66146
494.39420000000007	0.2	htzd	56	noun	list	3	4	nomatch	sur	-1	1	p	0.66146
494.5941	0.0	+	56	noun	list	3	5	nomatch	sur	-1	1	p	0.66146
494.994	0.2	leur	56	noun	list	3	6	nomatch	sur	-1	1	p	0.66146
495.1939	0.0	+	56	noun	list	3	7	nomatch	sur	-1	1	p	0.66146
495.5937	0.2	trop	56	noun	list	3	8	nomatch	sur	-1	1	p	0.66146
495.7936000000001	0.0	+	56	noun	list	3	9	nomatch	sur	-1	1	p	0.66146
496.1934	0.2	clavier	56	noun	list	3	10	nomatch	sur	-1	1	p	0.66146
496.39340000000004	0.0	+	56	noun	list	3	11	nomatch	sur	-1	1	p	0.66146
496.79320000000007	0.0	+	56	noun	list	3	12	nomatch	sur	-1	1	p	0.66146
498.79230000000007	0.0	SUR	56	noun	list	3	13	nomatch	sur	-1	1	p	0.66146
499.5086	0.0	+	56	noun	list	3	14	nomatch	sur	-1	1	p	0.66146
499.4537	0.0	[response]	56	noun	list	3	15	nomatch	sur	-1	1	p	0.66146
501.1912000000001	0.0	+	57	verb	phrase	2	1	nomatch	plonger	-1	1	p	0.88593
501.741	0.2	jlbnt	57	verb	phrase	2	2	nomatch	plonger	-1	1	p	0.88593
501.94090000000006	0.0	+	57	verb	phrase	2	3	nomatch	plonger	-1	1	p	0.88593
502.3407000000001	0.2	gjnb	57	verb	phrase	2	4	nomatch	plonger	-1	1	p	0.88593
502.54060000000004	0.0	+	57	verb	phrase	2	5	nomatch	plonger	-1	1	p	0.88593
502.94040000000007	0.2	mvbw	57	verb	phrase	2	6	nomatch	plonger	-1	1	p	0.88593
503.1403	0.0	+	57	verb	phrase	2	7	nomatch	plonger	-1	1	p	0.88593
503.5402	0.2	nager	57	verb	phrase	2	8	nomatch	plonger	-1	1	p	0.88593
503.7401	0.0	+	57	verb	phrase	2	9	nomatch	plonger	-1	1	p	0.88593
504.1399	0.2	ainsi	57	verb	phrase	2	10	nomatch	plonger	-1	1	p	0.88593
504.3398000000001	0.0	+	57	verb	phrase	2	11	nomatch	plonger	-1	1	p	0.88593
504.7396	0.0	+	57	verb	phrase	2	12	nomatch	plonger	-1	1	p	0.88593
506.7387	0.0	PLONGER	57	verb	phrase	2	13	nomatch	plonger	-1	1	p	0.88593
507.6883	0.0	+	57	verb	phrase	2	14	nomatch	plonger	-1	1	p	0.88593
507.6247000000001	0.0	[response]	57	verb	phrase	2	15	nomatch	plonger	-1	1	p	0.88593
517.1341	0.0	+	58	noun	phrase	2	1	nomatch	noir	-1	1	p	0.73099
517.6838	0.2	zbmgsxj	58	noun	phrase	2	2	nomatch	noir	-1	1	p	0.73099
517.8837000000001	0.0	+	58	noun	phrase	2	3	nomatch	noir	-1	1	p	0.73099
518.2837000000001	0.2	pkq	58	noun	phrase	2	4	nomatch	noir	-1	1	p	0.73099
518.5001000000001	0.0	+	58	noun	phrase	2	5	nomatch	noir	-1	1	p	0.73099
518.9000000000001	0.2	fpmt	58	noun	phrase	2	6	nomatch	noir	-1	1	p	0.73099
519.0999	0.0	+	58	noun	phrase	2	7	nomatch	noir	-1	1	p	0.73099
519.4997000000001	0.2	voilier	58	noun	phrase	2	8	nomatch	noir	-1	1	p	0.73099
519.6996	0.0	+	58	noun	phrase	2	9	nomatch	noir	-1	1	p	0.73099
520.0994000000001	0.2	rouge	58	noun	phrase	2	10	nomatch	noir	-1	1	p	0.73099
520.2994	0.0	+	58	noun	phrase	2	11	nomatch	noir	-1	1	p	0.73099
520.6992	0.0	+	58	noun	phrase	2	12	nomatch	noir	-1	1	p	0.73099
522.6983	0.0	NOIR	58	noun	phrase	2	13	nomatch	noir	-1	1	p	0.73099
523.4813	0.0	+	58	noun	phrase	2	14	nomatch	noir	-1	1	p	0.73099
523.4293	0.0	[response]	58	noun	phrase	2	15	nomatch	noir	-1	1	p	0.73099
525.0972	0.0	+	59	verb	list	3	1	nomatch	plonger	-1	1	p	0.7595000000000001
525.647	0.2	skvrnfq	59	verb	list	3	2	nomatch	plonger	-1	1	p	0.7595000000000001
525.8469	0.0	+	59	verb	list	3	3	nomatch	plonger	-1	1	p	0.7595000000000001
526.2467	0.2	wpsh	59	verb	list	3	4	nomatch	plonger	-1	1	p	0.7595000000000001
526.4466	0.0	+	59	verb	list	3	5	nomatch	plonger	-1	1	p	0.7595000000000001
526.8464	0.2	doit	59	verb	list	3	6	nomatch	plonger	-1	1	p	0.7595000000000001
527.0463000000001	0.0	+	59	verb	list	3	7	nomatch	plonger	-1	1	p	0.7595000000000001
527.4462000000001	0.2	grand	59	verb	list	3	8	nomatch	plonger	-1	1	p	0.7595000000000001
527.6461	0.0	+	59	verb	list	3	9	nomatch	plonger	-1	1	p	0.7595000000000001
528.0459000000001	0.2	rouler	59	verb	list	3	10	nomatch	plonger	-1	1	p	0.7595000000000001
528.2458	0.0	+	59	verb	list	3	11	nomatch	plonger	-1	1	p	0.7595000000000001
528.6456000000001	0.0	+	59	verb	list	3	12	nomatch	plonger	-1	1	p	0.7595000000000001
530.6447000000001	0.0	PLONGER	59	verb	list	3	13	nomatch	plonger	-1	1	p	0.7595000000000001
531.461	0.0	+	59	verb	list	3	14	nomatch	plonger	-1	1	p	0.7595000000000001
531.4042000000001	0.0	[response]	59	verb	list	3	15	nomatch	plonger	-1	1	p	0.7595000000000001
533.0437000000001	0.0	+	60	noun	list	1	1	nomatch	blanc	-1	1	p	1.0618000000000003
533.5934000000001	0.2	sklpbtd	60	noun	list	1	2	nomatch	blanc	-1	1	p	1.0618000000000003
533.7937000000001	0.0	+	60	noun	list	1	3	nomatch	blanc	-1	1	p	1.0618000000000003
534.1932	0.2	gjnb	60	noun	list	1	4	nomatch	blanc	-1	1	p	1.0618000000000003
534.393	0.0	+	60	noun	list	1	5	nomatch	blanc	-1	1	p	1.0618000000000003
534.7929	0.2	zxd	60	noun	list	1	6	nomatch	blanc	-1	1	p	1.0618000000000003
534.9928	0.0	+	60	noun	list	1	7	nomatch	blanc	-1	1	p	1.0618000000000003
535.3926	0.2	ljqp	60	noun	list	1	8	nomatch	blanc	-1	1	p	1.0618000000000003
535.5925000000001	0.0	+	60	noun	list	1	9	nomatch	blanc	-1	1	p	1.0618000000000003
535.9923	0.2	tablier	60	noun	list	1	10	nomatch	blanc	-1	1	p	1.0618000000000003
536.1922000000001	0.0	+	60	noun	list	1	11	nomatch	blanc	-1	1	p	1.0618000000000003
536.5921000000001	0.0	+	60	noun	list	1	12	nomatch	blanc	-1	1	p	1.0618000000000003
538.5912000000001	0.0	BLANC	60	noun	list	1	13	nomatch	blanc	-1	1	p	1.0618000000000003
539.7074	0.0	+	60	noun	list	1	14	nomatch	blanc	-1	1	p	1.0618000000000003
539.653	0.0	[response]	60	noun	list	1	15	nomatch	blanc	-1	1	p	1.0618000000000003
540.9901	0.0	+	61	noun	phrase	1	1	nomatch	nouveau	-1	1	p	0.72668
541.5399	0.2	mgbj	61	noun	phrase	1	2	nomatch	nouveau	-1	1	p	0.72668
541.7398000000001	0.0	+	61	noun	phrase	1	3	nomatch	nouveau	-1	1	p	0.72668
542.1396000000001	0.2	fgvt	61	noun	phrase	1	4	nomatch	nouveau	-1	1	p	0.72668
542.3395	0.0	+	61	noun	phrase	1	5	nomatch	nouveau	-1	1	p	0.72668
542.7393000000001	0.2	fpmt	61	noun	phrase	1	6	nomatch	nouveau	-1	1	p	0.72668
542.9392	0.0	+	61	noun	phrase	1	7	nomatch	nouveau	-1	1	p	0.72668
543.3391	0.2	fwrxghp	61	noun	phrase	1	8	nomatch	nouveau	-1	1	p	0.72668
543.539	0.0	+	61	noun	phrase	1	9	nomatch	nouveau	-1	1	p	0.72668
543.9388	0.2	grand	61	noun	phrase	1	10	nomatch	nouveau	-1	1	p	0.72668
544.1387000000001	0.0	+	61	noun	phrase	1	11	nomatch	nouveau	-1	1	p	0.72668
544.5385	0.0	+	61	noun	phrase	1	12	nomatch	nouveau	-1	1	p	0.72668
546.5376	0.0	NOUVEAU	61	noun	phrase	1	13	nomatch	nouveau	-1	1	p	0.72668
547.3206	0.0	+	61	noun	phrase	1	14	nomatch	nouveau	-1	1	p	0.72668
547.2643	0.0	[response]	61	noun	phrase	1	15	nomatch	nouveau	-1	1	p	0.72668
548.9366	0.0	+	62	verb	phrase	1	1	match	galoper	5	1	y	0.6958
549.4863	0.2	vqsfb	62	verb	phrase	1	2	match	galoper	5	1	y	0.6958
549.6862	0.0	+	62	verb	phrase	1	3	match	galoper	5	1	y	0.6958
550.0861	0.2	hfk	62	verb	phrase	1	4	match	galoper	5	1	y	0.6958
550.2860000000001	0.0	+	62	verb	phrase	1	5	match	galoper	5	1	y	0.6958
550.6858000000001	0.2	lj	62	verb	phrase	1	6	match	galoper	5	1	y	0.6958
550.8857	0.0	+	62	verb	phrase	1	7	match	galoper	5	1	y	0.6958
551.2855000000001	0.2	ljqp	62	verb	phrase	1	8	match	galoper	5	1	y	0.6958
551.4854	0.0	+	62	verb	phrase	1	9	match	galoper	5	1	y	0.6958
551.8852	0.2	galoper	62	verb	phrase	1	10	match	galoper	5	1	y	0.6958
552.0852	0.0	+	62	verb	phrase	1	11	match	galoper	5	1	y	0.6958
552.485	0.0	+	62	verb	phrase	1	12	match	galoper	5	1	y	0.6958
554.4841	0.0	GALOPER	62	verb	phrase	1	13	match	galoper	5	1	y	0.6958
555.2337	0.0	+	62	verb	phrase	1	14	match	galoper	5	1	y	0.6958
555.1799000000001	0.0	[response]	62	verb	phrase	1	15	match	galoper	5	1	y	0.6958
556.8997	0.0	+	63	noun	phrase	4	1	nomatch	sablier	-1	1	p	1.4208
557.4494000000001	0.2	mlnd	63	noun	phrase	4	2	nomatch	sablier	-1	1	p	1.4208
557.6493	0.0	+	63	noun	phrase	4	3	nomatch	sablier	-1	1	p	1.4208
558.0492	0.2	vers	63	noun	phrase	4	4	nomatch	sablier	-1	1	p	1.4208
558.2491	0.0	+	63	noun	phrase	4	5	nomatch	sablier	-1	1	p	1.4208
558.6489	0.2	leur	63	noun	phrase	4	6	nomatch	sablier	-1	1	p	1.4208
558.8488000000001	0.0	+	63	noun	phrase	4	7	nomatch	sablier	-1	1	p	1.4208
559.2486	0.2	beau	63	noun	phrase	4	8	nomatch	sablier	-1	1	p	1.4208
559.4485000000001	0.0	+	63	noun	phrase	4	9	nomatch	sablier	-1	1	p	1.4208
559.8483	0.2	tablier	63	noun	phrase	4	10	nomatch	sablier	-1	1	p	1.4208
560.0483	0.0	+	63	noun	phrase	4	11	nomatch	sablier	-1	1	p	1.4208
560.4481000000001	0.0	+	63	noun	phrase	4	12	nomatch	sablier	-1	1	p	1.4208
562.4472000000001	0.0	SABLIER	63	noun	phrase	4	13	nomatch	sablier	-1	1	p	1.4208
563.9299000000001	0.0	+	63	noun	phrase	4	14	nomatch	sablier	-1	1	p	1.4208
563.868	0.0	[response]	63	noun	phrase	4	15	nomatch	sablier	-1	1	p	1.4208
564.8461000000001	0.0	+	64	verb	phrase	4	1	nomatch	clavier	-1	1	p	1.0436
565.3959	0.2	fkxzv	64	verb	phrase	4	2	nomatch	clavier	-1	1	p	1.0436
565.5958	0.0	+	64	verb	phrase	4	3	nomatch	clavier	-1	1	p	1.0436
565.9956000000001	0.2	yves	64	verb	phrase	4	4	nomatch	clavier	-1	1	p	1.0436
566.1955	0.0	+	64	verb	phrase	4	5	nomatch	clavier	-1	1	p	1.0436
566.5954	0.2	peut	64	verb	phrase	4	6	nomatch	clavier	-1	1	p	1.0436
566.7953	0.0	+	64	verb	phrase	4	7	nomatch	clavier	-1	1	p	1.0436
567.1952	0.2	parader	64	verb	phrase	4	8	nomatch	clavier	-1	1	p	1.0436
567.3950000000001	0.0	+	64	verb	phrase	4	9	nomatch	clavier	-1	1	p	1.0436
567.7948	0.2	ainsi	64	verb	phrase	4	10	nomatch	clavier	-1	1	p	1.0436
567.9947000000001	0.0	+	64	verb	phrase	4	11	nomatch	clavier	-1	1	p	1.0436
568.3945	0.0	+	64	verb	phrase	4	12	nomatch	clavier	-1	1	p	1.0436
570.3937000000001	0.0	CLAVIER	64	verb	phrase	4	13	nomatch	clavier	-1	1	p	1.0436
571.4932	0.0	+	64	verb	phrase	4	14	nomatch	clavier	-1	1	p	1.0436
571.4372000000001	0.0	[response]	64	verb	phrase	4	15	nomatch	clavier	-1	1	p	1.0436
588.7854000000001	0.0	+	65	verb	list	1	1	nomatch	beau	-1	1	p	0.73671
589.3352	0.2	ztwg	65	verb	list	1	2	nomatch	beau	-1	1	p	0.73671
589.5351	0.0	+	65	verb	list	1	3	nomatch	beau	-1	1	p	0.73671
589.9349000000001	0.2	pkq	65	verb	list	1	4	nomatch	beau	-1	1	p	0.73671
590.1348	0.0	+	65	verb	list	1	5	nomatch	beau	-1	1	p	0.73671
590.5347	0.2	nblj	65	verb	list	1	6	nomatch	beau	-1	1	p	0.73671
590.7346	0.0	+	65	verb	list	1	7	nomatch	beau	-1	1	p	0.73671
591.1344	0.2	sqvrlpt	65	verb	list	1	8	nomatch	beau	-1	1	p	0.73671
591.3343	0.0	+	65	verb	list	1	9	nomatch	beau	-1	1	p	0.73671
591.7341	0.2	vieux	65	verb	list	1	10	nomatch	beau	-1	1	p	0.73671
591.9340000000001	0.0	+	65	verb	list	1	11	nomatch	beau	-1	1	p	0.73671
592.3339000000001	0.0	+	65	verb	list	1	12	nomatch	beau	-1	1	p	0.73671
594.3496	0.0	BEAU	65	verb	list	1	13	nomatch	beau	-1	1	p	0.73671
595.1493	0.0	+	65	verb	list	1	14	nomatch	beau	-1	1	p	0.73671
595.0863	0.0	[response]	65	verb	list	1	15	nomatch	beau	-1	1	p	0.73671
596.7485	0.0	+	66	verb	phrase	3	1	match	va	3	1	y	0.70472
597.2983	0.2	mwqnvg	66	verb	phrase	3	2	match	va	3	1	y	0.70472
597.4982	0.0	+	66	verb	phrase	3	3	match	va	3	1	y	0.70472
597.898	0.2	htzd	66	verb	phrase	3	4	match	va	3	1	y	0.70472
598.0979000000001	0.0	+	66	verb	phrase	3	5	match	va	3	1	y	0.70472
598.4978	0.2	va	66	verb	phrase	3	6	match	va	3	1	y	0.70472
598.6977	0.0	+	66	verb	phrase	3	7	match	va	3	1	y	0.70472
599.0975000000001	0.2	chasser	66	verb	phrase	3	8	match	va	3	1	y	0.70472
599.2974	0.0	+	66	verb	phrase	3	9	match	va	3	1	y	0.70472
599.6972000000001	0.2	loin	66	verb	phrase	3	10	match	va	3	1	y	0.70472
599.8972	0.0	+	66	verb	phrase	3	11	match	va	3	1	y	0.70472
600.297	0.0	+	66	verb	phrase	3	12	match	va	3	1	y	0.70472
602.2961	0.0	VA	66	verb	phrase	3	13	match	va	3	1	y	0.70472
603.0624	0.0	+	66	verb	phrase	3	14	match	va	3	1	y	0.70472
603.0008	0.0	[response]	66	verb	phrase	3	15	match	va	3	1	y	0.70472
604.695	0.0	+	67	verb	phrase	1	1	match	tard	5	1	y	0.51459
605.2448	0.2	whc	67	verb	phrase	1	2	match	tard	5	1	y	0.51459
605.4447	0.0	+	67	verb	phrase	1	3	match	tard	5	1	y	0.51459
605.8445	0.2	gjnb	67	verb	phrase	1	4	match	tard	5	1	y	0.51459
606.0444	0.0	+	67	verb	phrase	1	5	match	tard	5	1	y	0.51459
606.4442	0.2	lj	67	verb	phrase	1	6	match	tard	5	1	y	0.51459
606.6441000000001	0.0	+	67	verb	phrase	1	7	match	tard	5	1	y	0.51459
607.0439	0.2	cdzvknh	67	verb	phrase	1	8	match	tard	5	1	y	0.51459
607.2439	0.0	+	67	verb	phrase	1	9	match	tard	5	1	y	0.51459
607.6437000000001	0.2	tard	67	verb	phrase	1	10	match	tard	5	1	y	0.51459
607.8436	0.0	+	67	verb	phrase	1	11	match	tard	5	1	y	0.51459
608.2434000000001	0.0	+	67	verb	phrase	1	12	match	tard	5	1	y	0.51459
610.2425000000001	0.0	TARD	67	verb	phrase	1	13	match	tard	5	1	y	0.51459
610.8089	0.0	+	67	verb	phrase	1	14	match	tard	5	1	y	0.51459
610.7571	0.0	[response]	67	verb	phrase	1	15	match	tard	5	1	y	0.51459
612.6414000000001	0.0	+	68	verb	list	1	1	nomatch	rouge	-1	1	p	0.99285
613.1912000000001	0.2	lspwgjn	68	verb	list	1	2	nomatch	rouge	-1	1	p	0.99285
613.3911	0.0	+	68	verb	list	1	3	nomatch	rouge	-1	1	p	0.99285
613.7909000000001	0.2	jhvb	68	verb	list	1	4	nomatch	rouge	-1	1	p	0.99285
613.9908	0.0	+	68	verb	list	1	5	nomatch	rouge	-1	1	p	0.99285
614.3907	0.2	kmc	68	verb	list	1	6	nomatch	rouge	-1	1	p	0.99285
614.5906	0.0	+	68	verb	list	1	7	nomatch	rouge	-1	1	p	0.99285
614.9905	0.2	gfxmldq	68	verb	list	1	8	nomatch	rouge	-1	1	p	0.99285
615.1903000000001	0.0	+	68	verb	list	1	9	nomatch	rouge	-1	1	p	0.99285
615.5901	0.2	blanc	68	verb	list	1	10	nomatch	rouge	-1	1	p	0.99285
615.7901	0.0	+	68	verb	list	1	11	nomatch	rouge	-1	1	p	0.99285
616.1899000000001	0.0	+	68	verb	list	1	12	nomatch	rouge	-1	1	p	0.99285
618.1890000000001	0.0	ROUGE	68	verb	list	1	13	nomatch	rouge	-1	1	p	0.99285
619.2385	0.0	+	68	verb	list	1	14	nomatch	rouge	-1	1	p	0.99285
619.1818000000001	0.0	[response]	68	verb	list	1	15	nomatch	rouge	-1	1	p	0.99285
620.5879	0.0	+	69	noun	list	1	1	nomatch	vite	-1	1	p	0.83628
621.1377	0.2	fmp	69	noun	list	1	2	nomatch	vite	-1	1	p	0.83628
621.3376000000001	0.0	+	69	noun	list	1	3	nomatch	vite	-1	1	p	0.83628
621.7374000000001	0.2	wpsh	69	noun	list	1	4	nomatch	vite	-1	1	p	0.83628
621.9373	0.0	+	69	noun	list	1	5	nomatch	vite	-1	1	p	0.83628
622.3371000000001	0.2	mvbw	69	noun	list	1	6	nomatch	vite	-1	1	p	0.83628
622.537	0.0	+	69	noun	list	1	7	nomatch	vite	-1	1	p	0.83628
622.9369	0.2	fwrxghp	69	noun	list	1	8	nomatch	vite	-1	1	p	0.83628
623.1368	0.0	+	69	noun	list	1	9	nomatch	vite	-1	1	p	0.83628
623.5366	0.2	loin	69	noun	list	1	10	nomatch	vite	-1	1	p	0.83628
623.7365000000001	0.0	+	69	noun	list	1	11	nomatch	vite	-1	1	p	0.83628
624.1363	0.0	+	69	noun	list	1	12	nomatch	vite	-1	1	p	0.83628
626.1354	0.0	VITE	69	noun	list	1	13	nomatch	vite	-1	1	p	0.83628
627.0350000000001	0.0	+	69	noun	list	1	14	nomatch	vite	-1	1	p	0.83628
626.9717	0.0	[response]	69	noun	list	1	15	nomatch	vite	-1	1	p	0.83628
628.5344	0.0	+	70	verb	phrase	1	1	match	ainsi	5	1	y	1.0443
629.0841	0.2	ljxw	70	verb	phrase	1	2	match	ainsi	5	1	y	1.0443
629.284	0.0	+	70	verb	phrase	1	3	match	ainsi	5	1	y	1.0443
629.6838	0.2	npvf	70	verb	phrase	1	4	match	ainsi	5	1	y	1.0443
629.8837000000001	0.0	+	70	verb	phrase	1	5	match	ainsi	5	1	y	1.0443
630.2836000000001	0.2	nblj	70	verb	phrase	1	6	match	ainsi	5	1	y	1.0443
630.5001000000001	0.0	+	70	verb	phrase	1	7	match	ainsi	5	1	y	1.0443
630.9000000000001	0.2	vczkjpt	70	verb	phrase	1	8	match	ainsi	5	1	y	1.0443
631.0999	0.0	+	70	verb	phrase	1	9	match	ainsi	5	1	y	1.0443
631.4997000000001	0.2	ainsi	70	verb	phrase	1	10	match	ainsi	5	1	y	1.0443
631.6996	0.0	+	70	verb	phrase	1	11	match	ainsi	5	1	y	1.0443
632.0994000000001	0.0	+	70	verb	phrase	1	12	match	ainsi	5	1	y	1.0443
634.0985000000001	0.0	AINSI	70	verb	phrase	1	13	match	ainsi	5	1	y	1.0443
635.1981000000001	0.0	+	70	verb	phrase	1	14	match	ainsi	5	1	y	1.0443
635.1428000000002	0.0	[response]	70	verb	phrase	1	15	match	ainsi	5	1	y	1.0443
644.4939	0.0	+	71	verb	list	1	1	match	rouler	5	1	y	0.82044
645.0436000000001	0.2	qflg	71	verb	list	1	2	match	rouler	5	1	y	0.82044
645.2436	0.0	+	71	verb	list	1	3	match	rouler	5	1	y	0.82044
645.6434	0.2	nwdx	71	verb	list	1	4	match	rouler	5	1	y	0.82044
645.8433	0.0	+	71	verb	list	1	5	match	rouler	5	1	y	0.82044
646.2431	0.2	lj	71	verb	list	1	6	match	rouler	5	1	y	0.82044
646.443	0.0	+	71	verb	list	1	7	match	rouler	5	1	y	0.82044
646.8429	0.2	fpjc	71	verb	list	1	8	match	rouler	5	1	y	0.82044
647.0428	0.0	+	71	verb	list	1	9	match	rouler	5	1	y	0.82044
647.4426000000001	0.2	rouler	71	verb	list	1	10	match	rouler	5	1	y	0.82044
647.6425	0.0	+	71	verb	list	1	11	match	rouler	5	1	y	0.82044
648.0423000000001	0.0	+	71	verb	list	1	12	match	rouler	5	1	y	0.82044
650.0414000000001	0.0	ROULER	71	verb	list	1	13	match	rouler	5	1	y	0.82044
650.9244	0.0	+	71	verb	list	1	14	match	rouler	5	1	y	0.82044
650.8619	0.0	[response]	71	verb	list	1	15	match	rouler	5	1	y	0.82044
668.4499000000001	0.0	+	72	verb	list	3	1	match	galoper	5	1	y	1.8066
668.9996	0.2	nfxkrsq	72	verb	list	3	2	match	galoper	5	1	y	1.8066
669.1995000000001	0.0	+	72	verb	list	3	3	match	galoper	5	1	y	1.8066
669.5994000000001	0.2	pkq	72	verb	list	3	4	match	galoper	5	1	y	1.8066
669.7993	0.0	+	72	verb	list	3	5	match	galoper	5	1	y	1.8066
670.1991	0.2	peut	72	verb	list	3	6	match	galoper	5	1	y	1.8066
670.399	0.0	+	72	verb	list	3	7	match	galoper	5	1	y	1.8066
670.7988	0.2	grand	72	verb	list	3	8	match	galoper	5	1	y	1.8066
670.9987	0.0	+	72	verb	list	3	9	match	galoper	5	1	y	1.8066
671.3986	0.2	galoper	72	verb	list	3	10	match	galoper	5	1	y	1.8066
671.5985000000001	0.0	+	72	verb	list	3	11	match	galoper	5	1	y	1.8066
671.9983000000001	0.0	+	72	verb	list	3	12	match	galoper	5	1	y	1.8066
673.9974000000001	0.0	GALOPER	72	verb	list	3	13	match	galoper	5	1	y	1.8066
675.8632	0.0	+	72	verb	list	3	14	match	galoper	5	1	y	1.8066
675.8040000000001	0.0	[response]	72	verb	list	3	15	match	galoper	5	1	y	1.8066
684.3927	0.0	+	73	verb	phrase	1	1	nomatch	sous	-1	0	TIMEOUT	-1.0
684.9425	0.2	ckvqr	73	verb	phrase	1	2	nomatch	sous	-1	0	TIMEOUT	-1.0
685.1424000000001	0.0	+	73	verb	phrase	1	3	nomatch	sous	-1	0	TIMEOUT	-1.0
685.5422000000001	0.2	jhvb	73	verb	phrase	1	4	nomatch	sous	-1	0	TIMEOUT	-1.0
685.7422	0.0	+	73	verb	phrase	1	5	nomatch	sous	-1	0	TIMEOUT	-1.0
686.142	0.2	nblj	73	verb	phrase	1	6	nomatch	sous	-1	0	TIMEOUT	-1.0
686.3419	0.0	+	73	verb	phrase	1	7	nomatch	sous	-1	0	TIMEOUT	-1.0
686.7417	0.2	bwmjdr	73	verb	phrase	1	8	nomatch	sous	-1	0	TIMEOUT	-1.0
686.9416	0.0	+	73	verb	phrase	1	9	nomatch	sous	-1	0	TIMEOUT	-1.0
687.3414	0.2	tt	73	verb	phrase	1	10	nomatch	sous	-1	0	TIMEOUT	-1.0
687.5414000000001	0.0	+	73	verb	phrase	1	11	nomatch	sous	-1	0	TIMEOUT	-1.0
687.9415	0.0	+	73	verb	phrase	1	12	nomatch	sous	-1	0	TIMEOUT	-1.0
689.9403000000001	0.0	SOUS	73	verb	phrase	1	13	nomatch	sous	-1	0	TIMEOUT	-1.0
692.3392	0.0	+	74	verb	list	4	1	match	son	3	1	y	2.2831
692.9389	0.2	rtchn	74	verb	list	4	2	match	son	3	1	y	2.2831
693.1388000000001	0.0	+	74	verb	list	4	3	match	son	3	1	y	2.2831
693.5387000000001	0.2	paul	74	verb	list	4	4	match	son	3	1	y	2.2831
693.7386	0.0	+	74	verb	list	4	5	match	son	3	1	y	2.2831
694.1384	0.2	son	74	verb	list	4	6	match	son	3	1	y	2.2831
694.3383	0.0	+	74	verb	list	4	7	match	son	3	1	y	2.2831
694.7381	0.2	voyager	74	verb	list	4	8	match	son	3	1	y	2.2831
694.9381000000001	0.0	+	74	verb	list	4	9	match	son	3	1	y	2.2831
695.3379	0.2	bleu	74	verb	list	4	10	match	son	3	1	y	2.2831
695.5378000000001	0.0	+	74	verb	list	4	11	match	son	3	1	y	2.2831
695.9376000000001	0.0	+	74	verb	list	4	12	match	son	3	1	y	2.2831
697.9367000000001	0.0	SON	74	verb	list	4	13	match	son	3	1	y	2.2831
700.2857	0.0	+	74	verb	list	4	14	match	son	3	1	y	2.2831
700.2198000000002	0.0	[response]	74	verb	list	4	15	match	son	3	1	y	2.2831
716.3452000000001	0.0	+	75	verb	list	1	1	match	noir	5	1	y	0.7804
716.8949	0.2	qldf	75	verb	list	1	2	match	noir	5	1	y	0.7804
717.0948000000001	0.0	+	75	verb	list	1	3	match	noir	5	1	y	0.7804
717.4946	0.2	lgnz	75	verb	list	1	4	match	noir	5	1	y	0.7804
717.6946	0.0	+	75	verb	list	1	5	match	noir	5	1	y	0.7804
718.0944000000001	0.2	fpmt	75	verb	list	1	6	match	noir	5	1	y	0.7804
718.2943	0.0	+	75	verb	list	1	7	match	noir	5	1	y	0.7804
718.6941	0.2	sqvrlpt	75	verb	list	1	8	match	noir	5	1	y	0.7804
718.894	0.0	+	75	verb	list	1	9	match	noir	5	1	y	0.7804
719.2938	0.2	noir	75	verb	list	1	10	match	noir	5	1	y	0.7804
719.4938000000001	0.0	+	75	verb	list	1	11	match	noir	5	1	y	0.7804
719.8936	0.0	+	75	verb	list	1	12	match	noir	5	1	y	0.7804
721.8927	0.0	NOIR	75	verb	list	1	13	match	noir	5	1	y	0.7804
722.7256	0.0	+	75	verb	list	1	14	match	noir	5	1	y	0.7804
722.6731000000001	0.0	[response]	75	verb	list	1	15	match	noir	5	1	y	0.7804
724.2916	0.0	+	76	verb	list	4	1	nomatch	rouler	-1	1	p	0.76703
724.8414	0.2	zvs	76	verb	list	4	2	nomatch	rouler	-1	1	p	0.76703
725.0413000000001	0.0	+	76	verb	list	4	3	nomatch	rouler	-1	1	p	0.76703
725.4411	0.2	sur	76	verb	list	4	4	nomatch	rouler	-1	1	p	0.76703
725.6410000000001	0.0	+	76	verb	list	4	5	nomatch	rouler	-1	1	p	0.76703
726.0408	0.2	va	76	verb	list	4	6	nomatch	rouler	-1	1	p	0.76703
726.2407000000001	0.0	+	76	verb	list	4	7	nomatch	rouler	-1	1	p	0.76703
726.6406000000001	0.2	beau	76	verb	list	4	8	nomatch	rouler	-1	1	p	0.76703
726.8405	0.0	+	76	verb	list	4	9	nomatch	rouler	-1	1	p	0.76703
727.2403	0.2	chasser	76	verb	list	4	10	nomatch	rouler	-1	1	p	0.76703
727.4402	0.0	+	76	verb	list	4	11	nomatch	rouler	-1	1	p	0.76703
727.84	0.0	+	76	verb	list	4	12	nomatch	rouler	-1	1	p	0.76703
729.8391	0.0	ROULER	76	verb	list	4	13	nomatch	rouler	-1	1	p	0.76703
730.6721	0.0	+	76	verb	list	4	14	nomatch	rouler	-1	1	p	0.76703
730.6062000000001	0.0	[response]	76	verb	list	4	15	nomatch	rouler	-1	1	p	0.76703
732.2381	0.0	+	77	verb	phrase	1	1	match	moins	5	1	y	0.78243
732.7878000000001	0.2	xtgj	77	verb	phrase	1	2	match	moins	5	1	y	0.78243
732.9877	0.0	+	77	verb	phrase	1	3	match	moins	5	1	y	0.78243
733.3875	0.2	npvf	77	verb	phrase	1	4	match	moins	5	1	y	0.78243
733.5874	0.0	+	77	verb	phrase	1	5	match	moins	5	1	y	0.78243
733.9873	0.2	nblj	77	verb	phrase	1	6	match	moins	5	1	y	0.78243
734.1872000000001	0.0	+	77	verb	phrase	1	7	match	moins	5	1	y	0.78243
734.587	0.2	sqvrlpt	77	verb	phrase	1	8	match	moins	5	1	y	0.78243
734.7869000000001	0.0	+	77	verb	phrase	1	9	match	moins	5	1	y	0.78243
735.1868000000001	0.2	moins	77	verb	phrase	1	10	match	moins	5	1	y	0.78243
735.3866	0.0	+	77	verb	phrase	1	11	match	moins	5	1	y	0.78243
735.7865	0.0	+	77	verb	phrase	1	12	match	moins	5	1	y	0.78243
737.7856	0.0	MOINS	77	verb	phrase	1	13	match	moins	5	1	y	0.78243
738.6352	0.0	+	77	verb	phrase	1	14	match	moins	5	1	y	0.78243
738.568	0.0	[response]	77	verb	phrase	1	15	match	moins	5	1	y	0.78243
740.1845000000001	0.0	+	78	verb	phrase	2	1	match	mieux	4	1	y	0.70822
740.7343000000001	0.2	kfgsmnt	78	verb	phrase	2	2	match	mieux	4	1	y	0.70822
740.9342	0.0	+	78	verb	phrase	2	3	match	mieux	4	1	y	0.70822
741.3340000000001	0.2	jhvb	78	verb	phrase	2	4	match	mieux	4	1	y	0.70822
741.5339	0.0	+	78	verb	phrase	2	5	match	mieux	4	1	y	0.70822
741.9337	0.2	mvbw	78	verb	phrase	2	6	match	mieux	4	1	y	0.70822
742.1336	0.0	+	78	verb	phrase	2	7	match	mieux	4	1	y	0.70822
742.5501	0.2	mieux	78	verb	phrase	2	8	match	mieux	4	1	y	0.70822
742.75	0.0	+	78	verb	phrase	2	9	match	mieux	4	1	y	0.70822
743.1498	0.2	chasser	78	verb	phrase	2	10	match	mieux	4	1	y	0.70822
743.3498000000001	0.0	+	78	verb	phrase	2	11	match	mieux	4	1	y	0.70822
743.7496	0.0	+	78	verb	phrase	2	12	match	mieux	4	1	y	0.70822
745.7487	0.0	MIEUX	78	verb	phrase	2	13	match	mieux	4	1	y	0.70822
746.515	0.0	+	78	verb	phrase	2	14	match	mieux	4	1	y	0.70822
746.4569	0.0	[response]	78	verb	phrase	2	15	match	mieux	4	1	y	0.70822
748.1477	0.0	+	79	noun	phrase	1	1	match	grand	5	1	y	0.4687700000000001
748.6974	0.2	hsxj	79	noun	phrase	1	2	match	grand	5	1	y	0.4687700000000001
748.8973000000001	0.0	+	79	noun	phrase	1	3	match	grand	5	1	y	0.4687700000000001
749.2971	0.2	fgvt	79	noun	phrase	1	4	match	grand	5	1	y	0.4687700000000001
749.4970000000001	0.0	+	79	noun	phrase	1	5	match	grand	5	1	y	0.4687700000000001
749.8968	0.2	zxd	79	noun	phrase	1	6	match	grand	5	1	y	0.4687700000000001
750.0968	0.0	+	79	noun	phrase	1	7	match	grand	5	1	y	0.4687700000000001
750.4966000000001	0.2	lzqbcdn	79	noun	phrase	1	8	match	grand	5	1	y	0.4687700000000001
750.6965	0.0	+	79	noun	phrase	1	9	match	grand	5	1	y	0.4687700000000001
751.0963	0.2	grand	79	noun	phrase	1	10	match	grand	5	1	y	0.4687700000000001
751.2962	0.0	+	79	noun	phrase	1	11	match	grand	5	1	y	0.4687700000000001
751.696	0.0	+	79	noun	phrase	1	12	match	grand	5	1	y	0.4687700000000001
753.6952	0.0	GRAND	79	noun	phrase	1	13	match	grand	5	1	y	0.4687700000000001
754.2282	0.0	+	79	noun	phrase	1	14	match	grand	5	1	y	0.4687700000000001
754.1639	0.0	[response]	79	noun	phrase	1	15	match	grand	5	1	y	0.4687700000000001
756.0941	0.0	+	80	verb	list	4	1	match	jongler	5	1	y	0.71511
756.6438	0.2	zln	80	verb	list	4	2	match	jongler	5	1	y	0.71511
756.8437	0.0	+	80	verb	list	4	3	match	jongler	5	1	y	0.71511
757.2436	0.2	vers	80	verb	list	4	4	match	jongler	5	1	y	0.71511
757.4435000000001	0.0	+	80	verb	list	4	5	match	jongler	5	1	y	0.71511
757.8433	0.2	doit	80	verb	list	4	6	match	jongler	5	1	y	0.71511
758.0432000000001	0.0	+	80	verb	list	4	7	match	jongler	5	1	y	0.71511
758.443	0.2	beau	80	verb	list	4	8	match	jongler	5	1	y	0.71511
758.6429	0.0	+	80	verb	list	4	9	match	jongler	5	1	y	0.71511
759.0428	0.2	jongler	80	verb	list	4	10	match	jongler	5	1	y	0.71511
759.2427	0.0	+	80	verb	list	4	11	match	jongler	5	1	y	0.71511
759.6425	0.0	+	80	verb	list	4	12	match	jongler	5	1	y	0.71511
761.6416	0.0	JONGLER	80	verb	list	4	13	match	jongler	5	1	y	0.71511
762.4246	0.0	+	80	verb	list	4	14	match	jongler	5	1	y	0.71511
764.0405000000001	0.0	+	80	verb	list	4	15	match	jongler	5	1	y	0.71511
765.0068	0.0	+	80	verb	list	4	16	match	jongler	5	1	y	0.71511
765.1067	0.0	+	80	verb	list	4	17	match	jongler	5	1	y	0.71511
766.5061000000001	0.0	+	80	verb	list	4	18	match	jongler	5	1	y	0.71511
766.606	0.0	+	80	verb	list	4	19	match	jongler	5	1	y	0.71511
768.0054	0.0	+	80	verb	list	4	20	match	jongler	5	1	y	0.71511
768.1054	0.0	+	80	verb	list	4	21	match	jongler	5	1	y	0.71511
769.5048	0.0	+	80	verb	list	4	22	match	jongler	5	1	y	0.71511
769.6047000000001	0.0	+	80	verb	list	4	23	match	jongler	5	1	y	0.71511
771.0041	0.0	+	80	verb	list	4	24	match	jongler	5	1	y	0.71511
771.1039999999999	0.0	+	80	verb	list	4	25	match	jongler	5	1	y	0.71511
772.5201000000001	0.0	+	80	verb	list	4	26	match	jongler	5	1	y	0.71511
772.62	0.0	+	80	verb	list	4	27	match	jongler	5	1	y	0.71511
774.0027000000001	0.0	+	80	verb	list	4	28	match	jongler	5	1	y	0.71511
774.1027	0.0	+	80	verb	list	4	29	match	jongler	5	1	y	0.71511
775.5187	0.0	+	80	verb	list	4	30	match	jongler	5	1	y	0.71511
775.6187000000001	0.0	+	80	verb	list	4	31	match	jongler	5	1	y	0.71511
777.0014	0.0	+	80	verb	list	4	32	match	jongler	5	1	y	0.71511
777.1014000000001	0.0	+	80	verb	list	4	33	match	jongler	5	1	y	0.71511
778.5174000000001	0.0	+	80	verb	list	4	34	match	jongler	5	1	y	0.71511
778.6174	0.0	+	80	verb	list	4	35	match	jongler	5	1	y	0.71511
786.6804000000001	0.0	+	80	verb	list	4	36	match	jongler	5	1	y	0.71511
762.3567	0.0	[response]	80	verb	list	4	37	match	jongler	5	1	y	0.71511
