onset	duration	stim	trial_number	trial_type	trial_structure	trial_length	sequential_position	probe_type	probe	probe_position	response_correct	response_key	response_time
0.06299999999999528	0.0	+	1	verb	list	3	1	match	bleu	5	1	y	0.6549600000000001
0.5463000000000022	0.2	zqvkfl	1	verb	list	3	2	match	bleu	5	1	y	0.6549600000000001
0.746299999999998	0.0	+	1	verb	list	3	3	match	bleu	5	1	y	0.6549600000000001
1.1462000000000003	0.2	cnjt	1	verb	list	3	4	match	bleu	5	1	y	0.6549600000000001
1.346199999999996	0.0	+	1	verb	list	3	5	match	bleu	5	1	y	0.6549600000000001
1.7462000000000018	0.2	leur	1	verb	list	3	6	match	bleu	5	1	y	0.6549600000000001
1.9461999999999975	0.0	+	1	verb	list	3	7	match	bleu	5	1	y	0.6549600000000001
2.3461	0.2	patiner	1	verb	list	3	8	match	bleu	5	1	y	0.6549600000000001
2.5460999999999956	0.0	+	1	verb	list	3	9	match	bleu	5	1	y	0.6549600000000001
2.9461000000000013	0.2	bleu	1	verb	list	3	10	match	bleu	5	1	y	0.6549600000000001
3.146099999999997	0.0	+	1	verb	list	3	11	match	bleu	5	1	y	0.6549600000000001
3.5460999999999956	0.0	+	1	verb	list	3	12	match	bleu	5	1	y	0.6549600000000001
5.545899999999996	0.0	BLEU	1	verb	list	3	13	match	bleu	5	1	y	0.6549600000000001
6.262499999999996	0.0	+	1	verb	list	3	14	match	bleu	5	1	y	0.6549600000000001
6.200899999999997	0.0	[response]	1	verb	list	3	15	match	bleu	5	1	y	0.6549600000000001
7.945700000000002	0.0	+	2	verb	list	2	1	nomatch	danser	-1	1	p	0.60665
8.4957	0.2	rltnfcz	2	verb	list	2	2	nomatch	danser	-1	1	p	0.60665
8.695700000000002	0.0	+	2	verb	list	2	3	nomatch	danser	-1	1	p	0.60665
9.095599999999997	0.2	kvlx	2	verb	list	2	4	nomatch	danser	-1	1	p	0.60665
9.2956	0.0	+	2	verb	list	2	5	nomatch	danser	-1	1	p	0.60665
9.695599999999999	0.2	mwvt	2	verb	list	2	6	nomatch	danser	-1	1	p	0.60665
9.895600000000002	0.0	+	2	verb	list	2	7	nomatch	danser	-1	1	p	0.60665
10.295499999999997	0.2	rouler	2	verb	list	2	8	nomatch	danser	-1	1	p	0.60665
10.4955	0.0	+	2	verb	list	2	9	nomatch	danser	-1	1	p	0.60665
10.895500000000006	0.2	blanc	2	verb	list	2	10	nomatch	danser	-1	1	p	0.60665
11.095499999999994	0.0	+	2	verb	list	2	11	nomatch	danser	-1	1	p	0.60665
11.495399999999997	0.0	+	2	verb	list	2	12	nomatch	danser	-1	1	p	0.60665
13.495299999999993	0.0	DANSER	2	verb	list	2	13	nomatch	danser	-1	1	p	0.60665
14.161899999999996	0.0	+	2	verb	list	2	14	nomatch	danser	-1	1	p	0.60665
14.101899999999993	0.0	[response]	2	verb	list	2	15	nomatch	danser	-1	1	p	0.60665
15.895099999999992	0.0	+	3	noun	list	1	1	nomatch	vieux	-1	1	p	0.5789100000000001
16.445100000000004	0.2	tsnwhvz	3	noun	list	1	2	nomatch	vieux	-1	1	p	0.5789100000000001
16.645099999999992	0.0	+	3	noun	list	1	3	nomatch	vieux	-1	1	p	0.5789100000000001
17.044999999999995	0.2	ngcx	3	noun	list	1	4	nomatch	vieux	-1	1	p	0.5789100000000001
17.244999999999997	0.0	+	3	noun	list	1	5	nomatch	vieux	-1	1	p	0.5789100000000001
17.645000000000003	0.2	lnfq	3	noun	list	1	6	nomatch	vieux	-1	1	p	0.5789100000000001
17.84499999999999	0.0	+	3	noun	list	1	7	nomatch	vieux	-1	1	p	0.5789100000000001
18.244899999999994	0.2	qdpbcrgw	3	noun	list	1	8	nomatch	vieux	-1	1	p	0.5789100000000001
18.444899999999997	0.0	+	3	noun	list	1	9	nomatch	vieux	-1	1	p	0.5789100000000001
18.844900000000003	0.2	ainsi	3	noun	list	1	10	nomatch	vieux	-1	1	p	0.5789100000000001
19.044900000000005	0.0	+	3	noun	list	1	11	nomatch	vieux	-1	1	p	0.5789100000000001
19.444799999999994	0.0	+	3	noun	list	1	12	nomatch	vieux	-1	1	p	0.5789100000000001
21.444700000000005	0.0	VIEUX	3	noun	list	1	13	nomatch	vieux	-1	1	p	0.5789100000000001
22.077999999999996	0.0	+	3	noun	list	1	14	nomatch	vieux	-1	1	p	0.5789100000000001
22.023599999999995	0.0	[response]	3	noun	list	1	15	nomatch	vieux	-1	1	p	0.5789100000000001
23.844500000000004	0.0	+	4	noun	phrase	1	1	match	bleu	5	1	y	0.7466500000000001
24.3945	0.2	jrsx	4	noun	phrase	1	2	match	bleu	5	1	y	0.7466500000000001
24.5944	0.0	+	4	noun	phrase	1	3	match	bleu	5	1	y	0.7466500000000001
24.99439999999999	0.2	xsh	4	noun	phrase	1	4	match	bleu	5	1	y	0.7466500000000001
25.194399999999995	0.0	+	4	noun	phrase	1	5	match	bleu	5	1	y	0.7466500000000001
25.5944	0.2	mwvt	4	noun	phrase	1	6	match	bleu	5	1	y	0.7466500000000001
25.794400000000003	0.0	+	4	noun	phrase	1	7	match	bleu	5	1	y	0.7466500000000001
26.194300000000005	0.2	drlbmhz	4	noun	phrase	1	8	match	bleu	5	1	y	0.7466500000000001
26.394299999999994	0.0	+	4	noun	phrase	1	9	match	bleu	5	1	y	0.7466500000000001
26.7943	0.2	bleu	4	noun	phrase	1	10	match	bleu	5	1	y	0.7466500000000001
26.994300000000003	0.0	+	4	noun	phrase	1	11	match	bleu	5	1	y	0.7466500000000001
27.394200000000005	0.0	+	4	noun	phrase	1	12	match	bleu	5	1	y	0.7466500000000001
29.3941	0.0	BLEU	4	noun	phrase	1	13	match	bleu	5	1	y	0.7466500000000001
30.210699999999996	0.0	+	4	noun	phrase	1	14	match	bleu	5	1	y	0.7466500000000001
30.140700000000002	0.0	[response]	4	noun	phrase	1	15	match	bleu	5	1	y	0.7466500000000001
39.793299999999995	0.0	+	5	verb	phrase	1	1	nomatch	tôt	-1	1	p	1.1539
40.3432	0.2	ncprbmv	5	verb	phrase	1	2	nomatch	tôt	-1	1	p	1.1539
40.543200000000006	0.0	+	5	verb	phrase	1	3	nomatch	tôt	-1	1	p	1.1539
40.9432	0.2	xfct	5	verb	phrase	1	4	nomatch	tôt	-1	1	p	1.1539
41.1432	0.0	+	5	verb	phrase	1	5	nomatch	tôt	-1	1	p	1.1539
41.5431	0.2	qgkm	5	verb	phrase	1	6	nomatch	tôt	-1	1	p	1.1539
41.743100000000005	0.0	+	5	verb	phrase	1	7	nomatch	tôt	-1	1	p	1.1539
42.1431	0.2	hrmj	5	verb	phrase	1	8	nomatch	tôt	-1	1	p	1.1539
42.3431	0.0	+	5	verb	phrase	1	9	nomatch	tôt	-1	1	p	1.1539
42.743100000000005	0.2	voyager	5	verb	phrase	1	10	nomatch	tôt	-1	1	p	1.1539
42.943000000000005	0.0	+	5	verb	phrase	1	11	nomatch	tôt	-1	1	p	1.1539
43.342999999999996	0.0	+	5	verb	phrase	1	12	nomatch	tôt	-1	1	p	1.1539
45.34289999999999	0.0	TÔT	5	verb	phrase	1	13	nomatch	tôt	-1	1	p	1.1539
46.559400000000004	0.0	+	5	verb	phrase	1	14	nomatch	tôt	-1	1	p	1.1539
46.4968	0.0	[response]	5	verb	phrase	1	15	nomatch	tôt	-1	1	p	1.1539
47.74269999999999	0.0	+	6	noun	phrase	1	1	match	rocher	5	1	y	0.58163
48.2926	0.2	bqplzf	6	noun	phrase	1	2	match	rocher	5	1	y	0.58163
48.4926	0.0	+	6	noun	phrase	1	3	match	rocher	5	1	y	0.58163
48.892599999999995	0.2	chdk	6	noun	phrase	1	4	match	rocher	5	1	y	0.58163
49.0926	0.0	+	6	noun	phrase	1	5	match	rocher	5	1	y	0.58163
49.4925	0.2	mwvt	6	noun	phrase	1	6	match	rocher	5	1	y	0.58163
49.6925	0.0	+	6	noun	phrase	1	7	match	rocher	5	1	y	0.58163
50.092499999999994	0.2	mjzbs	6	noun	phrase	1	8	match	rocher	5	1	y	0.58163
50.2925	0.0	+	6	noun	phrase	1	9	match	rocher	5	1	y	0.58163
50.693099999999994	0.2	rocher	6	noun	phrase	1	10	match	rocher	5	1	y	0.58163
50.8924	0.0	+	6	noun	phrase	1	11	match	rocher	5	1	y	0.58163
51.292399999999994	0.0	+	6	noun	phrase	1	12	match	rocher	5	1	y	0.58163
53.2922	0.0	ROCHER	6	noun	phrase	1	13	match	rocher	5	1	y	0.58163
53.94219999999999	0.0	+	6	noun	phrase	1	14	match	rocher	5	1	y	0.58163
53.8739	0.0	[response]	6	noun	phrase	1	15	match	rocher	5	1	y	0.58163
55.6921	0.0	+	7	noun	phrase	1	1	nomatch	trop	-1	1	p	0.57733
56.242	0.2	htwj	7	noun	phrase	1	2	nomatch	trop	-1	1	p	0.57733
56.442	0.0	+	7	noun	phrase	1	3	nomatch	trop	-1	1	p	0.57733
56.842000000000006	0.2	fhsq	7	noun	phrase	1	4	nomatch	trop	-1	1	p	0.57733
57.041999999999994	0.0	+	7	noun	phrase	1	5	nomatch	trop	-1	1	p	0.57733
57.4419	0.2	psl	7	noun	phrase	1	6	nomatch	trop	-1	1	p	0.57733
57.6419	0.0	+	7	noun	phrase	1	7	nomatch	trop	-1	1	p	0.57733
58.041900000000005	0.2	cmjwknr	7	noun	phrase	1	8	nomatch	trop	-1	1	p	0.57733
58.241899999999994	0.0	+	7	noun	phrase	1	9	nomatch	trop	-1	1	p	0.57733
58.641799999999996	0.2	cendrier	7	noun	phrase	1	10	nomatch	trop	-1	1	p	0.57733
58.8418	0.0	+	7	noun	phrase	1	11	nomatch	trop	-1	1	p	0.57733
59.241800000000005	0.0	+	7	noun	phrase	1	12	nomatch	trop	-1	1	p	0.57733
61.2416	0.0	TROP	7	noun	phrase	1	13	nomatch	trop	-1	1	p	0.57733
61.874900000000004	0.0	+	7	noun	phrase	1	14	nomatch	trop	-1	1	p	0.57733
61.818999999999996	0.0	[response]	7	noun	phrase	1	15	nomatch	trop	-1	1	p	0.57733
63.6414	0.0	+	8	verb	list	4	1	match	dans	2	1	y	0.60867
64.19139999999999	0.2	rkmfdgx	8	verb	list	4	2	match	dans	2	1	y	0.60867
64.3914	0.0	+	8	verb	list	4	3	match	dans	2	1	y	0.60867
64.79140000000001	0.2	dans	8	verb	list	4	4	match	dans	2	1	y	0.60867
64.9913	0.0	+	8	verb	list	4	5	match	dans	2	1	y	0.60867
65.3913	0.2	peut	8	verb	list	4	6	match	dans	2	1	y	0.60867
65.59129999999999	0.0	+	8	verb	list	4	7	match	dans	2	1	y	0.60867
65.9913	0.2	vieux	8	verb	list	4	8	match	dans	2	1	y	0.60867
66.19120000000001	0.0	+	8	verb	list	4	9	match	dans	2	1	y	0.60867
66.59119999999999	0.2	chasser	8	verb	list	4	10	match	dans	2	1	y	0.60867
66.7912	0.0	+	8	verb	list	4	11	match	dans	2	1	y	0.60867
67.19120000000001	0.0	+	8	verb	list	4	12	match	dans	2	1	y	0.60867
69.191	0.0	DANS	8	verb	list	4	13	match	dans	2	1	y	0.60867
69.85759999999999	0.0	+	8	verb	list	4	14	match	dans	2	1	y	0.60867
69.7997	0.0	[response]	8	verb	list	4	15	match	dans	2	1	y	0.60867
71.5908	0.0	+	9	noun	phrase	3	1	match	casier	5	1	y	0.7553
72.14080000000001	0.2	tlr	9	noun	phrase	3	2	match	casier	5	1	y	0.7553
72.3408	0.0	+	9	noun	phrase	3	3	match	casier	5	1	y	0.7553
72.74080000000001	0.2	fhsq	9	noun	phrase	3	4	match	casier	5	1	y	0.7553
72.94069999999999	0.0	+	9	noun	phrase	3	5	match	casier	5	1	y	0.7553
73.3407	0.2	son	9	noun	phrase	3	6	match	casier	5	1	y	0.7553
73.54069999999999	0.0	+	9	noun	phrase	3	7	match	casier	5	1	y	0.7553
73.94069999999999	0.2	grand	9	noun	phrase	3	8	match	casier	5	1	y	0.7553
74.1406	0.0	+	9	noun	phrase	3	9	match	casier	5	1	y	0.7553
74.54060000000001	0.2	casier	9	noun	phrase	3	10	match	casier	5	1	y	0.7553
74.7406	0.0	+	9	noun	phrase	3	11	match	casier	5	1	y	0.7553
75.14059999999998	0.0	+	9	noun	phrase	3	12	match	casier	5	1	y	0.7553
77.1404	0.0	CASIER	9	noun	phrase	3	13	match	casier	5	1	y	0.7553
77.957	0.0	+	9	noun	phrase	3	14	match	casier	5	1	y	0.7553
77.8957	0.0	[response]	9	noun	phrase	3	15	match	casier	5	1	y	0.7553
79.5402	0.0	+	10	verb	phrase	3	1	match	va	3	1	y	0.7526500000000002
80.09019999999998	0.2	xmnczhl	10	verb	phrase	3	2	match	va	3	1	y	0.7526500000000002
80.2902	0.0	+	10	verb	phrase	3	3	match	va	3	1	y	0.7526500000000002
80.69129999999998	0.2	xfct	10	verb	phrase	3	4	match	va	3	1	y	0.7526500000000002
80.89009999999999	0.0	+	10	verb	phrase	3	5	match	va	3	1	y	0.7526500000000002
81.2901	0.2	va	10	verb	phrase	3	6	match	va	3	1	y	0.7526500000000002
81.49009999999998	0.0	+	10	verb	phrase	3	7	match	va	3	1	y	0.7526500000000002
81.88999999999999	0.2	danser	10	verb	phrase	3	8	match	va	3	1	y	0.7526500000000002
82.09	0.0	+	10	verb	phrase	3	9	match	va	3	1	y	0.7526500000000002
82.48999999999998	0.2	vite	10	verb	phrase	3	10	match	va	3	1	y	0.7526500000000002
82.69	0.0	+	10	verb	phrase	3	11	match	va	3	1	y	0.7526500000000002
83.09	0.0	+	10	verb	phrase	3	12	match	va	3	1	y	0.7526500000000002
85.0898	0.0	VA	10	verb	phrase	3	13	match	va	3	1	y	0.7526500000000002
85.90639999999999	0.0	+	10	verb	phrase	3	14	match	va	3	1	y	0.7526500000000002
85.84250000000003	0.0	[response]	10	verb	phrase	3	15	match	va	3	1	y	0.7526500000000002
87.4896	0.0	+	11	noun	phrase	1	1	nomatch	casier	-1	1	p	0.90631
88.03959999999998	0.2	gsnb	11	noun	phrase	1	2	nomatch	casier	-1	1	p	0.90631
88.2396	0.0	+	11	noun	phrase	1	3	nomatch	casier	-1	1	p	0.90631
88.6395	0.2	dtnl	11	noun	phrase	1	4	nomatch	casier	-1	1	p	0.90631
88.83949999999999	0.0	+	11	noun	phrase	1	5	nomatch	casier	-1	1	p	0.90631
89.23949999999999	0.2	hkq	11	noun	phrase	1	6	nomatch	casier	-1	1	p	0.90631
89.43949999999998	0.0	+	11	noun	phrase	1	7	nomatch	casier	-1	1	p	0.90631
89.83939999999998	0.2	ljskz	11	noun	phrase	1	8	nomatch	casier	-1	1	p	0.90631
90.0394	0.0	+	11	noun	phrase	1	9	nomatch	casier	-1	1	p	0.90631
90.43939999999998	0.2	clavier	11	noun	phrase	1	10	nomatch	casier	-1	1	p	0.90631
90.6394	0.0	+	11	noun	phrase	1	11	nomatch	casier	-1	1	p	0.90631
91.0393	0.0	+	11	noun	phrase	1	12	nomatch	casier	-1	1	p	0.90631
93.0392	0.0	CASIER	11	noun	phrase	1	13	nomatch	casier	-1	1	p	0.90631
94.0058	0.0	+	11	noun	phrase	1	14	nomatch	casier	-1	1	p	0.90631
93.94549999999998	0.0	[response]	11	noun	phrase	1	15	nomatch	casier	-1	1	p	0.90631
95.439	0.0	+	12	noun	list	3	1	match	plus	4	1	y	0.8986
95.989	0.2	wbhdnlj	12	noun	list	3	2	match	plus	4	1	y	0.8986
96.18889999999999	0.0	+	12	noun	list	3	3	match	plus	4	1	y	0.8986
96.5889	0.2	frjv	12	noun	list	3	4	match	plus	4	1	y	0.8986
96.78889999999998	0.0	+	12	noun	list	3	5	match	plus	4	1	y	0.8986
97.18889999999999	0.2	son	12	noun	list	3	6	match	plus	4	1	y	0.8986
97.38889999999998	0.0	+	12	noun	list	3	7	match	plus	4	1	y	0.8986
97.78879999999998	0.2	plus	12	noun	list	3	8	match	plus	4	1	y	0.8986
97.9888	0.0	+	12	noun	list	3	9	match	plus	4	1	y	0.8986
98.3888	0.2	boîtier	12	noun	list	3	10	match	plus	4	1	y	0.8986
98.58879999999999	0.0	+	12	noun	list	3	11	match	plus	4	1	y	0.8986
98.9887	0.0	+	12	noun	list	3	12	match	plus	4	1	y	0.8986
100.98859999999999	0.0	PLUS	12	noun	list	3	13	match	plus	4	1	y	0.8986
101.95519999999999	0.0	+	12	noun	list	3	14	match	plus	4	1	y	0.8986
101.88719999999998	0.0	[response]	12	noun	list	3	15	match	plus	4	1	y	0.8986
103.38839999999999	0.0	+	13	noun	phrase	1	1	nomatch	nouveau	-1	1	p	0.78016
103.9384	0.2	mhzqp	13	noun	phrase	1	2	nomatch	nouveau	-1	1	p	0.78016
104.13829999999999	0.0	+	13	noun	phrase	1	3	nomatch	nouveau	-1	1	p	0.78016
104.53829999999999	0.2	fjcz	13	noun	phrase	1	4	nomatch	nouveau	-1	1	p	0.78016
104.73829999999998	0.0	+	13	noun	phrase	1	5	nomatch	nouveau	-1	1	p	0.78016
105.13829999999999	0.2	psl	13	noun	phrase	1	6	nomatch	nouveau	-1	1	p	0.78016
105.3382	0.0	+	13	noun	phrase	1	7	nomatch	nouveau	-1	1	p	0.78016
105.73819999999998	0.2	psmcxl	13	noun	phrase	1	8	nomatch	nouveau	-1	1	p	0.78016
105.9382	0.0	+	13	noun	phrase	1	9	nomatch	nouveau	-1	1	p	0.78016
106.3382	0.2	vieux	13	noun	phrase	1	10	nomatch	nouveau	-1	1	p	0.78016
106.53819999999999	0.0	+	13	noun	phrase	1	11	nomatch	nouveau	-1	1	p	0.78016
106.93809999999999	0.0	+	13	noun	phrase	1	12	nomatch	nouveau	-1	1	p	0.78016
108.93799999999999	0.0	NOUVEAU	13	noun	phrase	1	13	nomatch	nouveau	-1	1	p	0.78016
109.78789999999998	0.0	+	13	noun	phrase	1	14	nomatch	nouveau	-1	1	p	0.78016
109.71809999999999	0.0	[response]	13	noun	phrase	1	15	nomatch	nouveau	-1	1	p	0.78016
111.33779999999999	0.0	+	14	verb	list	1	1	nomatch	galoper	-1	1	p	0.54413
111.8877	0.2	dkzbtm	14	verb	list	1	2	nomatch	galoper	-1	1	p	0.54413
112.08769999999998	0.0	+	14	verb	list	1	3	nomatch	galoper	-1	1	p	0.54413
112.48769999999999	0.2	dtnl	14	verb	list	1	4	nomatch	galoper	-1	1	p	0.54413
112.68769999999998	0.0	+	14	verb	list	1	5	nomatch	galoper	-1	1	p	0.54413
113.08759999999998	0.2	lnfq	14	verb	list	1	6	nomatch	galoper	-1	1	p	0.54413
113.2876	0.0	+	14	verb	list	1	7	nomatch	galoper	-1	1	p	0.54413
113.6876	0.2	xkwgr	14	verb	list	1	8	nomatch	galoper	-1	1	p	0.54413
113.88759999999999	0.0	+	14	verb	list	1	9	nomatch	galoper	-1	1	p	0.54413
114.2876	0.2	nager	14	verb	list	1	10	nomatch	galoper	-1	1	p	0.54413
114.48749999999998	0.0	+	14	verb	list	1	11	nomatch	galoper	-1	1	p	0.54413
114.88749999999999	0.0	+	14	verb	list	1	12	nomatch	galoper	-1	1	p	0.54413
116.88739999999999	0.0	GALOPER	14	verb	list	1	13	nomatch	galoper	-1	1	p	0.54413
117.4873	0.0	+	14	verb	list	1	14	nomatch	galoper	-1	1	p	0.54413
117.4315	0.0	[response]	14	verb	list	1	15	nomatch	galoper	-1	1	p	0.54413
119.28719999999998	0.0	+	15	noun	list	4	1	nomatch	peut	-1	1	p	0.7449800000000001
119.83709999999999	0.2	zkmpbrv	15	noun	list	4	2	nomatch	peut	-1	1	p	0.7449800000000001
120.03709999999998	0.0	+	15	noun	list	4	3	nomatch	peut	-1	1	p	0.7449800000000001
120.43709999999999	0.2	jade	15	noun	list	4	4	nomatch	peut	-1	1	p	0.7449800000000001
120.6371	0.0	+	15	noun	list	4	5	nomatch	peut	-1	1	p	0.7449800000000001
121.03699999999998	0.2	leur	15	noun	list	4	6	nomatch	peut	-1	1	p	0.7449800000000001
121.237	0.0	+	15	noun	list	4	7	nomatch	peut	-1	1	p	0.7449800000000001
121.637	0.2	plus	15	noun	list	4	8	nomatch	peut	-1	1	p	0.7449800000000001
121.83699999999999	0.0	+	15	noun	list	4	9	nomatch	peut	-1	1	p	0.7449800000000001
122.23689999999999	0.2	sablier	15	noun	list	4	10	nomatch	peut	-1	1	p	0.7449800000000001
122.43689999999998	0.0	+	15	noun	list	4	11	nomatch	peut	-1	1	p	0.7449800000000001
122.83689999999999	0.0	+	15	noun	list	4	12	nomatch	peut	-1	1	p	0.7449800000000001
124.83669999999998	0.0	PEUT	15	noun	list	4	13	nomatch	peut	-1	1	p	0.7449800000000001
125.63669999999999	0.0	+	15	noun	list	4	14	nomatch	peut	-1	1	p	0.7449800000000001
125.58170000000001	0.0	[response]	15	noun	list	4	15	nomatch	peut	-1	1	p	0.7449800000000001
127.23659999999998	0.0	+	16	noun	phrase	4	1	match	cendrier	5	1	y	0.82346
127.78649999999999	0.2	qpsx	16	noun	phrase	4	2	match	cendrier	5	1	y	0.82346
127.98649999999998	0.0	+	16	noun	phrase	4	3	match	cendrier	5	1	y	0.82346
128.38649999999998	0.2	sans	16	noun	phrase	4	4	match	cendrier	5	1	y	0.82346
128.5865	0.0	+	16	noun	phrase	4	5	match	cendrier	5	1	y	0.82346
128.9864	0.2	son	16	noun	phrase	4	6	match	cendrier	5	1	y	0.82346
129.1864	0.0	+	16	noun	phrase	4	7	match	cendrier	5	1	y	0.82346
129.5864	0.2	beau	16	noun	phrase	4	8	match	cendrier	5	1	y	0.82346
129.7864	0.0	+	16	noun	phrase	4	9	match	cendrier	5	1	y	0.82346
130.1863	0.2	cendrier	16	noun	phrase	4	10	match	cendrier	5	1	y	0.82346
130.3863	0.0	+	16	noun	phrase	4	11	match	cendrier	5	1	y	0.82346
130.78629999999998	0.0	+	16	noun	phrase	4	12	match	cendrier	5	1	y	0.82346
132.7861	0.0	CENDRIER	16	noun	phrase	4	13	match	cendrier	5	1	y	0.82346
133.6694	0.0	+	16	noun	phrase	4	14	match	cendrier	5	1	y	0.82346
133.6096	0.0	[response]	16	noun	phrase	4	15	match	cendrier	5	1	y	0.82346
135.1859	0.0	+	17	noun	list	1	1	match	tablier	5	1	y	0.49625
135.7359	0.2	plvnb	17	noun	list	1	2	match	tablier	5	1	y	0.49625
135.9359	0.0	+	17	noun	list	1	3	match	tablier	5	1	y	0.49625
136.33589999999998	0.2	fjcz	17	noun	list	1	4	match	tablier	5	1	y	0.49625
136.5358	0.0	+	17	noun	list	1	5	match	tablier	5	1	y	0.49625
136.9358	0.2	qgkm	17	noun	list	1	6	match	tablier	5	1	y	0.49625
137.1358	0.0	+	17	noun	list	1	7	match	tablier	5	1	y	0.49625
137.5358	0.2	wkjvd	17	noun	list	1	8	match	tablier	5	1	y	0.49625
137.73579999999998	0.0	+	17	noun	list	1	9	match	tablier	5	1	y	0.49625
138.13569999999999	0.2	tablier	17	noun	list	1	10	match	tablier	5	1	y	0.49625
138.33939999999998	0.0	+	17	noun	list	1	11	match	tablier	5	1	y	0.49625
138.73569999999998	0.0	+	17	noun	list	1	12	match	tablier	5	1	y	0.49625
140.7355	0.0	TABLIER	17	noun	list	1	13	match	tablier	5	1	y	0.49625
141.3021	0.0	+	17	noun	list	1	14	match	tablier	5	1	y	0.49625
141.23180000000002	0.0	[response]	17	noun	list	1	15	match	tablier	5	1	y	0.49625
151.1514	0.0	+	18	noun	phrase	3	1	nomatch	son	-1	1	p	0.75616
151.7013	0.2	ntcpk	18	noun	phrase	3	2	nomatch	son	-1	1	p	0.75616
151.9013	0.0	+	18	noun	phrase	3	3	nomatch	son	-1	1	p	0.75616
152.3013	0.2	xsh	18	noun	phrase	3	4	nomatch	son	-1	1	p	0.75616
152.5013	0.0	+	18	noun	phrase	3	5	nomatch	son	-1	1	p	0.75616
152.9013	0.2	leur	18	noun	phrase	3	6	nomatch	son	-1	1	p	0.75616
153.1012	0.0	+	18	noun	phrase	3	7	nomatch	son	-1	1	p	0.75616
153.50119999999998	0.2	rocher	18	noun	phrase	3	8	nomatch	son	-1	1	p	0.75616
153.7012	0.0	+	18	noun	phrase	3	9	nomatch	son	-1	1	p	0.75616
154.1012	0.2	blanc	18	noun	phrase	3	10	nomatch	son	-1	1	p	0.75616
154.3011	0.0	+	18	noun	phrase	3	11	nomatch	son	-1	1	p	0.75616
154.7011	0.0	+	18	noun	phrase	3	12	nomatch	son	-1	1	p	0.75616
156.701	0.0	SON	18	noun	phrase	3	13	nomatch	son	-1	1	p	0.75616
157.5176	0.0	+	18	noun	phrase	3	14	nomatch	son	-1	1	p	0.75616
157.4571	0.0	[response]	18	noun	phrase	3	15	nomatch	son	-1	1	p	0.75616
159.1008	0.0	+	19	noun	phrase	2	1	nomatch	sur	-1	1	p	0.9482
159.6507	0.2	hfmd	19	noun	phrase	2	2	nomatch	sur	-1	1	p	0.9482
159.8507	0.0	+	19	noun	phrase	2	3	nomatch	sur	-1	1	p	0.9482
160.2507	0.2	chdk	19	noun	phrase	2	4	nomatch	sur	-1	1	p	0.9482
160.45069999999998	0.0	+	19	noun	phrase	2	5	nomatch	sur	-1	1	p	0.9482
160.8506	0.2	psl	19	noun	phrase	2	6	nomatch	sur	-1	1	p	0.9482
161.0506	0.0	+	19	noun	phrase	2	7	nomatch	sur	-1	1	p	0.9482
161.45059999999998	0.2	nouveau	19	noun	phrase	2	8	nomatch	sur	-1	1	p	0.9482
161.6506	0.0	+	19	noun	phrase	2	9	nomatch	sur	-1	1	p	0.9482
162.0506	0.2	clavier	19	noun	phrase	2	10	nomatch	sur	-1	1	p	0.9482
162.2505	0.0	+	19	noun	phrase	2	11	nomatch	sur	-1	1	p	0.9482
162.6505	0.0	+	19	noun	phrase	2	12	nomatch	sur	-1	1	p	0.9482
164.6504	0.0	SUR	19	noun	phrase	2	13	nomatch	sur	-1	1	p	0.9482
165.6669	0.0	+	19	noun	phrase	2	14	nomatch	sur	-1	1	p	0.9482
165.59850000000003	0.0	[response]	19	noun	phrase	2	15	nomatch	sur	-1	1	p	0.9482
167.0502	0.0	+	20	verb	phrase	2	1	nomatch	chasser	-1	1	p	0.9453000000000001
167.6001	0.2	xdtqw	20	verb	phrase	2	2	nomatch	chasser	-1	1	p	0.9453000000000001
167.8001	0.0	+	20	verb	phrase	2	3	nomatch	chasser	-1	1	p	0.9453000000000001
168.2001	0.2	jkvt	20	verb	phrase	2	4	nomatch	chasser	-1	1	p	0.9453000000000001
168.40009999999998	0.0	+	20	verb	phrase	2	5	nomatch	chasser	-1	1	p	0.9453000000000001
168.79999999999998	0.2	ms	20	verb	phrase	2	6	nomatch	chasser	-1	1	p	0.9453000000000001
169.0	0.0	+	20	verb	phrase	2	7	nomatch	chasser	-1	1	p	0.9453000000000001
169.4	0.2	plus	20	verb	phrase	2	8	nomatch	chasser	-1	1	p	0.9453000000000001
169.6	0.0	+	20	verb	phrase	2	9	nomatch	chasser	-1	1	p	0.9453000000000001
169.9999	0.2	danser	20	verb	phrase	2	10	nomatch	chasser	-1	1	p	0.9453000000000001
170.19989999999999	0.0	+	20	verb	phrase	2	11	nomatch	chasser	-1	1	p	0.9453000000000001
170.5999	0.0	+	20	verb	phrase	2	12	nomatch	chasser	-1	1	p	0.9453000000000001
172.59969999999998	0.0	CHASSER	20	verb	phrase	2	13	nomatch	chasser	-1	1	p	0.9453000000000001
173.59969999999998	0.0	+	20	verb	phrase	2	14	nomatch	chasser	-1	1	p	0.9453000000000001
173.545	0.0	[response]	20	verb	phrase	2	15	nomatch	chasser	-1	1	p	0.9453000000000001
174.99949999999998	0.0	+	21	noun	list	3	1	match	rocher	5	1	y	0.52892
175.5495	0.2	crsqnx	21	noun	list	3	2	match	rocher	5	1	y	0.52892
175.74949999999998	0.0	+	21	noun	list	3	3	match	rocher	5	1	y	0.52892
176.1495	0.2	kvlx	21	noun	list	3	4	match	rocher	5	1	y	0.52892
176.34949999999998	0.0	+	21	noun	list	3	5	match	rocher	5	1	y	0.52892
176.74939999999998	0.2	leur	21	noun	list	3	6	match	rocher	5	1	y	0.52892
176.9494	0.0	+	21	noun	list	3	7	match	rocher	5	1	y	0.52892
177.3494	0.2	moins	21	noun	list	3	8	match	rocher	5	1	y	0.52892
177.5494	0.0	+	21	noun	list	3	9	match	rocher	5	1	y	0.52892
177.9493	0.2	rocher	21	noun	list	3	10	match	rocher	5	1	y	0.52892
178.14929999999998	0.0	+	21	noun	list	3	11	match	rocher	5	1	y	0.52892
178.5493	0.0	+	21	noun	list	3	12	match	rocher	5	1	y	0.52892
180.54909999999998	0.0	ROCHER	21	noun	list	3	13	match	rocher	5	1	y	0.52892
181.1324	0.0	+	21	noun	list	3	14	match	rocher	5	1	y	0.52892
181.07800000000003	0.0	[response]	21	noun	list	3	15	match	rocher	5	1	y	0.52892
182.94889999999998	0.0	+	22	noun	list	3	1	nomatch	vite	-1	1	p	0.79508
183.4989	0.2	zcsfqh	22	noun	list	3	2	nomatch	vite	-1	1	p	0.79508
183.69889999999998	0.0	+	22	noun	list	3	3	nomatch	vite	-1	1	p	0.79508
184.0989	0.2	ngcx	22	noun	list	3	4	nomatch	vite	-1	1	p	0.79508
184.2988	0.0	+	22	noun	list	3	5	nomatch	vite	-1	1	p	0.79508
184.6988	0.2	peut	22	noun	list	3	6	nomatch	vite	-1	1	p	0.79508
184.8988	0.0	+	22	noun	list	3	7	nomatch	vite	-1	1	p	0.79508
185.2988	0.2	boîtier	22	noun	list	3	8	nomatch	vite	-1	1	p	0.79508
185.4988	0.0	+	22	noun	list	3	9	nomatch	vite	-1	1	p	0.79508
185.8987	0.2	tard	22	noun	list	3	10	nomatch	vite	-1	1	p	0.79508
186.09869999999998	0.0	+	22	noun	list	3	11	nomatch	vite	-1	1	p	0.79508
186.49869999999999	0.0	+	22	noun	list	3	12	nomatch	vite	-1	1	p	0.79508
188.49849999999998	0.0	VITE	22	noun	list	3	13	nomatch	vite	-1	1	p	0.79508
189.3484	0.0	+	22	noun	list	3	14	nomatch	vite	-1	1	p	0.79508
189.2936	0.0	[response]	22	noun	list	3	15	nomatch	vite	-1	1	p	0.79508
190.89829999999998	0.0	+	23	noun	phrase	4	1	match	mon	3	1	y	1.3541
191.4483	0.2	xlw	23	noun	phrase	4	2	match	mon	3	1	y	1.3541
191.64829999999998	0.0	+	23	noun	phrase	4	3	match	mon	3	1	y	1.3541
192.04819999999998	0.2	avec	23	noun	phrase	4	4	match	mon	3	1	y	1.3541
192.2482	0.0	+	23	noun	phrase	4	5	match	mon	3	1	y	1.3541
192.6482	0.2	mon	23	noun	phrase	4	6	match	mon	3	1	y	1.3541
192.8482	0.0	+	23	noun	phrase	4	7	match	mon	3	1	y	1.3541
193.2482	0.2	grenier	23	noun	phrase	4	8	match	mon	3	1	y	1.3541
193.44809999999998	0.0	+	23	noun	phrase	4	9	match	mon	3	1	y	1.3541
193.8481	0.2	blanc	23	noun	phrase	4	10	match	mon	3	1	y	1.3541
194.0481	0.0	+	23	noun	phrase	4	11	match	mon	3	1	y	1.3541
194.44809999999998	0.0	+	23	noun	phrase	4	12	match	mon	3	1	y	1.3541
196.4479	0.0	MON	23	noun	phrase	4	13	match	mon	3	1	y	1.3541
197.8645	0.0	+	23	noun	phrase	4	14	match	mon	3	1	y	1.3541
197.802	0.0	[response]	23	noun	phrase	4	15	match	mon	3	1	y	1.3541
198.8477	0.0	+	24	verb	phrase	1	1	match	danser	5	1	y	0.43938
199.3977	0.2	vklr	24	verb	phrase	1	2	match	danser	5	1	y	0.43938
199.5977	0.0	+	24	verb	phrase	1	3	match	danser	5	1	y	0.43938
199.9976	0.2	xfct	24	verb	phrase	1	4	match	danser	5	1	y	0.43938
200.1976	0.0	+	24	verb	phrase	1	5	match	danser	5	1	y	0.43938
200.5976	0.2	ms	24	verb	phrase	1	6	match	danser	5	1	y	0.43938
200.7976	0.0	+	24	verb	phrase	1	7	match	danser	5	1	y	0.43938
201.1975	0.2	nfg	24	verb	phrase	1	8	match	danser	5	1	y	0.43938
201.39749999999998	0.0	+	24	verb	phrase	1	9	match	danser	5	1	y	0.43938
201.79749999999999	0.2	danser	24	verb	phrase	1	10	match	danser	5	1	y	0.43938
201.9975	0.0	+	24	verb	phrase	1	11	match	danser	5	1	y	0.43938
202.3974	0.0	+	24	verb	phrase	1	12	match	danser	5	1	y	0.43938
204.39729999999997	0.0	DANSER	24	verb	phrase	1	13	match	danser	5	1	y	0.43938
204.8972	0.0	+	24	verb	phrase	1	14	match	danser	5	1	y	0.43938
204.8367	0.0	[response]	24	verb	phrase	1	15	match	danser	5	1	y	0.43938
214.79649999999998	0.0	+	25	noun	phrase	3	1	nomatch	cendrier	-1	1	p	0.61529
215.3465	0.2	htb	25	noun	phrase	3	2	nomatch	cendrier	-1	1	p	0.61529
215.5464	0.0	+	25	noun	phrase	3	3	nomatch	cendrier	-1	1	p	0.61529
215.94639999999998	0.2	lnfq	25	noun	phrase	3	4	nomatch	cendrier	-1	1	p	0.61529
216.14639999999997	0.0	+	25	noun	phrase	3	5	nomatch	cendrier	-1	1	p	0.61529
216.5464	0.2	son	25	noun	phrase	3	6	nomatch	cendrier	-1	1	p	0.61529
216.74630000000002	0.0	+	25	noun	phrase	3	7	nomatch	cendrier	-1	1	p	0.61529
217.1463	0.2	boîtier	25	noun	phrase	3	8	nomatch	cendrier	-1	1	p	0.61529
217.34629999999999	0.0	+	25	noun	phrase	3	9	nomatch	cendrier	-1	1	p	0.61529
217.74630000000002	0.2	noir	25	noun	phrase	3	10	nomatch	cendrier	-1	1	p	0.61529
217.9463	0.0	+	25	noun	phrase	3	11	nomatch	cendrier	-1	1	p	0.61529
218.3462	0.0	+	25	noun	phrase	3	12	nomatch	cendrier	-1	1	p	0.61529
220.34609999999998	0.0	CENDRIER	25	noun	phrase	3	13	nomatch	cendrier	-1	1	p	0.61529
221.02929999999998	0.0	+	25	noun	phrase	3	14	nomatch	cendrier	-1	1	p	0.61529
220.96139999999997	0.0	[response]	25	noun	phrase	3	15	nomatch	cendrier	-1	1	p	0.61529
222.7459	0.0	+	26	verb	list	3	1	nomatch	ainsi	-1	1	p	0.71278
223.29579999999999	0.2	qcs	26	verb	list	3	2	nomatch	ainsi	-1	1	p	0.71278
223.49579999999997	0.0	+	26	verb	list	3	3	nomatch	ainsi	-1	1	p	0.71278
223.8958	0.2	fhsq	26	verb	list	3	4	nomatch	ainsi	-1	1	p	0.71278
224.0958	0.0	+	26	verb	list	3	5	nomatch	ainsi	-1	1	p	0.71278
224.49579999999997	0.2	doit	26	verb	list	3	6	nomatch	ainsi	-1	1	p	0.71278
224.6957	0.0	+	26	verb	list	3	7	nomatch	ainsi	-1	1	p	0.71278
225.09569999999997	0.2	beau	26	verb	list	3	8	nomatch	ainsi	-1	1	p	0.71278
225.2957	0.0	+	26	verb	list	3	9	nomatch	ainsi	-1	1	p	0.71278
225.6957	0.2	chasser	26	verb	list	3	10	nomatch	ainsi	-1	1	p	0.71278
225.8956	0.0	+	26	verb	list	3	11	nomatch	ainsi	-1	1	p	0.71278
226.29559999999998	0.0	+	26	verb	list	3	12	nomatch	ainsi	-1	1	p	0.71278
228.2955	0.0	AINSI	26	verb	list	3	13	nomatch	ainsi	-1	1	p	0.71278
229.07869999999997	0.0	+	26	verb	list	3	14	nomatch	ainsi	-1	1	p	0.71278
229.0082	0.0	[response]	26	verb	list	3	15	nomatch	ainsi	-1	1	p	0.71278
230.69529999999997	0.0	+	27	noun	list	1	1	match	moins	5	1	y	0.43976
231.2452	0.2	nfqx	27	noun	list	1	2	match	moins	5	1	y	0.43976
231.4452	0.0	+	27	noun	list	1	3	match	moins	5	1	y	0.43976
231.84519999999998	0.2	kjs	27	noun	list	1	4	match	moins	5	1	y	0.43976
232.04519999999997	0.0	+	27	noun	list	1	5	match	moins	5	1	y	0.43976
232.44509999999997	0.2	hkq	27	noun	list	1	6	match	moins	5	1	y	0.43976
232.6451	0.0	+	27	noun	list	1	7	match	moins	5	1	y	0.43976
233.0451	0.2	qbsdwmn	27	noun	list	1	8	match	moins	5	1	y	0.43976
233.24509999999998	0.0	+	27	noun	list	1	9	match	moins	5	1	y	0.43976
233.64499999999998	0.2	moins	27	noun	list	1	10	match	moins	5	1	y	0.43976
233.84499999999997	0.0	+	27	noun	list	1	11	match	moins	5	1	y	0.43976
234.245	0.0	+	27	noun	list	1	12	match	moins	5	1	y	0.43976
236.2448	0.0	MOINS	27	noun	list	1	13	match	moins	5	1	y	0.43976
236.7448	0.0	+	27	noun	list	1	14	match	moins	5	1	y	0.43976
236.6846	0.0	[response]	27	noun	list	1	15	match	moins	5	1	y	0.43976
238.6447	0.0	+	28	verb	phrase	1	1	nomatch	patiner	-1	1	p	0.7009700000000001
239.19459999999998	0.2	hcdkn	28	verb	phrase	1	2	nomatch	patiner	-1	1	p	0.7009700000000001
239.39459999999997	0.0	+	28	verb	phrase	1	3	nomatch	patiner	-1	1	p	0.7009700000000001
239.7946	0.2	cnjt	28	verb	phrase	1	4	nomatch	patiner	-1	1	p	0.7009700000000001
239.9946	0.0	+	28	verb	phrase	1	5	nomatch	patiner	-1	1	p	0.7009700000000001
240.3945	0.2	lnfq	28	verb	phrase	1	6	nomatch	patiner	-1	1	p	0.7009700000000001
240.59449999999998	0.0	+	28	verb	phrase	1	7	nomatch	patiner	-1	1	p	0.7009700000000001
240.99450000000002	0.2	hrmj	28	verb	phrase	1	8	nomatch	patiner	-1	1	p	0.7009700000000001
241.1945	0.0	+	28	verb	phrase	1	9	nomatch	patiner	-1	1	p	0.7009700000000001
241.5944	0.2	galoper	28	verb	phrase	1	10	nomatch	patiner	-1	1	p	0.7009700000000001
241.7944	0.0	+	28	verb	phrase	1	11	nomatch	patiner	-1	1	p	0.7009700000000001
242.19439999999997	0.0	+	28	verb	phrase	1	12	nomatch	patiner	-1	1	p	0.7009700000000001
244.19419999999997	0.0	PATINER	28	verb	phrase	1	13	nomatch	patiner	-1	1	p	0.7009700000000001
244.9608	0.0	+	28	verb	phrase	1	14	nomatch	patiner	-1	1	p	0.7009700000000001
244.8952	0.0	[response]	28	verb	phrase	1	15	nomatch	patiner	-1	1	p	0.7009700000000001
254.59339999999997	0.0	+	29	noun	list	4	1	nomatch	plus	-1	1	p	0.62508
255.14339999999999	0.2	tqv	29	noun	list	4	2	nomatch	plus	-1	1	p	0.62508
255.34339999999997	0.0	+	29	noun	list	4	3	nomatch	plus	-1	1	p	0.62508
255.74329999999998	0.2	jean	29	noun	list	4	4	nomatch	plus	-1	1	p	0.62508
255.94329999999997	0.0	+	29	noun	list	4	5	nomatch	plus	-1	1	p	0.62508
256.3433	0.2	son	29	noun	list	4	6	nomatch	plus	-1	1	p	0.62508
256.5433	0.0	+	29	noun	list	4	7	nomatch	plus	-1	1	p	0.62508
256.94329999999997	0.2	moins	29	noun	list	4	8	nomatch	plus	-1	1	p	0.62508
257.1432	0.0	+	29	noun	list	4	9	nomatch	plus	-1	1	p	0.62508
257.5432	0.2	boîtier	29	noun	list	4	10	nomatch	plus	-1	1	p	0.62508
257.7432	0.0	+	29	noun	list	4	11	nomatch	plus	-1	1	p	0.62508
258.1432	0.0	+	29	noun	list	4	12	nomatch	plus	-1	1	p	0.62508
260.143	0.0	PLUS	29	noun	list	4	13	nomatch	plus	-1	1	p	0.62508
260.8263	0.0	+	29	noun	list	4	14	nomatch	plus	-1	1	p	0.62508
260.7681	0.0	[response]	29	noun	list	4	15	nomatch	plus	-1	1	p	0.62508
262.5428	0.0	+	30	verb	phrase	1	1	nomatch	clavier	-1	1	p	0.62618
263.0928	0.2	vrcg	30	verb	phrase	1	2	nomatch	clavier	-1	1	p	0.62618
263.2928	0.0	+	30	verb	phrase	1	3	nomatch	clavier	-1	1	p	0.62618
263.6927	0.2	xfct	30	verb	phrase	1	4	nomatch	clavier	-1	1	p	0.62618
263.8927	0.0	+	30	verb	phrase	1	5	nomatch	clavier	-1	1	p	0.62618
264.29269999999997	0.2	qgkm	30	verb	phrase	1	6	nomatch	clavier	-1	1	p	0.62618
264.4927	0.0	+	30	verb	phrase	1	7	nomatch	clavier	-1	1	p	0.62618
264.8926	0.2	phrwb	30	verb	phrase	1	8	nomatch	clavier	-1	1	p	0.62618
265.0927	0.0	+	30	verb	phrase	1	9	nomatch	clavier	-1	1	p	0.62618
265.4926	0.2	nager	30	verb	phrase	1	10	nomatch	clavier	-1	1	p	0.62618
265.69259999999997	0.0	+	30	verb	phrase	1	11	nomatch	clavier	-1	1	p	0.62618
266.0925	0.0	+	30	verb	phrase	1	12	nomatch	clavier	-1	1	p	0.62618
268.0924	0.0	CLAVIER	30	verb	phrase	1	13	nomatch	clavier	-1	1	p	0.62618
268.7757	0.0	+	30	verb	phrase	1	14	nomatch	clavier	-1	1	p	0.62618
268.7186	0.0	[response]	30	verb	phrase	1	15	nomatch	clavier	-1	1	p	0.62618
270.49219999999997	0.0	+	31	noun	phrase	1	1	match	blanc	5	1	y	0.50403
271.0422	0.2	whbpdt	31	noun	phrase	1	2	match	blanc	5	1	y	0.50403
271.24219999999997	0.0	+	31	noun	phrase	1	3	match	blanc	5	1	y	0.50403
271.64209999999997	0.2	lnfq	31	noun	phrase	1	4	match	blanc	5	1	y	0.50403
271.8421	0.0	+	31	noun	phrase	1	5	match	blanc	5	1	y	0.50403
272.2421	0.2	mwvt	31	noun	phrase	1	6	match	blanc	5	1	y	0.50403
272.4421	0.0	+	31	noun	phrase	1	7	match	blanc	5	1	y	0.50403
272.842	0.2	qbsdwmn	31	noun	phrase	1	8	match	blanc	5	1	y	0.50403
273.042	0.0	+	31	noun	phrase	1	9	match	blanc	5	1	y	0.50403
273.442	0.2	blanc	31	noun	phrase	1	10	match	blanc	5	1	y	0.50403
273.642	0.0	+	31	noun	phrase	1	11	match	blanc	5	1	y	0.50403
274.0419	0.0	+	31	noun	phrase	1	12	match	blanc	5	1	y	0.50403
276.04179999999997	0.0	BLANC	31	noun	phrase	1	13	match	blanc	5	1	y	0.50403
276.6084	0.0	+	31	noun	phrase	1	14	match	blanc	5	1	y	0.50403
276.5458	0.0	[response]	31	noun	phrase	1	15	match	blanc	5	1	y	0.50403
278.4416	0.0	+	32	noun	list	1	1	nomatch	pour	-1	1	p	0.93226
278.9916	0.2	gjf	32	noun	list	1	2	nomatch	pour	-1	1	p	0.93226
279.1915	0.0	+	32	noun	list	1	3	nomatch	pour	-1	1	p	0.93226
279.5915	0.2	ngcx	32	noun	list	1	4	nomatch	pour	-1	1	p	0.93226
279.7915	0.0	+	32	noun	list	1	5	nomatch	pour	-1	1	p	0.93226
280.1915	0.2	qgkm	32	noun	list	1	6	nomatch	pour	-1	1	p	0.93226
280.3915	0.0	+	32	noun	list	1	7	nomatch	pour	-1	1	p	0.93226
280.7914	0.2	nfg	32	noun	list	1	8	nomatch	pour	-1	1	p	0.93226
280.9914	0.0	+	32	noun	list	1	9	nomatch	pour	-1	1	p	0.93226
281.3914	0.2	clavier	32	noun	list	1	10	nomatch	pour	-1	1	p	0.93226
281.59139999999996	0.0	+	32	noun	list	1	11	nomatch	pour	-1	1	p	0.93226
281.99129999999997	0.0	+	32	noun	list	1	12	nomatch	pour	-1	1	p	0.93226
283.9912	0.0	POUR	32	noun	list	1	13	nomatch	pour	-1	1	p	0.93226
284.9911	0.0	+	32	noun	list	1	14	nomatch	pour	-1	1	p	0.93226
284.9234000000001	0.0	[response]	32	noun	list	1	15	nomatch	pour	-1	1	p	0.93226
286.391	0.0	+	33	verb	list	3	1	match	nouveau	4	1	y	0.59057
286.9409	0.2	snf	33	verb	list	3	2	match	nouveau	4	1	y	0.59057
287.1409	0.0	+	33	verb	list	3	3	match	nouveau	4	1	y	0.59057
287.54089999999997	0.2	chdk	33	verb	list	3	4	match	nouveau	4	1	y	0.59057
287.7409	0.0	+	33	verb	list	3	5	match	nouveau	4	1	y	0.59057
288.1409	0.2	va	33	verb	list	3	6	match	nouveau	4	1	y	0.59057
288.3408	0.0	+	33	verb	list	3	7	match	nouveau	4	1	y	0.59057
288.7408	0.2	nouveau	33	verb	list	3	8	match	nouveau	4	1	y	0.59057
288.94079999999997	0.0	+	33	verb	list	3	9	match	nouveau	4	1	y	0.59057
289.3408	0.2	galoper	33	verb	list	3	10	match	nouveau	4	1	y	0.59057
289.5407	0.0	+	33	verb	list	3	11	match	nouveau	4	1	y	0.59057
289.9407	0.0	+	33	verb	list	3	12	match	nouveau	4	1	y	0.59057
291.9406	0.0	NOUVEAU	33	verb	list	3	13	match	nouveau	4	1	y	0.59057
292.5905	0.0	+	33	verb	list	3	14	match	nouveau	4	1	y	0.59057
292.5311	0.0	[response]	33	verb	list	3	15	match	nouveau	4	1	y	0.59057
302.33979999999997	0.0	+	34	verb	phrase	2	1	nomatch	beaucoup	-1	1	p	0.67062
302.8897	0.2	wrnkqtg	34	verb	phrase	2	2	nomatch	beaucoup	-1	1	p	0.67062
303.0897	0.0	+	34	verb	phrase	2	3	nomatch	beaucoup	-1	1	p	0.67062
303.48969999999997	0.2	kjs	34	verb	phrase	2	4	nomatch	beaucoup	-1	1	p	0.67062
303.6897	0.0	+	34	verb	phrase	2	5	nomatch	beaucoup	-1	1	p	0.67062
304.0896	0.2	qgkm	34	verb	phrase	2	6	nomatch	beaucoup	-1	1	p	0.67062
304.2896	0.0	+	34	verb	phrase	2	7	nomatch	beaucoup	-1	1	p	0.67062
304.6896	0.2	danser	34	verb	phrase	2	8	nomatch	beaucoup	-1	1	p	0.67062
304.8896	0.0	+	34	verb	phrase	2	9	nomatch	beaucoup	-1	1	p	0.67062
305.2895	0.2	tôt	34	verb	phrase	2	10	nomatch	beaucoup	-1	1	p	0.67062
305.48949999999996	0.0	+	34	verb	phrase	2	11	nomatch	beaucoup	-1	1	p	0.67062
305.8895	0.0	+	34	verb	phrase	2	12	nomatch	beaucoup	-1	1	p	0.67062
307.8893	0.0	BEAUCOUP	34	verb	phrase	2	13	nomatch	beaucoup	-1	1	p	0.67062
308.6226	0.0	+	34	verb	phrase	2	14	nomatch	beaucoup	-1	1	p	0.67062
308.56	0.0	[response]	34	verb	phrase	2	15	nomatch	beaucoup	-1	1	p	0.67062
310.2891	0.0	+	35	noun	phrase	4	1	match	sablier	4	1	y	0.5407500000000001
310.8391	0.2	mxspv	35	noun	phrase	4	2	match	sablier	4	1	y	0.5407500000000001
311.0391	0.0	+	35	noun	phrase	4	3	match	sablier	4	1	y	0.5407500000000001
311.4391	0.2	vers	35	noun	phrase	4	4	match	sablier	4	1	y	0.5407500000000001
311.639	0.0	+	35	noun	phrase	4	5	match	sablier	4	1	y	0.5407500000000001
312.039	0.2	leur	35	noun	phrase	4	6	match	sablier	4	1	y	0.5407500000000001
312.239	0.0	+	35	noun	phrase	4	7	match	sablier	4	1	y	0.5407500000000001
312.639	0.2	sablier	35	noun	phrase	4	8	match	sablier	4	1	y	0.5407500000000001
312.839	0.0	+	35	noun	phrase	4	9	match	sablier	4	1	y	0.5407500000000001
313.2389	0.2	blanc	35	noun	phrase	4	10	match	sablier	4	1	y	0.5407500000000001
313.4389	0.0	+	35	noun	phrase	4	11	match	sablier	4	1	y	0.5407500000000001
313.83889999999997	0.0	+	35	noun	phrase	4	12	match	sablier	4	1	y	0.5407500000000001
315.8387	0.0	SABLIER	35	noun	phrase	4	13	match	sablier	4	1	y	0.5407500000000001
316.4387	0.0	+	35	noun	phrase	4	14	match	sablier	4	1	y	0.5407500000000001
316.3795	0.0	[response]	35	noun	phrase	4	15	match	sablier	4	1	y	0.5407500000000001
318.2385	0.0	+	36	verb	phrase	4	1	nomatch	peut	-1	1	p	0.61893
318.7885	0.2	plg	36	verb	phrase	4	2	nomatch	peut	-1	1	p	0.61893
318.9885	0.0	+	36	verb	phrase	4	3	nomatch	peut	-1	1	p	0.61893
319.38849999999996	0.2	jean	36	verb	phrase	4	4	nomatch	peut	-1	1	p	0.61893
319.5884	0.0	+	36	verb	phrase	4	5	nomatch	peut	-1	1	p	0.61893
319.9884	0.2	doit	36	verb	phrase	4	6	nomatch	peut	-1	1	p	0.61893
320.1884	0.0	+	36	verb	phrase	4	7	nomatch	peut	-1	1	p	0.61893
320.5884	0.2	danser	36	verb	phrase	4	8	nomatch	peut	-1	1	p	0.61893
320.7883	0.0	+	36	verb	phrase	4	9	nomatch	peut	-1	1	p	0.61893
321.18829999999997	0.2	tard	36	verb	phrase	4	10	nomatch	peut	-1	1	p	0.61893
321.3883	0.0	+	36	verb	phrase	4	11	nomatch	peut	-1	1	p	0.61893
321.7883	0.0	+	36	verb	phrase	4	12	nomatch	peut	-1	1	p	0.61893
323.7881	0.0	PEUT	36	verb	phrase	4	13	nomatch	peut	-1	1	p	0.61893
324.4714	0.0	+	36	verb	phrase	4	14	nomatch	peut	-1	1	p	0.61893
324.407	0.0	[response]	36	verb	phrase	4	15	nomatch	peut	-1	1	p	0.61893
326.1879	0.0	+	37	noun	list	4	1	match	clavier	5	1	y	1.0439
326.73789999999997	0.2	pgd	37	noun	list	4	2	match	clavier	5	1	y	1.0439
326.9379	0.0	+	37	noun	list	4	3	match	clavier	5	1	y	1.0439
327.3378	0.2	adam	37	noun	list	4	4	match	clavier	5	1	y	1.0439
327.5378	0.0	+	37	noun	list	4	5	match	clavier	5	1	y	1.0439
327.9378	0.2	leur	37	noun	list	4	6	match	clavier	5	1	y	1.0439
328.13779999999997	0.0	+	37	noun	list	4	7	match	clavier	5	1	y	1.0439
328.5377	0.2	trop	37	noun	list	4	8	match	clavier	5	1	y	1.0439
328.7377	0.0	+	37	noun	list	4	9	match	clavier	5	1	y	1.0439
329.1377	0.2	clavier	37	noun	list	4	10	match	clavier	5	1	y	1.0439
329.3377	0.0	+	37	noun	list	4	11	match	clavier	5	1	y	1.0439
329.7377	0.0	+	37	noun	list	4	12	match	clavier	5	1	y	1.0439
331.7375	0.0	CLAVIER	37	noun	list	4	13	match	clavier	5	1	y	1.0439
332.8374	0.0	+	37	noun	list	4	14	match	clavier	5	1	y	1.0439
332.7814	0.0	[response]	37	noun	list	4	15	match	clavier	5	1	y	1.0439
334.1373	0.0	+	38	verb	list	3	1	nomatch	voyager	-1	1	p	0.59614
334.6873	0.2	thzqnj	38	verb	list	3	2	nomatch	voyager	-1	1	p	0.59614
334.8873	0.0	+	38	verb	list	3	3	nomatch	voyager	-1	1	p	0.59614
335.2872	0.2	jkvt	38	verb	list	3	4	nomatch	voyager	-1	1	p	0.59614
335.4872	0.0	+	38	verb	list	3	5	nomatch	voyager	-1	1	p	0.59614
335.8872	0.2	son	38	verb	list	3	6	nomatch	voyager	-1	1	p	0.59614
336.0872	0.0	+	38	verb	list	3	7	nomatch	voyager	-1	1	p	0.59614
336.4871	0.2	chasser	38	verb	list	3	8	nomatch	voyager	-1	1	p	0.59614
336.6871	0.0	+	38	verb	list	3	9	nomatch	voyager	-1	1	p	0.59614
337.08709999999996	0.2	vert	38	verb	list	3	10	nomatch	voyager	-1	1	p	0.59614
337.2871	0.0	+	38	verb	list	3	11	nomatch	voyager	-1	1	p	0.59614
337.687	0.0	+	38	verb	list	3	12	nomatch	voyager	-1	1	p	0.59614
339.6869	0.0	VOYAGER	38	verb	list	3	13	nomatch	voyager	-1	1	p	0.59614
340.3535	0.0	+	38	verb	list	3	14	nomatch	voyager	-1	1	p	0.59614
340.283	0.0	[response]	38	verb	list	3	15	nomatch	voyager	-1	1	p	0.59614
342.0867	0.0	+	39	noun	list	1	1	match	vite	5	1	y	0.55575
342.6367	0.2	wcxq	39	noun	list	1	2	match	vite	5	1	y	0.55575
342.8366	0.0	+	39	noun	list	1	3	match	vite	5	1	y	0.55575
343.2366	0.2	xsh	39	noun	list	1	4	match	vite	5	1	y	0.55575
343.4366	0.0	+	39	noun	list	1	5	match	vite	5	1	y	0.55575
343.8366	0.2	qgkm	39	noun	list	1	6	match	vite	5	1	y	0.55575
344.03659999999996	0.0	+	39	noun	list	1	7	match	vite	5	1	y	0.55575
344.43649999999997	0.2	qbsdwmn	39	noun	list	1	8	match	vite	5	1	y	0.55575
344.6365	0.0	+	39	noun	list	1	9	match	vite	5	1	y	0.55575
345.0365	0.2	vite	39	noun	list	1	10	match	vite	5	1	y	0.55575
345.2365	0.0	+	39	noun	list	1	11	match	vite	5	1	y	0.55575
345.6364	0.0	+	39	noun	list	1	12	match	vite	5	1	y	0.55575
347.6363	0.0	VITE	39	noun	list	1	13	match	vite	5	1	y	0.55575
348.2529	0.0	+	39	noun	list	1	14	match	vite	5	1	y	0.55575
348.192	0.0	[response]	39	noun	list	1	15	match	vite	5	1	y	0.55575
350.0361	0.0	+	40	noun	phrase	3	1	nomatch	tard	-1	1	p	0.69307
350.586	0.2	mqxszw	40	noun	phrase	3	2	nomatch	tard	-1	1	p	0.69307
350.786	0.0	+	40	noun	phrase	3	3	nomatch	tard	-1	1	p	0.69307
351.186	0.2	chdk	40	noun	phrase	3	4	nomatch	tard	-1	1	p	0.69307
351.38599999999997	0.0	+	40	noun	phrase	3	5	nomatch	tard	-1	1	p	0.69307
351.786	0.2	mon	40	noun	phrase	3	6	nomatch	tard	-1	1	p	0.69307
351.9859	0.0	+	40	noun	phrase	3	7	nomatch	tard	-1	1	p	0.69307
352.3859	0.2	casier	40	noun	phrase	3	8	nomatch	tard	-1	1	p	0.69307
352.5859	0.0	+	40	noun	phrase	3	9	nomatch	tard	-1	1	p	0.69307
352.9859	0.2	bleu	40	noun	phrase	3	10	nomatch	tard	-1	1	p	0.69307
353.1858	0.0	+	40	noun	phrase	3	11	nomatch	tard	-1	1	p	0.69307
353.5858	0.0	+	40	noun	phrase	3	12	nomatch	tard	-1	1	p	0.69307
355.5857	0.0	TARD	40	noun	phrase	3	13	nomatch	tard	-1	1	p	0.69307
356.3356	0.0	+	40	noun	phrase	3	14	nomatch	tard	-1	1	p	0.69307
356.2787	0.0	[response]	40	noun	phrase	3	15	nomatch	tard	-1	1	p	0.69307
357.9855	0.0	+	41	noun	list	2	1	nomatch	rouler	-1	1	p	0.59432
358.5354	0.2	skdcjb	41	noun	list	2	2	nomatch	rouler	-1	1	p	0.59432
358.73539999999997	0.0	+	41	noun	list	2	3	nomatch	rouler	-1	1	p	0.59432
359.1354	0.2	ngcx	41	noun	list	2	4	nomatch	rouler	-1	1	p	0.59432
359.3354	0.0	+	41	noun	list	2	5	nomatch	rouler	-1	1	p	0.59432
359.7353	0.2	qgkm	41	noun	list	2	6	nomatch	rouler	-1	1	p	0.59432
359.9353	0.0	+	41	noun	list	2	7	nomatch	rouler	-1	1	p	0.59432
360.3353	0.2	grenier	41	noun	list	2	8	nomatch	rouler	-1	1	p	0.59432
360.5353	0.0	+	41	noun	list	2	9	nomatch	rouler	-1	1	p	0.59432
360.9353	0.2	loin	41	noun	list	2	10	nomatch	rouler	-1	1	p	0.59432
361.1352	0.0	+	41	noun	list	2	11	nomatch	rouler	-1	1	p	0.59432
361.5352	0.0	+	41	noun	list	2	12	nomatch	rouler	-1	1	p	0.59432
363.53499999999997	0.0	ROULER	41	noun	list	2	13	nomatch	rouler	-1	1	p	0.59432
364.185	0.0	+	41	noun	list	2	14	nomatch	rouler	-1	1	p	0.59432
364.1294	0.0	[response]	41	noun	list	2	15	nomatch	rouler	-1	1	p	0.59432
365.93489999999997	0.0	+	42	noun	phrase	4	1	match	petit	4	1	y	0.84717
366.4849	0.2	bmpkqhz	42	noun	phrase	4	2	match	petit	4	1	y	0.84717
366.6848	0.0	+	42	noun	phrase	4	3	match	petit	4	1	y	0.84717
367.0848	0.2	sous	42	noun	phrase	4	4	match	petit	4	1	y	0.84717
367.2848	0.0	+	42	noun	phrase	4	5	match	petit	4	1	y	0.84717
367.7026	0.2	leur	42	noun	phrase	4	6	match	petit	4	1	y	0.84717
367.90139999999997	0.0	+	42	noun	phrase	4	7	match	petit	4	1	y	0.84717
368.3014	0.2	petit	42	noun	phrase	4	8	match	petit	4	1	y	0.84717
368.5013	0.0	+	42	noun	phrase	4	9	match	petit	4	1	y	0.84717
368.9013	0.2	rocher	42	noun	phrase	4	10	match	petit	4	1	y	0.84717
369.1013	0.0	+	42	noun	phrase	4	11	match	petit	4	1	y	0.84717
369.5013	0.0	+	42	noun	phrase	4	12	match	petit	4	1	y	0.84717
371.5011	0.0	PETIT	42	noun	phrase	4	13	match	petit	4	1	y	0.84717
372.41769999999997	0.0	+	42	noun	phrase	4	14	match	petit	4	1	y	0.84717
372.3483	0.0	[response]	42	noun	phrase	4	15	match	petit	4	1	y	0.84717
373.9009	0.0	+	43	verb	phrase	1	1	nomatch	patiner	-1	1	p	0.55962
374.4509	0.2	twcrjhb	43	verb	phrase	1	2	nomatch	patiner	-1	1	p	0.55962
374.6509	0.0	+	43	verb	phrase	1	3	nomatch	patiner	-1	1	p	0.55962
375.0508	0.2	mrzd	43	verb	phrase	1	4	nomatch	patiner	-1	1	p	0.55962
375.25079999999997	0.0	+	43	verb	phrase	1	5	nomatch	patiner	-1	1	p	0.55962
375.6508	0.2	qgkm	43	verb	phrase	1	6	nomatch	patiner	-1	1	p	0.55962
375.8508	0.0	+	43	verb	phrase	1	7	nomatch	patiner	-1	1	p	0.55962
376.2507	0.2	qdgrc	43	verb	phrase	1	8	nomatch	patiner	-1	1	p	0.55962
376.4507	0.0	+	43	verb	phrase	1	9	nomatch	patiner	-1	1	p	0.55962
376.8507	0.2	danser	43	verb	phrase	1	10	nomatch	patiner	-1	1	p	0.55962
377.0507	0.0	+	43	verb	phrase	1	11	nomatch	patiner	-1	1	p	0.55962
377.4507	0.0	+	43	verb	phrase	1	12	nomatch	patiner	-1	1	p	0.55962
379.4505	0.0	PATINER	43	verb	phrase	1	13	nomatch	patiner	-1	1	p	0.55962
380.0671	0.0	+	43	verb	phrase	1	14	nomatch	patiner	-1	1	p	0.55962
380.0101	0.0	[response]	43	verb	phrase	1	15	nomatch	patiner	-1	1	p	0.55962
381.8503	0.0	+	44	noun	list	2	1	match	plus	4	1	y	0.58881
382.4003	0.2	sxckj	44	noun	list	2	2	match	plus	4	1	y	0.58881
382.6003	0.0	+	44	noun	list	2	3	match	plus	4	1	y	0.58881
383.0002	0.2	kjs	44	noun	list	2	4	match	plus	4	1	y	0.58881
383.2002	0.0	+	44	noun	list	2	5	match	plus	4	1	y	0.58881
383.6002	0.2	mwvt	44	noun	list	2	6	match	plus	4	1	y	0.58881
383.8002	0.0	+	44	noun	list	2	7	match	plus	4	1	y	0.58881
384.20009999999996	0.2	plus	44	noun	list	2	8	match	plus	4	1	y	0.58881
384.4001	0.0	+	44	noun	list	2	9	match	plus	4	1	y	0.58881
384.8001	0.2	clavier	44	noun	list	2	10	match	plus	4	1	y	0.58881
385.0001	0.0	+	44	noun	list	2	11	match	plus	4	1	y	0.58881
385.4	0.0	+	44	noun	list	2	12	match	plus	4	1	y	0.58881
387.3999	0.0	PLUS	44	noun	list	2	13	match	plus	4	1	y	0.58881
388.0498	0.0	+	44	noun	list	2	14	match	plus	4	1	y	0.58881
387.9887	0.0	[response]	44	noun	list	2	15	match	plus	4	1	y	0.58881
389.7997	0.0	+	45	noun	list	1	1	match	mieux	5	1	y	0.41085
390.3497	0.2	vgs	45	noun	list	1	2	match	mieux	5	1	y	0.41085
390.5496	0.0	+	45	noun	list	1	3	match	mieux	5	1	y	0.41085
390.9496	0.2	jkvt	45	noun	list	1	4	match	mieux	5	1	y	0.41085
391.14959999999996	0.0	+	45	noun	list	1	5	match	mieux	5	1	y	0.41085
391.5496	0.2	hkq	45	noun	list	1	6	match	mieux	5	1	y	0.41085
391.7495	0.0	+	45	noun	list	1	7	match	mieux	5	1	y	0.41085
392.1495	0.2	rtbdvcn	45	noun	list	1	8	match	mieux	5	1	y	0.41085
392.3495	0.0	+	45	noun	list	1	9	match	mieux	5	1	y	0.41085
392.7495	0.2	mieux	45	noun	list	1	10	match	mieux	5	1	y	0.41085
392.9495	0.0	+	45	noun	list	1	11	match	mieux	5	1	y	0.41085
393.3494	0.0	+	45	noun	list	1	12	match	mieux	5	1	y	0.41085
395.34929999999997	0.0	MIEUX	45	noun	list	1	13	match	mieux	5	1	y	0.41085
395.8159	0.0	+	45	noun	list	1	14	match	mieux	5	1	y	0.41085
395.7601	0.0	[response]	45	noun	list	1	15	match	mieux	5	1	y	0.41085
397.7491	0.0	+	46	verb	list	4	1	match	nouveau	4	1	y	0.48475
398.299	0.2	vwbxl	46	verb	list	4	2	match	nouveau	4	1	y	0.48475
398.49899999999997	0.0	+	46	verb	list	4	3	match	nouveau	4	1	y	0.48475
398.899	0.2	vers	46	verb	list	4	4	match	nouveau	4	1	y	0.48475
399.099	0.0	+	46	verb	list	4	5	match	nouveau	4	1	y	0.48475
399.49899999999997	0.2	doit	46	verb	list	4	6	match	nouveau	4	1	y	0.48475
399.6989	0.0	+	46	verb	list	4	7	match	nouveau	4	1	y	0.48475
400.0989	0.2	nouveau	46	verb	list	4	8	match	nouveau	4	1	y	0.48475
400.2989	0.0	+	46	verb	list	4	9	match	nouveau	4	1	y	0.48475
400.6989	0.2	plonger	46	verb	list	4	10	match	nouveau	4	1	y	0.48475
400.8988	0.0	+	46	verb	list	4	11	match	nouveau	4	1	y	0.48475
401.29879999999997	0.0	+	46	verb	list	4	12	match	nouveau	4	1	y	0.48475
403.2987	0.0	NOUVEAU	46	verb	list	4	13	match	nouveau	4	1	y	0.48475
403.8486	0.0	+	46	verb	list	4	14	match	nouveau	4	1	y	0.48475
403.7834	0.0	[response]	46	verb	list	4	15	match	nouveau	4	1	y	0.48475
405.69849999999997	0.0	+	47	noun	list	1	1	match	loin	5	1	y	0.56655
406.2484	0.2	nrtf	47	noun	list	1	2	match	loin	5	1	y	0.56655
406.4484	0.0	+	47	noun	list	1	3	match	loin	5	1	y	0.56655
406.84839999999997	0.2	xsh	47	noun	list	1	4	match	loin	5	1	y	0.56655
407.0484	0.0	+	47	noun	list	1	5	match	loin	5	1	y	0.56655
407.4483	0.2	qgkm	47	noun	list	1	6	match	loin	5	1	y	0.56655
407.6483	0.0	+	47	noun	list	1	7	match	loin	5	1	y	0.56655
408.0483	0.2	vfsdzlm	47	noun	list	1	8	match	loin	5	1	y	0.56655
408.2483	0.0	+	47	noun	list	1	9	match	loin	5	1	y	0.56655
408.6482	0.2	loin	47	noun	list	1	10	match	loin	5	1	y	0.56655
408.8482	0.0	+	47	noun	list	1	11	match	loin	5	1	y	0.56655
409.2482	0.0	+	47	noun	list	1	12	match	loin	5	1	y	0.56655
411.248	0.0	LOIN	47	noun	list	1	13	match	loin	5	1	y	0.56655
411.8813	0.0	+	47	noun	list	1	14	match	loin	5	1	y	0.56655
411.8146	0.0	[response]	47	noun	list	1	15	match	loin	5	1	y	0.56655
413.6479	0.0	+	48	verb	list	1	1	match	rouler	5	1	y	0.49731000000000003
414.1978	0.2	bdfrz	48	verb	list	1	2	match	rouler	5	1	y	0.49731000000000003
414.3978	0.0	+	48	verb	list	1	3	match	rouler	5	1	y	0.49731000000000003
414.7978	0.2	cnjt	48	verb	list	1	4	match	rouler	5	1	y	0.49731000000000003
414.9978	0.0	+	48	verb	list	1	5	match	rouler	5	1	y	0.49731000000000003
415.3977	0.2	psl	48	verb	list	1	6	match	rouler	5	1	y	0.49731000000000003
415.5977	0.0	+	48	verb	list	1	7	match	rouler	5	1	y	0.49731000000000003
415.9977	0.2	brjsw	48	verb	list	1	8	match	rouler	5	1	y	0.49731000000000003
416.1977	0.0	+	48	verb	list	1	9	match	rouler	5	1	y	0.49731000000000003
416.5976	0.2	rouler	48	verb	list	1	10	match	rouler	5	1	y	0.49731000000000003
416.7976	0.0	+	48	verb	list	1	11	match	rouler	5	1	y	0.49731000000000003
417.19759999999997	0.0	+	48	verb	list	1	12	match	rouler	5	1	y	0.49731000000000003
419.1974	0.0	ROULER	48	verb	list	1	13	match	rouler	5	1	y	0.49731000000000003
419.764	0.0	+	48	verb	list	1	14	match	rouler	5	1	y	0.49731000000000003
419.6947	0.0	[response]	48	verb	list	1	15	match	rouler	5	1	y	0.49731000000000003
421.5972	0.0	+	49	verb	phrase	3	1	nomatch	chasser	-1	1	p	0.72086
422.1472	0.2	pwkn	49	verb	phrase	3	2	nomatch	chasser	-1	1	p	0.72086
422.3472	0.0	+	49	verb	phrase	3	3	nomatch	chasser	-1	1	p	0.72086
422.74719999999996	0.2	frjv	49	verb	phrase	3	4	nomatch	chasser	-1	1	p	0.72086
422.9471	0.0	+	49	verb	phrase	3	5	nomatch	chasser	-1	1	p	0.72086
423.3471	0.2	doit	49	verb	phrase	3	6	nomatch	chasser	-1	1	p	0.72086
423.5471	0.0	+	49	verb	phrase	3	7	nomatch	chasser	-1	1	p	0.72086
423.9471	0.2	mieux	49	verb	phrase	3	8	nomatch	chasser	-1	1	p	0.72086
424.14709999999997	0.0	+	49	verb	phrase	3	9	nomatch	chasser	-1	1	p	0.72086
424.54699999999997	0.2	voyager	49	verb	phrase	3	10	nomatch	chasser	-1	1	p	0.72086
424.747	0.0	+	49	verb	phrase	3	11	nomatch	chasser	-1	1	p	0.72086
425.147	0.0	+	49	verb	phrase	3	12	nomatch	chasser	-1	1	p	0.72086
427.1468	0.0	CHASSER	49	verb	phrase	3	13	nomatch	chasser	-1	1	p	0.72086
427.9301	0.0	+	49	verb	phrase	3	14	nomatch	chasser	-1	1	p	0.72086
427.8677	0.0	[response]	49	verb	phrase	3	15	nomatch	chasser	-1	1	p	0.72086
437.546	0.0	+	50	verb	list	1	1	match	vert	5	1	y	0.47884
438.096	0.2	mrhlw	50	verb	list	1	2	match	vert	5	1	y	0.47884
438.296	0.0	+	50	verb	list	1	3	match	vert	5	1	y	0.47884
438.6959	0.2	xfct	50	verb	list	1	4	match	vert	5	1	y	0.47884
438.8959	0.0	+	50	verb	list	1	5	match	vert	5	1	y	0.47884
439.2959	0.2	mwvt	50	verb	list	1	6	match	vert	5	1	y	0.47884
439.4959	0.0	+	50	verb	list	1	7	match	vert	5	1	y	0.47884
439.8958	0.2	dshcq	50	verb	list	1	8	match	vert	5	1	y	0.47884
440.0958	0.0	+	50	verb	list	1	9	match	vert	5	1	y	0.47884
440.4958	0.2	vert	50	verb	list	1	10	match	vert	5	1	y	0.47884
440.6958	0.0	+	50	verb	list	1	11	match	vert	5	1	y	0.47884
441.0958	0.0	+	50	verb	list	1	12	match	vert	5	1	y	0.47884
443.0956	0.0	VERT	50	verb	list	1	13	match	vert	5	1	y	0.47884
443.6289	0.0	+	50	verb	list	1	14	match	vert	5	1	y	0.47884
443.57439999999997	0.0	[response]	50	verb	list	1	15	match	vert	5	1	y	0.47884
445.4954	0.0	+	51	verb	phrase	4	1	nomatch	tard	-1	1	p	0.69833
446.0454	0.2	sxnzjbc	51	verb	phrase	4	2	nomatch	tard	-1	1	p	0.69833
446.2454	0.0	+	51	verb	phrase	4	3	nomatch	tard	-1	1	p	0.69833
446.64529999999996	0.2	adam	51	verb	phrase	4	4	nomatch	tard	-1	1	p	0.69833
446.8453	0.0	+	51	verb	phrase	4	5	nomatch	tard	-1	1	p	0.69833
447.2453	0.2	peut	51	verb	phrase	4	6	nomatch	tard	-1	1	p	0.69833
447.4453	0.0	+	51	verb	phrase	4	7	nomatch	tard	-1	1	p	0.69833
447.8452	0.2	moins	51	verb	phrase	4	8	nomatch	tard	-1	1	p	0.69833
448.04519999999997	0.0	+	51	verb	phrase	4	9	nomatch	tard	-1	1	p	0.69833
448.4452	0.2	patiner	51	verb	phrase	4	10	nomatch	tard	-1	1	p	0.69833
448.6452	0.0	+	51	verb	phrase	4	11	nomatch	tard	-1	1	p	0.69833
449.0451	0.0	+	51	verb	phrase	4	12	nomatch	tard	-1	1	p	0.69833
451.045	0.0	TARD	51	verb	phrase	4	13	nomatch	tard	-1	1	p	0.69833
451.8116	0.0	+	51	verb	phrase	4	14	nomatch	tard	-1	1	p	0.69833
451.74330000000003	0.0	[response]	51	verb	phrase	4	15	nomatch	tard	-1	1	p	0.69833
453.4448	0.0	+	52	noun	list	2	1	match	tôt	5	1	y	0.62781
453.9948	0.2	vxpgtd	52	noun	list	2	2	match	tôt	5	1	y	0.62781
454.1947	0.0	+	52	noun	list	2	3	match	tôt	5	1	y	0.62781
454.5947	0.2	xsh	52	noun	list	2	4	match	tôt	5	1	y	0.62781
454.7947	0.0	+	52	noun	list	2	5	match	tôt	5	1	y	0.62781
455.1947	0.2	qgkm	52	noun	list	2	6	match	tôt	5	1	y	0.62781
455.39459999999997	0.0	+	52	noun	list	2	7	match	tôt	5	1	y	0.62781
455.7946	0.2	rocher	52	noun	list	2	8	match	tôt	5	1	y	0.62781
455.9946	0.0	+	52	noun	list	2	9	match	tôt	5	1	y	0.62781
456.39459999999997	0.2	tôt	52	noun	list	2	10	match	tôt	5	1	y	0.62781
456.5946	0.0	+	52	noun	list	2	11	match	tôt	5	1	y	0.62781
456.9945	0.0	+	52	noun	list	2	12	match	tôt	5	1	y	0.62781
458.9944	0.0	TÔT	52	noun	list	2	13	match	tôt	5	1	y	0.62781
459.67760000000004	0.0	+	52	noun	list	2	14	match	tôt	5	1	y	0.62781
459.62219999999996	0.0	[response]	52	noun	list	2	15	match	tôt	5	1	y	0.62781
461.3942	0.0	+	53	verb	list	4	1	nomatch	bleu	-1	1	p	0.6805400000000001
461.94419999999997	0.2	xrchtg	53	verb	list	4	2	nomatch	bleu	-1	1	p	0.6805400000000001
462.14410000000004	0.0	+	53	verb	list	4	3	nomatch	bleu	-1	1	p	0.6805400000000001
462.5441	0.2	jean	53	verb	list	4	4	nomatch	bleu	-1	1	p	0.6805400000000001
462.74409999999995	0.0	+	53	verb	list	4	5	nomatch	bleu	-1	1	p	0.6805400000000001
463.14410000000004	0.2	leur	53	verb	list	4	6	nomatch	bleu	-1	1	p	0.6805400000000001
463.344	0.0	+	53	verb	list	4	7	nomatch	bleu	-1	1	p	0.6805400000000001
463.74399999999997	0.2	patiner	53	verb	list	4	8	nomatch	bleu	-1	1	p	0.6805400000000001
463.944	0.0	+	53	verb	list	4	9	nomatch	bleu	-1	1	p	0.6805400000000001
464.344	0.2	blanc	53	verb	list	4	10	nomatch	bleu	-1	1	p	0.6805400000000001
464.54389999999995	0.0	+	53	verb	list	4	11	nomatch	bleu	-1	1	p	0.6805400000000001
464.94390000000004	0.0	+	53	verb	list	4	12	nomatch	bleu	-1	1	p	0.6805400000000001
466.94379999999995	0.0	BLEU	53	verb	list	4	13	nomatch	bleu	-1	1	p	0.6805400000000001
467.6937	0.0	+	53	verb	list	4	14	nomatch	bleu	-1	1	p	0.6805400000000001
467.6243	0.0	[response]	53	verb	list	4	15	nomatch	bleu	-1	1	p	0.6805400000000001
469.3436	0.0	+	54	noun	phrase	1	1	match	petit	5	1	y	0.7877
469.89349999999996	0.2	hrdj	54	noun	phrase	1	2	match	petit	5	1	y	0.7877
470.0935	0.0	+	54	noun	phrase	1	3	match	petit	5	1	y	0.7877
470.4935	0.2	dtnl	54	noun	phrase	1	4	match	petit	5	1	y	0.7877
470.69350000000003	0.0	+	54	noun	phrase	1	5	match	petit	5	1	y	0.7877
471.09340000000003	0.2	hkq	54	noun	phrase	1	6	match	petit	5	1	y	0.7877
471.29339999999996	0.0	+	54	noun	phrase	1	7	match	petit	5	1	y	0.7877
471.69339999999994	0.2	qdpbcrgw	54	noun	phrase	1	8	match	petit	5	1	y	0.7877
471.8934	0.0	+	54	noun	phrase	1	9	match	petit	5	1	y	0.7877
472.29339999999996	0.2	petit	54	noun	phrase	1	10	match	petit	5	1	y	0.7877
472.49330000000003	0.0	+	54	noun	phrase	1	11	match	petit	5	1	y	0.7877
472.8933	0.0	+	54	noun	phrase	1	12	match	petit	5	1	y	0.7877
474.89309999999995	0.0	PETIT	54	noun	phrase	1	13	match	petit	5	1	y	0.7877
475.74309999999997	0.0	+	54	noun	phrase	1	14	match	petit	5	1	y	0.7877
475.6809	0.0	[response]	54	noun	phrase	1	15	match	petit	5	1	y	0.7877
477.29299999999995	0.0	+	55	verb	phrase	3	1	nomatch	chasser	-1	1	p	0.54731
477.84290000000004	0.2	tpd	55	verb	phrase	3	2	nomatch	chasser	-1	1	p	0.54731
478.0429	0.0	+	55	verb	phrase	3	3	nomatch	chasser	-1	1	p	0.54731
478.44289999999995	0.2	xfct	55	verb	phrase	3	4	nomatch	chasser	-1	1	p	0.54731
478.6429	0.0	+	55	verb	phrase	3	5	nomatch	chasser	-1	1	p	0.54731
479.0428	0.2	va	55	verb	phrase	3	6	nomatch	chasser	-1	1	p	0.54731
479.24280000000005	0.0	+	55	verb	phrase	3	7	nomatch	chasser	-1	1	p	0.54731
479.6428	0.2	rouler	55	verb	phrase	3	8	nomatch	chasser	-1	1	p	0.54731
479.84279999999995	0.0	+	55	verb	phrase	3	9	nomatch	chasser	-1	1	p	0.54731
480.24269999999996	0.2	ainsi	55	verb	phrase	3	10	nomatch	chasser	-1	1	p	0.54731
480.4427	0.0	+	55	verb	phrase	3	11	nomatch	chasser	-1	1	p	0.54731
480.8427	0.0	+	55	verb	phrase	3	12	nomatch	chasser	-1	1	p	0.54731
482.84250000000003	0.0	CHASSER	55	verb	phrase	3	13	nomatch	chasser	-1	1	p	0.54731
483.4591	0.0	+	55	verb	phrase	3	14	nomatch	chasser	-1	1	p	0.54731
483.3898	0.0	[response]	55	verb	phrase	3	15	nomatch	chasser	-1	1	p	0.54731
485.24229999999994	0.0	+	56	noun	list	4	1	match	vers	2	1	y	0.7400700000000001
485.7923	0.2	rqdhgk	56	noun	list	4	2	match	vers	2	1	y	0.7400700000000001
485.99229999999994	0.0	+	56	noun	list	4	3	match	vers	2	1	y	0.7400700000000001
486.39230000000003	0.2	vers	56	noun	list	4	4	match	vers	2	1	y	0.7400700000000001
486.5922	0.0	+	56	noun	list	4	5	match	vers	2	1	y	0.7400700000000001
486.99219999999997	0.2	doit	56	noun	list	4	6	match	vers	2	1	y	0.7400700000000001
487.1922	0.0	+	56	noun	list	4	7	match	vers	2	1	y	0.7400700000000001
487.5922	0.2	tablier	56	noun	list	4	8	match	vers	2	1	y	0.7400700000000001
487.79220000000004	0.0	+	56	noun	list	4	9	match	vers	2	1	y	0.7400700000000001
488.19210000000004	0.2	vite	56	noun	list	4	10	match	vers	2	1	y	0.7400700000000001
488.39209999999997	0.0	+	56	noun	list	4	11	match	vers	2	1	y	0.7400700000000001
488.79209999999995	0.0	+	56	noun	list	4	12	match	vers	2	1	y	0.7400700000000001
490.7919	0.0	VERS	56	noun	list	4	13	match	vers	2	1	y	0.7400700000000001
491.59189999999995	0.0	+	56	noun	list	4	14	match	vers	2	1	y	0.7400700000000001
491.532	0.0	[response]	56	noun	list	4	15	match	vers	2	1	y	0.7400700000000001
493.1917	0.0	+	57	verb	list	4	1	nomatch	nouveau	-1	1	p	0.73086
493.7417	0.2	jfcmbn	57	verb	list	4	2	nomatch	nouveau	-1	1	p	0.73086
493.9417	0.0	+	57	verb	list	4	3	nomatch	nouveau	-1	1	p	0.73086
494.3417	0.2	adam	57	verb	list	4	4	nomatch	nouveau	-1	1	p	0.73086
494.54159999999996	0.0	+	57	verb	list	4	5	nomatch	nouveau	-1	1	p	0.73086
494.94159999999994	0.2	mon	57	verb	list	4	6	nomatch	nouveau	-1	1	p	0.73086
495.1416	0.0	+	57	verb	list	4	7	nomatch	nouveau	-1	1	p	0.73086
495.54159999999996	0.2	rouler	57	verb	list	4	8	nomatch	nouveau	-1	1	p	0.73086
495.74150000000003	0.0	+	57	verb	list	4	9	nomatch	nouveau	-1	1	p	0.73086
496.1415	0.2	vert	57	verb	list	4	10	nomatch	nouveau	-1	1	p	0.73086
496.34149999999994	0.0	+	57	verb	list	4	11	nomatch	nouveau	-1	1	p	0.73086
496.74150000000003	0.0	+	57	verb	list	4	12	nomatch	nouveau	-1	1	p	0.73086
498.74129999999997	0.0	NOUVEAU	57	verb	list	4	13	nomatch	nouveau	-1	1	p	0.73086
499.54119999999995	0.0	+	57	verb	list	4	14	nomatch	nouveau	-1	1	p	0.73086
499.4722	0.0	[response]	57	verb	list	4	15	nomatch	nouveau	-1	1	p	0.73086
501.1411	0.0	+	58	verb	list	1	1	nomatch	vieux	-1	1	p	0.60026
501.69109999999995	0.2	qdbctgx	58	verb	list	1	2	nomatch	vieux	-1	1	p	0.60026
501.8911	0.0	+	58	verb	list	1	3	nomatch	vieux	-1	1	p	0.60026
502.291	0.2	chdk	58	verb	list	1	4	nomatch	vieux	-1	1	p	0.60026
502.49100000000004	0.0	+	58	verb	list	1	5	nomatch	vieux	-1	1	p	0.60026
502.891	0.2	lnfq	58	verb	list	1	6	nomatch	vieux	-1	1	p	0.60026
503.09099999999995	0.0	+	58	verb	list	1	7	nomatch	vieux	-1	1	p	0.60026
503.49089999999995	0.2	qlgnfmr	58	verb	list	1	8	nomatch	vieux	-1	1	p	0.60026
503.6909	0.0	+	58	verb	list	1	9	nomatch	vieux	-1	1	p	0.60026
504.0909	0.2	grand	58	verb	list	1	10	nomatch	vieux	-1	1	p	0.60026
504.2909	0.0	+	58	verb	list	1	11	nomatch	vieux	-1	1	p	0.60026
504.6909	0.0	+	58	verb	list	1	12	nomatch	vieux	-1	1	p	0.60026
506.69069999999994	0.0	VIEUX	58	verb	list	1	13	nomatch	vieux	-1	1	p	0.60026
507.35729999999995	0.0	+	58	verb	list	1	14	nomatch	vieux	-1	1	p	0.60026
507.291	0.0	[response]	58	verb	list	1	15	nomatch	vieux	-1	1	p	0.60026
509.09049999999996	0.0	+	59	noun	list	1	1	match	tôt	5	1	y	0.45323
509.64050000000003	0.2	kwf	59	noun	list	1	2	match	tôt	5	1	y	0.45323
509.84049999999996	0.0	+	59	noun	list	1	3	match	tôt	5	1	y	0.45323
510.24039999999997	0.2	dtnl	59	noun	list	1	4	match	tôt	5	1	y	0.45323
510.4404	0.0	+	59	noun	list	1	5	match	tôt	5	1	y	0.45323
510.8404	0.2	qgkm	59	noun	list	1	6	match	tôt	5	1	y	0.45323
511.04040000000003	0.0	+	59	noun	list	1	7	match	tôt	5	1	y	0.45323
511.44030000000004	0.2	rtbdvcn	59	noun	list	1	8	match	tôt	5	1	y	0.45323
511.64029999999997	0.0	+	59	noun	list	1	9	match	tôt	5	1	y	0.45323
512.0403	0.2	tôt	59	noun	list	1	10	match	tôt	5	1	y	0.45323
512.2403	0.0	+	59	noun	list	1	11	match	tôt	5	1	y	0.45323
512.6402	0.0	+	59	noun	list	1	12	match	tôt	5	1	y	0.45323
514.6401000000001	0.0	TÔT	59	noun	list	1	13	match	tôt	5	1	y	0.45323
515.1567	0.0	+	59	noun	list	1	14	match	tôt	5	1	y	0.45323
515.0933	0.0	[response]	59	noun	list	1	15	match	tôt	5	1	y	0.45323
517.0399000000001	0.0	+	60	verb	phrase	1	1	nomatch	patiner	-1	1	p	0.45799
517.5899000000001	0.2	stkp	60	verb	phrase	1	2	nomatch	patiner	-1	1	p	0.45799
517.7898	0.0	+	60	verb	phrase	1	3	nomatch	patiner	-1	1	p	0.45799
518.1898000000001	0.2	xfct	60	verb	phrase	1	4	nomatch	patiner	-1	1	p	0.45799
518.3898	0.0	+	60	verb	phrase	1	5	nomatch	patiner	-1	1	p	0.45799
518.7898	0.2	lnfq	60	verb	phrase	1	6	nomatch	patiner	-1	1	p	0.45799
518.9898000000001	0.0	+	60	verb	phrase	1	7	nomatch	patiner	-1	1	p	0.45799
519.3897000000001	0.2	sbxh	60	verb	phrase	1	8	nomatch	patiner	-1	1	p	0.45799
519.5897	0.0	+	60	verb	phrase	1	9	nomatch	patiner	-1	1	p	0.45799
519.9897000000001	0.2	voyager	60	verb	phrase	1	10	nomatch	patiner	-1	1	p	0.45799
520.1897	0.0	+	60	verb	phrase	1	11	nomatch	patiner	-1	1	p	0.45799
520.5896	0.0	+	60	verb	phrase	1	12	nomatch	patiner	-1	1	p	0.45799
522.5895	0.0	PATINER	60	verb	phrase	1	13	nomatch	patiner	-1	1	p	0.45799
523.1061000000001	0.0	+	60	verb	phrase	1	14	nomatch	patiner	-1	1	p	0.45799
523.0475	0.0	[response]	60	verb	phrase	1	15	nomatch	patiner	-1	1	p	0.45799
524.9893000000001	0.0	+	61	noun	phrase	2	1	match	grand	4	1	y	0.78358
525.5392	0.2	zvlxk	61	noun	phrase	2	2	match	grand	4	1	y	0.78358
525.7392000000001	0.0	+	61	noun	phrase	2	3	match	grand	4	1	y	0.78358
526.1392000000001	0.2	fjcz	61	noun	phrase	2	4	match	grand	4	1	y	0.78358
526.3392	0.0	+	61	noun	phrase	2	5	match	grand	4	1	y	0.78358
526.7392000000001	0.2	psl	61	noun	phrase	2	6	match	grand	4	1	y	0.78358
526.9391	0.0	+	61	noun	phrase	2	7	match	grand	4	1	y	0.78358
527.3391	0.2	grand	61	noun	phrase	2	8	match	grand	4	1	y	0.78358
527.5391000000001	0.0	+	61	noun	phrase	2	9	match	grand	4	1	y	0.78358
527.9391	0.2	sablier	61	noun	phrase	2	10	match	grand	4	1	y	0.78358
528.139	0.0	+	61	noun	phrase	2	11	match	grand	4	1	y	0.78358
528.5390000000001	0.0	+	61	noun	phrase	2	12	match	grand	4	1	y	0.78358
530.5389	0.0	GRAND	61	noun	phrase	2	13	match	grand	4	1	y	0.78358
531.3888000000001	0.0	+	61	noun	phrase	2	14	match	grand	4	1	y	0.78358
531.3224	0.0	[response]	61	noun	phrase	2	15	match	grand	4	1	y	0.78358
540.9381000000001	0.0	+	62	noun	list	2	1	match	casier	5	1	y	0.6177100000000001
541.4885	0.2	khcl	62	noun	list	2	2	match	casier	5	1	y	0.6177100000000001
541.6880000000001	0.0	+	62	noun	list	2	3	match	casier	5	1	y	0.6177100000000001
542.0880000000001	0.2	kjs	62	noun	list	2	4	match	casier	5	1	y	0.6177100000000001
542.288	0.0	+	62	noun	list	2	5	match	casier	5	1	y	0.6177100000000001
542.6879	0.2	mwvt	62	noun	list	2	6	match	casier	5	1	y	0.6177100000000001
542.8879000000001	0.0	+	62	noun	list	2	7	match	casier	5	1	y	0.6177100000000001
543.2879	0.2	mieux	62	noun	list	2	8	match	casier	5	1	y	0.6177100000000001
543.4879000000001	0.0	+	62	noun	list	2	9	match	casier	5	1	y	0.6177100000000001
543.8878000000001	0.2	casier	62	noun	list	2	10	match	casier	5	1	y	0.6177100000000001
544.0878	0.0	+	62	noun	list	2	11	match	casier	5	1	y	0.6177100000000001
544.4879000000001	0.0	+	62	noun	list	2	12	match	casier	5	1	y	0.6177100000000001
546.4876	0.0	CASIER	62	noun	list	2	13	match	casier	5	1	y	0.6177100000000001
547.1709000000001	0.0	+	62	noun	list	2	14	match	casier	5	1	y	0.6177100000000001
547.1053	0.0	[response]	62	noun	list	2	15	match	casier	5	1	y	0.6177100000000001
548.8874000000001	0.0	+	63	verb	phrase	1	1	match	nager	5	1	y	0.49202000000000007
549.4374	0.2	fgzljd	63	verb	phrase	1	2	match	nager	5	1	y	0.49202000000000007
549.6374000000001	0.0	+	63	verb	phrase	1	3	match	nager	5	1	y	0.49202000000000007
550.0374	0.2	jkvt	63	verb	phrase	1	4	match	nager	5	1	y	0.49202000000000007
550.2373	0.0	+	63	verb	phrase	1	5	match	nager	5	1	y	0.49202000000000007
550.6373000000001	0.2	ms	63	verb	phrase	1	6	match	nager	5	1	y	0.49202000000000007
550.8373	0.0	+	63	verb	phrase	1	7	match	nager	5	1	y	0.49202000000000007
551.2373	0.2	zlbh	63	verb	phrase	1	8	match	nager	5	1	y	0.49202000000000007
551.4373	0.0	+	63	verb	phrase	1	9	match	nager	5	1	y	0.49202000000000007
551.8372	0.2	nager	63	verb	phrase	1	10	match	nager	5	1	y	0.49202000000000007
552.0372000000001	0.0	+	63	verb	phrase	1	11	match	nager	5	1	y	0.49202000000000007
552.4372000000001	0.0	+	63	verb	phrase	1	12	match	nager	5	1	y	0.49202000000000007
554.437	0.0	NAGER	63	verb	phrase	1	13	match	nager	5	1	y	0.49202000000000007
554.9870000000001	0.0	+	63	verb	phrase	1	14	match	nager	5	1	y	0.49202000000000007
554.9290000000001	0.0	[response]	63	verb	phrase	1	15	match	nager	5	1	y	0.49202000000000007
556.8368	0.0	+	64	noun	phrase	1	1	match	casier	5	1	y	0.39599
557.3868	0.2	bwxgf	64	noun	phrase	1	2	match	casier	5	1	y	0.39599
557.5868	0.0	+	64	noun	phrase	1	3	match	casier	5	1	y	0.39599
557.9867	0.2	fjcz	64	noun	phrase	1	4	match	casier	5	1	y	0.39599
558.1867000000001	0.0	+	64	noun	phrase	1	5	match	casier	5	1	y	0.39599
558.5867000000001	0.2	hkq	64	noun	phrase	1	6	match	casier	5	1	y	0.39599
558.7867	0.0	+	64	noun	phrase	1	7	match	casier	5	1	y	0.39599
559.1867000000001	0.2	ftqx	64	noun	phrase	1	8	match	casier	5	1	y	0.39599
559.3866	0.0	+	64	noun	phrase	1	9	match	casier	5	1	y	0.39599
559.7866	0.2	casier	64	noun	phrase	1	10	match	casier	5	1	y	0.39599
559.9866000000001	0.0	+	64	noun	phrase	1	11	match	casier	5	1	y	0.39599
560.3866	0.0	+	64	noun	phrase	1	12	match	casier	5	1	y	0.39599
562.3864000000001	0.0	CASIER	64	noun	phrase	1	13	match	casier	5	1	y	0.39599
562.8530000000001	0.0	+	64	noun	phrase	1	14	match	casier	5	1	y	0.39599
562.7824	0.0	[response]	64	noun	phrase	1	15	match	casier	5	1	y	0.39599
564.7862	0.0	+	65	verb	list	1	1	nomatch	beau	-1	1	p	0.67182
565.3362000000001	0.2	sjmprxn	65	verb	list	1	2	nomatch	beau	-1	1	p	0.67182
565.5362	0.0	+	65	verb	list	1	3	nomatch	beau	-1	1	p	0.67182
565.9361	0.2	chdk	65	verb	list	1	4	nomatch	beau	-1	1	p	0.67182
566.1361	0.0	+	65	verb	list	1	5	nomatch	beau	-1	1	p	0.67182
566.5361	0.2	lnfq	65	verb	list	1	6	nomatch	beau	-1	1	p	0.67182
566.7361000000001	0.0	+	65	verb	list	1	7	nomatch	beau	-1	1	p	0.67182
567.1360000000001	0.2	kbmnvdp	65	verb	list	1	8	nomatch	beau	-1	1	p	0.67182
567.336	0.0	+	65	verb	list	1	9	nomatch	beau	-1	1	p	0.67182
567.7360000000001	0.2	petit	65	verb	list	1	10	nomatch	beau	-1	1	p	0.67182
567.936	0.0	+	65	verb	list	1	11	nomatch	beau	-1	1	p	0.67182
568.336	0.0	+	65	verb	list	1	12	nomatch	beau	-1	1	p	0.67182
570.3393000000001	0.0	BEAU	65	verb	list	1	13	nomatch	beau	-1	1	p	0.67182
571.0691	0.0	+	65	verb	list	1	14	nomatch	beau	-1	1	p	0.67182
571.0111	0.0	[response]	65	verb	list	1	15	nomatch	beau	-1	1	p	0.67182
588.7510000000001	0.0	+	66	verb	list	1	1	match	voyager	5	1	y	0.52048
589.301	0.2	fns	66	verb	list	1	2	match	voyager	5	1	y	0.52048
589.5010000000001	0.0	+	66	verb	list	1	3	match	voyager	5	1	y	0.52048
589.9010000000001	0.2	kvlx	66	verb	list	1	4	match	voyager	5	1	y	0.52048
590.101	0.0	+	66	verb	list	1	5	match	voyager	5	1	y	0.52048
590.5009	0.2	psl	66	verb	list	1	6	match	voyager	5	1	y	0.52048
590.7009	0.0	+	66	verb	list	1	7	match	voyager	5	1	y	0.52048
591.1009	0.2	mjzbs	66	verb	list	1	8	match	voyager	5	1	y	0.52048
591.3009000000001	0.0	+	66	verb	list	1	9	match	voyager	5	1	y	0.52048
591.702	0.2	voyager	66	verb	list	1	10	match	voyager	5	1	y	0.52048
591.9008	0.0	+	66	verb	list	1	11	match	voyager	5	1	y	0.52048
592.3008000000001	0.0	+	66	verb	list	1	12	match	voyager	5	1	y	0.52048
594.3006	0.0	VOYAGER	66	verb	list	1	13	match	voyager	5	1	y	0.52048
594.8839	0.0	+	66	verb	list	1	14	match	voyager	5	1	y	0.52048
594.8211000000001	0.0	[response]	66	verb	list	1	15	match	voyager	5	1	y	0.52048
596.7004000000001	0.0	+	67	verb	phrase	1	1	nomatch	peut	-1	1	p	0.50714
597.2504	0.2	xcfd	67	verb	phrase	1	2	nomatch	peut	-1	1	p	0.50714
597.4504000000001	0.0	+	67	verb	phrase	1	3	nomatch	peut	-1	1	p	0.50714
597.8503000000001	0.2	cnjt	67	verb	phrase	1	4	nomatch	peut	-1	1	p	0.50714
598.0503	0.0	+	67	verb	phrase	1	5	nomatch	peut	-1	1	p	0.50714
598.4503000000001	0.2	qgkm	67	verb	phrase	1	6	nomatch	peut	-1	1	p	0.50714
598.6503	0.0	+	67	verb	phrase	1	7	nomatch	peut	-1	1	p	0.50714
599.0503	0.2	dshcq	67	verb	phrase	1	8	nomatch	peut	-1	1	p	0.50714
599.2502000000001	0.0	+	67	verb	phrase	1	9	nomatch	peut	-1	1	p	0.50714
599.6502	0.2	moins	67	verb	phrase	1	10	nomatch	peut	-1	1	p	0.50714
599.8502000000001	0.0	+	67	verb	phrase	1	11	nomatch	peut	-1	1	p	0.50714
600.2502000000001	0.0	+	67	verb	phrase	1	12	nomatch	peut	-1	1	p	0.50714
602.25	0.0	PEUT	67	verb	phrase	1	13	nomatch	peut	-1	1	p	0.50714
602.8166	0.0	+	67	verb	phrase	1	14	nomatch	peut	-1	1	p	0.50714
602.7571	0.0	[response]	67	verb	phrase	1	15	nomatch	peut	-1	1	p	0.50714
604.6498	0.0	+	68	noun	list	3	1	nomatch	vers	-1	1	p	0.61675
605.1998000000001	0.2	lpxvd	68	noun	list	3	2	nomatch	vers	-1	1	p	0.61675
605.3998	0.0	+	68	noun	list	3	3	nomatch	vers	-1	1	p	0.61675
605.7997	0.2	kjs	68	noun	list	3	4	nomatch	vers	-1	1	p	0.61675
605.9997000000001	0.0	+	68	noun	list	3	5	nomatch	vers	-1	1	p	0.61675
606.3997	0.2	son	68	noun	list	3	6	nomatch	vers	-1	1	p	0.61675
606.5997000000001	0.0	+	68	noun	list	3	7	nomatch	vers	-1	1	p	0.61675
606.9996000000001	0.2	plus	68	noun	list	3	8	nomatch	vers	-1	1	p	0.61675
607.1996	0.0	+	68	noun	list	3	9	nomatch	vers	-1	1	p	0.61675
607.5996	0.2	sablier	68	noun	list	3	10	nomatch	vers	-1	1	p	0.61675
607.7996	0.0	+	68	noun	list	3	11	nomatch	vers	-1	1	p	0.61675
608.1995000000001	0.0	+	68	noun	list	3	12	nomatch	vers	-1	1	p	0.61675
610.1994000000001	0.0	VERS	68	noun	list	3	13	nomatch	vers	-1	1	p	0.61675
610.8827	0.0	+	68	noun	list	3	14	nomatch	vers	-1	1	p	0.61675
610.8161	0.0	[response]	68	noun	list	3	15	nomatch	vers	-1	1	p	0.61675
620.5986	0.0	+	69	verb	phrase	2	1	match	rouler	5	1	y	0.6227400000000001
621.1486000000001	0.2	qdlhbm	69	verb	phrase	2	2	match	rouler	5	1	y	0.6227400000000001
621.3485000000001	0.0	+	69	verb	phrase	2	3	match	rouler	5	1	y	0.6227400000000001
621.7485	0.2	xfct	69	verb	phrase	2	4	match	rouler	5	1	y	0.6227400000000001
621.9485000000001	0.0	+	69	verb	phrase	2	5	match	rouler	5	1	y	0.6227400000000001
622.3485000000001	0.2	qgkm	69	verb	phrase	2	6	match	rouler	5	1	y	0.6227400000000001
622.5484	0.0	+	69	verb	phrase	2	7	match	rouler	5	1	y	0.6227400000000001
622.9484	0.2	mieux	69	verb	phrase	2	8	match	rouler	5	1	y	0.6227400000000001
623.1484	0.0	+	69	verb	phrase	2	9	match	rouler	5	1	y	0.6227400000000001
623.5484	0.2	rouler	69	verb	phrase	2	10	match	rouler	5	1	y	0.6227400000000001
623.7484000000001	0.0	+	69	verb	phrase	2	11	match	rouler	5	1	y	0.6227400000000001
624.1483000000001	0.0	+	69	verb	phrase	2	12	match	rouler	5	1	y	0.6227400000000001
626.1482000000001	0.0	ROULER	69	verb	phrase	2	13	match	rouler	5	1	y	0.6227400000000001
626.8314	0.0	+	69	verb	phrase	2	14	match	rouler	5	1	y	0.6227400000000001
626.7709000000001	0.0	[response]	69	verb	phrase	2	15	match	rouler	5	1	y	0.6227400000000001
628.548	0.0	+	70	verb	list	1	1	match	rouge	5	1	y	0.44369000000000003
629.0979000000001	0.2	bncwjpk	70	verb	list	1	2	match	rouge	5	1	y	0.44369000000000003
629.2979	0.0	+	70	verb	list	1	3	match	rouge	5	1	y	0.44369000000000003
629.6979	0.2	cnjt	70	verb	list	1	4	match	rouge	5	1	y	0.44369000000000003
629.8979	0.0	+	70	verb	list	1	5	match	rouge	5	1	y	0.44369000000000003
630.2979	0.2	mwvt	70	verb	list	1	6	match	rouge	5	1	y	0.44369000000000003
630.4978000000001	0.0	+	70	verb	list	1	7	match	rouge	5	1	y	0.44369000000000003
630.8978000000001	0.2	qlgnfmr	70	verb	list	1	8	match	rouge	5	1	y	0.44369000000000003
631.0978	0.0	+	70	verb	list	1	9	match	rouge	5	1	y	0.44369000000000003
631.4978000000001	0.2	rouge	70	verb	list	1	10	match	rouge	5	1	y	0.44369000000000003
631.6977	0.0	+	70	verb	list	1	11	match	rouge	5	1	y	0.44369000000000003
632.0979000000001	0.0	+	70	verb	list	1	12	match	rouge	5	1	y	0.44369000000000003
634.0976	0.0	ROUGE	70	verb	list	1	13	match	rouge	5	1	y	0.44369000000000003
634.5975000000001	0.0	+	70	verb	list	1	14	match	rouge	5	1	y	0.44369000000000003
634.5412	0.0	[response]	70	verb	list	1	15	match	rouge	5	1	y	0.44369000000000003
636.4974000000001	0.0	+	71	noun	phrase	2	1	match	noir	5	1	y	0.56774
637.0473000000001	0.2	hbl	71	noun	phrase	2	2	match	noir	5	1	y	0.56774
637.2473	0.0	+	71	noun	phrase	2	3	match	noir	5	1	y	0.56774
637.6473000000001	0.2	lnfq	71	noun	phrase	2	4	match	noir	5	1	y	0.56774
637.8473	0.0	+	71	noun	phrase	2	5	match	noir	5	1	y	0.56774
638.2472	0.2	psl	71	noun	phrase	2	6	match	noir	5	1	y	0.56774
638.4472000000001	0.0	+	71	noun	phrase	2	7	match	noir	5	1	y	0.56774
638.8472	0.2	clavier	71	noun	phrase	2	8	match	noir	5	1	y	0.56774
639.0472000000001	0.0	+	71	noun	phrase	2	9	match	noir	5	1	y	0.56774
639.4471000000001	0.2	noir	71	noun	phrase	2	10	match	noir	5	1	y	0.56774
639.6471	0.0	+	71	noun	phrase	2	11	match	noir	5	1	y	0.56774
640.0471	0.0	+	71	noun	phrase	2	12	match	noir	5	1	y	0.56774
642.0469	0.0	NOIR	71	noun	phrase	2	13	match	noir	5	1	y	0.56774
642.6802	0.0	+	71	noun	phrase	2	14	match	noir	5	1	y	0.56774
642.6147000000002	0.0	[response]	71	noun	phrase	2	15	match	noir	5	1	y	0.56774
644.4468	0.0	+	72	verb	phrase	3	1	match	peut	3	1	y	0.59654
644.9967	0.2	lchqzvf	72	verb	phrase	3	2	match	peut	3	1	y	0.59654
645.1967000000001	0.0	+	72	verb	phrase	3	3	match	peut	3	1	y	0.59654
645.5967	0.2	jkvt	72	verb	phrase	3	4	match	peut	3	1	y	0.59654
645.7967000000001	0.0	+	72	verb	phrase	3	5	match	peut	3	1	y	0.59654
646.1966000000001	0.2	peut	72	verb	phrase	3	6	match	peut	3	1	y	0.59654
646.3966	0.0	+	72	verb	phrase	3	7	match	peut	3	1	y	0.59654
646.7966	0.2	moins	72	verb	phrase	3	8	match	peut	3	1	y	0.59654
646.9966000000001	0.0	+	72	verb	phrase	3	9	match	peut	3	1	y	0.59654
647.3965000000001	0.2	danser	72	verb	phrase	3	10	match	peut	3	1	y	0.59654
647.5965	0.0	+	72	verb	phrase	3	11	match	peut	3	1	y	0.59654
647.9965000000001	0.0	+	72	verb	phrase	3	12	match	peut	3	1	y	0.59654
649.9963	0.0	PEUT	72	verb	phrase	3	13	match	peut	3	1	y	0.59654
650.6629	0.0	+	72	verb	phrase	3	14	match	peut	3	1	y	0.59654
650.5929000000001	0.0	[response]	72	verb	phrase	3	15	match	peut	3	1	y	0.59654
668.3949	0.0	+	73	verb	list	2	1	nomatch	voyager	-1	1	p	0.6363
668.9449000000001	0.2	blvswm	73	verb	list	2	2	nomatch	voyager	-1	1	p	0.6363
669.1449	0.0	+	73	verb	list	2	3	nomatch	voyager	-1	1	p	0.6363
669.5448	0.2	fhsq	73	verb	list	2	4	nomatch	voyager	-1	1	p	0.6363
669.7448	0.0	+	73	verb	list	2	5	nomatch	voyager	-1	1	p	0.6363
670.1448	0.2	lnfq	73	verb	list	2	6	nomatch	voyager	-1	1	p	0.6363
670.3448000000001	0.0	+	73	verb	list	2	7	nomatch	voyager	-1	1	p	0.6363
670.7447000000001	0.2	nouveau	73	verb	list	2	8	nomatch	voyager	-1	1	p	0.6363
670.9447	0.0	+	73	verb	list	2	9	nomatch	voyager	-1	1	p	0.6363
671.3447000000001	0.2	plonger	73	verb	list	2	10	nomatch	voyager	-1	1	p	0.6363
671.5447	0.0	+	73	verb	list	2	11	nomatch	voyager	-1	1	p	0.6363
671.9446	0.0	+	73	verb	list	2	12	nomatch	voyager	-1	1	p	0.6363
673.9445000000001	0.0	VOYAGER	73	verb	list	2	13	nomatch	voyager	-1	1	p	0.6363
674.6444	0.0	+	73	verb	list	2	14	nomatch	voyager	-1	1	p	0.6363
674.5808000000002	0.0	[response]	73	verb	list	2	15	nomatch	voyager	-1	1	p	0.6363
684.3437	0.0	+	74	verb	phrase	4	1	nomatch	plus	-1	1	p	0.65669
684.8936	0.2	dbg	74	verb	phrase	4	2	nomatch	plus	-1	1	p	0.65669
685.0936	0.0	+	74	verb	phrase	4	3	nomatch	plus	-1	1	p	0.65669
685.4936	0.2	jean	74	verb	phrase	4	4	nomatch	plus	-1	1	p	0.65669
685.6936000000001	0.0	+	74	verb	phrase	4	5	nomatch	plus	-1	1	p	0.65669
686.0936	0.2	peut	74	verb	phrase	4	6	nomatch	plus	-1	1	p	0.65669
686.2935	0.0	+	74	verb	phrase	4	7	nomatch	plus	-1	1	p	0.65669
686.6935000000001	0.2	trop	74	verb	phrase	4	8	nomatch	plus	-1	1	p	0.65669
686.8935	0.0	+	74	verb	phrase	4	9	nomatch	plus	-1	1	p	0.65669
687.2935	0.2	galoper	74	verb	phrase	4	10	nomatch	plus	-1	1	p	0.65669
687.4934000000001	0.0	+	74	verb	phrase	4	11	nomatch	plus	-1	1	p	0.65669
687.8934	0.0	+	74	verb	phrase	4	12	nomatch	plus	-1	1	p	0.65669
689.8933000000001	0.0	PLUS	74	verb	phrase	4	13	nomatch	plus	-1	1	p	0.65669
690.6099	0.0	+	74	verb	phrase	4	14	nomatch	plus	-1	1	p	0.65669
690.5499000000001	0.0	[response]	74	verb	phrase	4	15	nomatch	plus	-1	1	p	0.65669
692.2931000000001	0.0	+	75	verb	phrase	2	1	nomatch	boîtier	-1	1	p	0.6815400000000001
692.8430000000001	0.2	tgrkjcl	75	verb	phrase	2	2	nomatch	boîtier	-1	1	p	0.6815400000000001
693.043	0.0	+	75	verb	phrase	2	3	nomatch	boîtier	-1	1	p	0.6815400000000001
693.4430000000001	0.2	cnjt	75	verb	phrase	2	4	nomatch	boîtier	-1	1	p	0.6815400000000001
693.643	0.0	+	75	verb	phrase	2	5	nomatch	boîtier	-1	1	p	0.6815400000000001
694.0429	0.2	ms	75	verb	phrase	2	6	nomatch	boîtier	-1	1	p	0.6815400000000001
694.2429000000001	0.0	+	75	verb	phrase	2	7	nomatch	boîtier	-1	1	p	0.6815400000000001
694.6429	0.2	moins	75	verb	phrase	2	8	nomatch	boîtier	-1	1	p	0.6815400000000001
694.8429000000001	0.0	+	75	verb	phrase	2	9	nomatch	boîtier	-1	1	p	0.6815400000000001
695.2428000000001	0.2	voyager	75	verb	phrase	2	10	nomatch	boîtier	-1	1	p	0.6815400000000001
695.4428	0.0	+	75	verb	phrase	2	11	nomatch	boîtier	-1	1	p	0.6815400000000001
695.8428	0.0	+	75	verb	phrase	2	12	nomatch	boîtier	-1	1	p	0.6815400000000001
697.8427	0.0	BOÎTIER	75	verb	phrase	2	13	nomatch	boîtier	-1	1	p	0.6815400000000001
698.5926000000001	0.0	+	75	verb	phrase	2	14	nomatch	boîtier	-1	1	p	0.6815400000000001
698.5242000000001	0.0	[response]	75	verb	phrase	2	15	nomatch	boîtier	-1	1	p	0.6815400000000001
708.2418	0.0	+	76	verb	phrase	4	1	match	va	3	1	y	0.6518700000000001
708.7918000000001	0.2	hcfnwrs	76	verb	phrase	4	2	match	va	3	1	y	0.6518700000000001
708.9918	0.0	+	76	verb	phrase	4	3	match	va	3	1	y	0.6518700000000001
709.3918000000001	0.2	luc	76	verb	phrase	4	4	match	va	3	1	y	0.6518700000000001
709.5917000000001	0.0	+	76	verb	phrase	4	5	match	va	3	1	y	0.6518700000000001
709.9917	0.2	va	76	verb	phrase	4	6	match	va	3	1	y	0.6518700000000001
710.1917000000001	0.0	+	76	verb	phrase	4	7	match	va	3	1	y	0.6518700000000001
710.5917000000001	0.2	mieux	76	verb	phrase	4	8	match	va	3	1	y	0.6518700000000001
710.7917000000001	0.0	+	76	verb	phrase	4	9	match	va	3	1	y	0.6518700000000001
711.1916	0.2	danser	76	verb	phrase	4	10	match	va	3	1	y	0.6518700000000001
711.3916	0.0	+	76	verb	phrase	4	11	match	va	3	1	y	0.6518700000000001
711.7916	0.0	+	76	verb	phrase	4	12	match	va	3	1	y	0.6518700000000001
713.7914000000001	0.0	VA	76	verb	phrase	4	13	match	va	3	1	y	0.6518700000000001
714.508	0.0	+	76	verb	phrase	4	14	match	va	3	1	y	0.6518700000000001
714.4433	0.0	[response]	76	verb	phrase	4	15	match	va	3	1	y	0.6518700000000001
732.19	0.0	+	77	verb	list	1	1	match	noir	5	1	y	0.53298
732.74	0.2	qvk	77	verb	list	1	2	match	noir	5	1	y	0.53298
732.9399000000001	0.0	+	77	verb	list	1	3	match	noir	5	1	y	0.53298
733.3399000000001	0.2	kvlx	77	verb	list	1	4	match	noir	5	1	y	0.53298
733.5399000000001	0.0	+	77	verb	list	1	5	match	noir	5	1	y	0.53298
733.9399000000001	0.2	hkq	77	verb	list	1	6	match	noir	5	1	y	0.53298
734.1399	0.0	+	77	verb	list	1	7	match	noir	5	1	y	0.53298
734.5398	0.2	wjmkxng	77	verb	list	1	8	match	noir	5	1	y	0.53298
734.7398000000001	0.0	+	77	verb	list	1	9	match	noir	5	1	y	0.53298
735.1398	0.2	noir	77	verb	list	1	10	match	noir	5	1	y	0.53298
735.3398000000001	0.0	+	77	verb	list	1	11	match	noir	5	1	y	0.53298
735.7397000000001	0.0	+	77	verb	list	1	12	match	noir	5	1	y	0.53298
737.7396	0.0	NOIR	77	verb	list	1	13	match	noir	5	1	y	0.53298
738.3395	0.0	+	77	verb	list	1	14	match	noir	5	1	y	0.53298
738.2726	0.0	[response]	77	verb	list	1	15	match	noir	5	1	y	0.53298
740.1394	0.0	+	78	verb	list	2	1	nomatch	doit	-1	1	p	0.71099
740.6893	0.2	bsncwt	78	verb	list	2	2	nomatch	doit	-1	1	p	0.71099
740.8893	0.0	+	78	verb	list	2	3	nomatch	doit	-1	1	p	0.71099
741.2893	0.2	fhsq	78	verb	list	2	4	nomatch	doit	-1	1	p	0.71099
741.4893000000001	0.0	+	78	verb	list	2	5	nomatch	doit	-1	1	p	0.71099
741.8893	0.2	lnfq	78	verb	list	2	6	nomatch	doit	-1	1	p	0.71099
742.0892	0.0	+	78	verb	list	2	7	nomatch	doit	-1	1	p	0.71099
742.4892000000001	0.2	grand	78	verb	list	2	8	nomatch	doit	-1	1	p	0.71099
742.6892	0.0	+	78	verb	list	2	9	nomatch	doit	-1	1	p	0.71099
743.0892	0.2	danser	78	verb	list	2	10	nomatch	doit	-1	1	p	0.71099
743.2891000000001	0.0	+	78	verb	list	2	11	nomatch	doit	-1	1	p	0.71099
743.6891	0.0	+	78	verb	list	2	12	nomatch	doit	-1	1	p	0.71099
745.6890000000001	0.0	DOIT	78	verb	list	2	13	nomatch	doit	-1	1	p	0.71099
746.4556	0.0	+	78	verb	list	2	14	nomatch	doit	-1	1	p	0.71099
746.4000000000001	0.0	[response]	78	verb	list	2	15	nomatch	doit	-1	1	p	0.71099
748.0888	0.0	+	79	noun	phrase	2	1	nomatch	boîtier	-1	1	p	0.7335
748.6387000000001	0.2	knm	79	noun	phrase	2	2	nomatch	boîtier	-1	1	p	0.7335
748.8387	0.0	+	79	noun	phrase	2	3	nomatch	boîtier	-1	1	p	0.7335
749.2387	0.2	ngcx	79	noun	phrase	2	4	nomatch	boîtier	-1	1	p	0.7335
749.4387	0.0	+	79	noun	phrase	2	5	nomatch	boîtier	-1	1	p	0.7335
749.8386	0.2	hkq	79	noun	phrase	2	6	nomatch	boîtier	-1	1	p	0.7335
750.0386000000001	0.0	+	79	noun	phrase	2	7	nomatch	boîtier	-1	1	p	0.7335
750.4386000000001	0.2	petit	79	noun	phrase	2	8	nomatch	boîtier	-1	1	p	0.7335
750.6386	0.0	+	79	noun	phrase	2	9	nomatch	boîtier	-1	1	p	0.7335
751.0385	0.2	tablier	79	noun	phrase	2	10	nomatch	boîtier	-1	1	p	0.7335
751.2385	0.0	+	79	noun	phrase	2	11	nomatch	boîtier	-1	1	p	0.7335
751.6385	0.0	+	79	noun	phrase	2	12	nomatch	boîtier	-1	1	p	0.7335
753.6386	0.0	BOÎTIER	79	noun	phrase	2	13	nomatch	boîtier	-1	1	p	0.7335
754.4383	0.0	+	79	noun	phrase	2	14	nomatch	boîtier	-1	1	p	0.7335
754.3721	0.0	[response]	79	noun	phrase	2	15	nomatch	boîtier	-1	1	p	0.7335
756.0382000000001	0.0	+	80	verb	list	2	1	nomatch	danser	-1	1	p	0.57899
756.5881	0.2	tph	80	verb	list	2	2	nomatch	danser	-1	1	p	0.57899
756.7881000000001	0.0	+	80	verb	list	2	3	nomatch	danser	-1	1	p	0.57899
757.1881000000001	0.2	chdk	80	verb	list	2	4	nomatch	danser	-1	1	p	0.57899
757.3881	0.0	+	80	verb	list	2	5	nomatch	danser	-1	1	p	0.57899
757.788	0.2	lnfq	80	verb	list	2	6	nomatch	danser	-1	1	p	0.57899
757.988	0.0	+	80	verb	list	2	7	nomatch	danser	-1	1	p	0.57899
758.388	0.2	nouveau	80	verb	list	2	8	nomatch	danser	-1	1	p	0.57899
758.5880000000001	0.0	+	80	verb	list	2	9	nomatch	danser	-1	1	p	0.57899
758.9879000000001	0.2	voyager	80	verb	list	2	10	nomatch	danser	-1	1	p	0.57899
759.1879	0.0	+	80	verb	list	2	11	nomatch	danser	-1	1	p	0.57899
759.5879000000001	0.0	+	80	verb	list	2	12	nomatch	danser	-1	1	p	0.57899
761.5877	0.0	DANSER	80	verb	list	2	13	nomatch	danser	-1	1	p	0.57899
762.221	0.0	+	80	verb	list	2	14	nomatch	danser	-1	1	p	0.57899
763.9875000000001	0.0	+	80	verb	list	2	15	nomatch	danser	-1	1	p	0.57899
765.0375	0.0	+	80	verb	list	2	16	nomatch	danser	-1	1	p	0.57899
765.1375	0.0	+	80	verb	list	2	17	nomatch	danser	-1	1	p	0.57899
766.5374	0.0	+	80	verb	list	2	18	nomatch	danser	-1	1	p	0.57899
766.6373000000001	0.0	+	80	verb	list	2	19	nomatch	danser	-1	1	p	0.57899
768.0206000000001	0.0	+	80	verb	list	2	20	nomatch	danser	-1	1	p	0.57899
768.1206000000001	0.0	+	80	verb	list	2	21	nomatch	danser	-1	1	p	0.57899
769.5371	0.0	+	80	verb	list	2	22	nomatch	danser	-1	1	p	0.57899
769.6371	0.0	+	80	verb	list	2	23	nomatch	danser	-1	1	p	0.57899
771.0203	0.0	+	80	verb	list	2	24	nomatch	danser	-1	1	p	0.57899
771.1203	0.0	+	80	verb	list	2	25	nomatch	danser	-1	1	p	0.57899
772.5369000000001	0.0	+	80	verb	list	2	26	nomatch	danser	-1	1	p	0.57899
772.6369000000001	0.0	+	80	verb	list	2	27	nomatch	danser	-1	1	p	0.57899
774.0201000000001	0.0	+	80	verb	list	2	28	nomatch	danser	-1	1	p	0.57899
774.1201000000001	0.0	+	80	verb	list	2	29	nomatch	danser	-1	1	p	0.57899
775.5367	0.0	+	80	verb	list	2	30	nomatch	danser	-1	1	p	0.57899
775.6367	0.0	+	80	verb	list	2	31	nomatch	danser	-1	1	p	0.57899
777.0199	0.0	+	80	verb	list	2	32	nomatch	danser	-1	1	p	0.57899
777.1199	0.0	+	80	verb	list	2	33	nomatch	danser	-1	1	p	0.57899
778.5364000000001	0.0	+	80	verb	list	2	34	nomatch	danser	-1	1	p	0.57899
778.6364000000001	0.0	+	80	verb	list	2	35	nomatch	danser	-1	1	p	0.57899
782.6694	0.0	+	80	verb	list	2	36	nomatch	danser	-1	1	p	0.57899
762.1667000000001	0.0	[response]	80	verb	list	2	37	nomatch	danser	-1	1	p	0.57899
