onset	duration	stim	trial_number	trial_type	trial_structure	trial_length	sequential_position	probe_type	probe	probe_position	response_correct	response_key	response_time
0.06519999999999726	0.0	+	1	verb	phrase	4	1	nomatch	tôt	-1	1	p	0.8228800000000001
0.5484999999999971	0.2	xkvzmqt	1	verb	phrase	4	2	nomatch	tôt	-1	1	p	0.8228800000000001
0.7484999999999999	0.0	+	1	verb	phrase	4	3	nomatch	tôt	-1	1	p	0.8228800000000001
1.1484999999999985	0.2	marc	1	verb	phrase	4	4	nomatch	tôt	-1	1	p	0.8228800000000001
1.348399999999998	0.0	+	1	verb	phrase	4	5	nomatch	tôt	-1	1	p	0.8228800000000001
1.7484000000000037	0.2	va	1	verb	phrase	4	6	nomatch	tôt	-1	1	p	0.8228800000000001
1.9483999999999995	0.0	+	1	verb	phrase	4	7	nomatch	tôt	-1	1	p	0.8228800000000001
2.348399999999998	0.2	chasser	1	verb	phrase	4	8	nomatch	tôt	-1	1	p	0.8228800000000001
2.5482999999999976	0.0	+	1	verb	phrase	4	9	nomatch	tôt	-1	1	p	0.8228800000000001
2.9483000000000033	0.2	loin	1	verb	phrase	4	10	nomatch	tôt	-1	1	p	0.8228800000000001
3.148299999999999	0.0	+	1	verb	phrase	4	11	nomatch	tôt	-1	1	p	0.8228800000000001
3.5482999999999976	0.0	+	1	verb	phrase	4	12	nomatch	tôt	-1	1	p	0.8228800000000001
5.548099999999998	0.0	TÔT	1	verb	phrase	4	13	nomatch	tôt	-1	1	p	0.8228800000000001
6.431400000000004	0.0	+	1	verb	phrase	4	14	nomatch	tôt	-1	1	p	0.8228800000000001
6.371000000000002	0.0	[response]	1	verb	phrase	4	15	nomatch	tôt	-1	1	p	0.8228800000000001
7.947899999999997	0.0	+	2	noun	list	4	1	match	sur	2	1	y	0.75417
8.497899999999994	0.2	fmlwntb	2	noun	list	4	2	match	sur	2	1	y	0.75417
8.697899999999997	0.0	+	2	noun	list	4	3	match	sur	2	1	y	0.75417
9.0978	0.2	sur	2	noun	list	4	4	match	sur	2	1	y	0.75417
9.297800000000002	0.0	+	2	noun	list	4	5	match	sur	2	1	y	0.75417
9.697799999999994	0.2	peut	2	noun	list	4	6	match	sur	2	1	y	0.75417
9.897799999999997	0.0	+	2	noun	list	4	7	match	sur	2	1	y	0.75417
10.297800000000002	0.2	cendrier	2	noun	list	4	8	match	sur	2	1	y	0.75417
10.497700000000002	0.0	+	2	noun	list	4	9	match	sur	2	1	y	0.75417
10.897699999999993	0.2	tard	2	noun	list	4	10	match	sur	2	1	y	0.75417
11.097699999999996	0.0	+	2	noun	list	4	11	match	sur	2	1	y	0.75417
11.497700000000002	0.0	+	2	noun	list	4	12	match	sur	2	1	y	0.75417
13.497499999999995	0.0	SUR	2	noun	list	4	13	match	sur	2	1	y	0.75417
14.314100000000003	0.0	+	2	noun	list	4	14	match	sur	2	1	y	0.75417
14.251700000000007	0.0	[response]	2	noun	list	4	15	match	sur	2	1	y	0.75417
15.897299999999994	0.0	+	3	noun	phrase	1	1	nomatch	grenier	-1	1	p	0.59338
16.447300000000006	0.2	vpbrgx	3	noun	phrase	1	2	nomatch	grenier	-1	1	p	0.59338
16.647299999999994	0.0	+	3	noun	phrase	1	3	nomatch	grenier	-1	1	p	0.59338
17.047199999999997	0.2	lnfq	3	noun	phrase	1	4	nomatch	grenier	-1	1	p	0.59338
17.2472	0.0	+	3	noun	phrase	1	5	nomatch	grenier	-1	1	p	0.59338
17.647200000000005	0.2	hkq	3	noun	phrase	1	6	nomatch	grenier	-1	1	p	0.59338
17.847199999999994	0.0	+	3	noun	phrase	1	7	nomatch	grenier	-1	1	p	0.59338
18.247099999999996	0.2	qbsdwmn	3	noun	phrase	1	8	nomatch	grenier	-1	1	p	0.59338
18.4471	0.0	+	3	noun	phrase	1	9	nomatch	grenier	-1	1	p	0.59338
18.847100000000005	0.2	nouveau	3	noun	phrase	1	10	nomatch	grenier	-1	1	p	0.59338
19.047099999999993	0.0	+	3	noun	phrase	1	11	nomatch	grenier	-1	1	p	0.59338
19.446999999999996	0.0	+	3	noun	phrase	1	12	nomatch	grenier	-1	1	p	0.59338
21.446900000000007	0.0	GRENIER	3	noun	phrase	1	13	nomatch	grenier	-1	1	p	0.59338
22.096799999999995	0.0	+	3	noun	phrase	1	14	nomatch	grenier	-1	1	p	0.59338
22.04030000000001	0.0	[response]	3	noun	phrase	1	15	nomatch	grenier	-1	1	p	0.59338
23.847900000000003	0.0	+	4	noun	phrase	1	1	nomatch	cendrier	-1	1	p	0.68857
24.396700000000003	0.2	hcmxw	4	noun	phrase	1	2	nomatch	cendrier	-1	1	p	0.68857
24.596700000000006	0.0	+	4	noun	phrase	1	3	nomatch	cendrier	-1	1	p	0.68857
24.996599999999994	0.2	ngcx	4	noun	phrase	1	4	nomatch	cendrier	-1	1	p	0.68857
25.196599999999997	0.0	+	4	noun	phrase	1	5	nomatch	cendrier	-1	1	p	0.68857
25.596600000000002	0.2	mwvt	4	noun	phrase	1	6	nomatch	cendrier	-1	1	p	0.68857
25.796600000000005	0.0	+	4	noun	phrase	1	7	nomatch	cendrier	-1	1	p	0.68857
26.196500000000007	0.2	xkwgr	4	noun	phrase	1	8	nomatch	cendrier	-1	1	p	0.68857
26.396499999999996	0.0	+	4	noun	phrase	1	9	nomatch	cendrier	-1	1	p	0.68857
26.7965	0.2	rocher	4	noun	phrase	1	10	nomatch	cendrier	-1	1	p	0.68857
26.996500000000005	0.0	+	4	noun	phrase	1	11	nomatch	cendrier	-1	1	p	0.68857
27.396400000000007	0.0	+	4	noun	phrase	1	12	nomatch	cendrier	-1	1	p	0.68857
29.396300000000004	0.0	CENDRIER	4	noun	phrase	1	13	nomatch	cendrier	-1	1	p	0.68857
30.1462	0.0	+	4	noun	phrase	1	14	nomatch	cendrier	-1	1	p	0.68857
30.084899999999998	0.0	[response]	4	noun	phrase	1	15	nomatch	cendrier	-1	1	p	0.68857
31.796100000000003	0.0	+	5	verb	list	4	1	nomatch	chasser	-1	1	p	0.75106
32.3461	0.2	hmbzr	5	verb	list	4	2	nomatch	chasser	-1	1	p	0.75106
32.546	0.0	+	5	verb	list	4	3	nomatch	chasser	-1	1	p	0.75106
32.946000000000005	0.2	paul	5	verb	list	4	4	nomatch	chasser	-1	1	p	0.75106
33.145999999999994	0.0	+	5	verb	list	4	5	nomatch	chasser	-1	1	p	0.75106
33.546	0.2	mon	5	verb	list	4	6	nomatch	chasser	-1	1	p	0.75106
33.746	0.0	+	5	verb	list	4	7	nomatch	chasser	-1	1	p	0.75106
34.145900000000005	0.2	galoper	5	verb	list	4	8	nomatch	chasser	-1	1	p	0.75106
34.34590000000001	0.0	+	5	verb	list	4	9	nomatch	chasser	-1	1	p	0.75106
34.7459	0.2	bleu	5	verb	list	4	10	nomatch	chasser	-1	1	p	0.75106
34.9459	0.0	+	5	verb	list	4	11	nomatch	chasser	-1	1	p	0.75106
35.345800000000004	0.0	+	5	verb	list	4	12	nomatch	chasser	-1	1	p	0.75106
37.3457	0.0	CHASSER	5	verb	list	4	13	nomatch	chasser	-1	1	p	0.75106
38.162299999999995	0.0	+	5	verb	list	4	14	nomatch	chasser	-1	1	p	0.75106
38.096700000000006	0.0	[response]	5	verb	list	4	15	nomatch	chasser	-1	1	p	0.75106
39.7455	0.0	+	6	noun	list	3	1	nomatch	plus	-1	1	p	0.83695
40.2955	0.2	zlwnd	6	noun	list	3	2	nomatch	plus	-1	1	p	0.83695
40.4954	0.0	+	6	noun	list	3	3	nomatch	plus	-1	1	p	0.83695
40.8954	0.2	frjv	6	noun	list	3	4	nomatch	plus	-1	1	p	0.83695
41.095400000000005	0.0	+	6	noun	list	3	5	nomatch	plus	-1	1	p	0.83695
41.4954	0.2	leur	6	noun	list	3	6	nomatch	plus	-1	1	p	0.83695
41.695299999999996	0.0	+	6	noun	list	3	7	nomatch	plus	-1	1	p	0.83695
42.0953	0.2	moins	6	noun	list	3	8	nomatch	plus	-1	1	p	0.83695
42.295899999999996	0.0	+	6	noun	list	3	9	nomatch	plus	-1	1	p	0.83695
42.695299999999996	0.2	clavier	6	noun	list	3	10	nomatch	plus	-1	1	p	0.83695
42.895199999999996	0.0	+	6	noun	list	3	11	nomatch	plus	-1	1	p	0.83695
43.2952	0.0	+	6	noun	list	3	12	nomatch	plus	-1	1	p	0.83695
45.2951	0.0	PLUS	6	noun	list	3	13	nomatch	plus	-1	1	p	0.83695
46.195	0.0	+	6	noun	list	3	14	nomatch	plus	-1	1	p	0.83695
46.132	0.0	[response]	6	noun	list	3	15	nomatch	plus	-1	1	p	0.83695
47.6949	0.0	+	7	verb	list	4	1	nomatch	trop	-1	1	p	0.66137
48.244800000000005	0.2	qhprxfm	7	verb	list	4	2	nomatch	trop	-1	1	p	0.66137
48.444799999999994	0.0	+	7	verb	list	4	3	nomatch	trop	-1	1	p	0.66137
48.8448	0.2	avec	7	verb	list	4	4	nomatch	trop	-1	1	p	0.66137
49.0448	0.0	+	7	verb	list	4	5	nomatch	trop	-1	1	p	0.66137
49.444700000000005	0.2	doit	7	verb	list	4	6	nomatch	trop	-1	1	p	0.66137
49.64470000000001	0.0	+	7	verb	list	4	7	nomatch	trop	-1	1	p	0.66137
50.0447	0.2	grand	7	verb	list	4	8	nomatch	trop	-1	1	p	0.66137
50.2447	0.0	+	7	verb	list	4	9	nomatch	trop	-1	1	p	0.66137
50.64470000000001	0.2	voyager	7	verb	list	4	10	nomatch	trop	-1	1	p	0.66137
50.84460000000001	0.0	+	7	verb	list	4	11	nomatch	trop	-1	1	p	0.66137
51.2446	0.0	+	7	verb	list	4	12	nomatch	trop	-1	1	p	0.66137
53.244499999999995	0.0	TROP	7	verb	list	4	13	nomatch	trop	-1	1	p	0.66137
53.961099999999995	0.0	+	7	verb	list	4	14	nomatch	trop	-1	1	p	0.66137
53.905800000000006	0.0	[response]	7	verb	list	4	15	nomatch	trop	-1	1	p	0.66137
55.644299999999994	0.0	+	8	noun	phrase	3	1	nomatch	plus	-1	1	p	0.71705
56.1942	0.2	tnqr	8	noun	phrase	3	2	nomatch	plus	-1	1	p	0.71705
56.394200000000005	0.0	+	8	noun	phrase	3	3	nomatch	plus	-1	1	p	0.71705
56.7942	0.2	fjcz	8	noun	phrase	3	4	nomatch	plus	-1	1	p	0.71705
56.9942	0.0	+	8	noun	phrase	3	5	nomatch	plus	-1	1	p	0.71705
57.3941	0.2	leur	8	noun	phrase	3	6	nomatch	plus	-1	1	p	0.71705
57.594100000000005	0.0	+	8	noun	phrase	3	7	nomatch	plus	-1	1	p	0.71705
57.994099999999996	0.2	clavier	8	noun	phrase	3	8	nomatch	plus	-1	1	p	0.71705
58.1941	0.0	+	8	noun	phrase	3	9	nomatch	plus	-1	1	p	0.71705
58.594	0.2	vert	8	noun	phrase	3	10	nomatch	plus	-1	1	p	0.71705
58.794000000000004	0.0	+	8	noun	phrase	3	11	nomatch	plus	-1	1	p	0.71705
59.193999999999996	0.0	+	8	noun	phrase	3	12	nomatch	plus	-1	1	p	0.71705
61.1938	0.0	PLUS	8	noun	phrase	3	13	nomatch	plus	-1	1	p	0.71705
61.9771	0.0	+	8	noun	phrase	3	14	nomatch	plus	-1	1	p	0.71705
61.910900000000005	0.0	[response]	8	noun	phrase	3	15	nomatch	plus	-1	1	p	0.71705
71.59300000000002	0.0	+	9	verb	phrase	3	1	match	mieux	4	1	y	0.62107
72.143	0.2	xnwl	9	verb	phrase	3	2	match	mieux	4	1	y	0.62107
72.34300000000002	0.0	+	9	verb	phrase	3	3	match	mieux	4	1	y	0.62107
72.743	0.2	kjs	9	verb	phrase	3	4	match	mieux	4	1	y	0.62107
72.94290000000001	0.0	+	9	verb	phrase	3	5	match	mieux	4	1	y	0.62107
73.34290000000001	0.2	doit	9	verb	phrase	3	6	match	mieux	4	1	y	0.62107
73.5429	0.0	+	9	verb	phrase	3	7	match	mieux	4	1	y	0.62107
73.94290000000001	0.2	mieux	9	verb	phrase	3	8	match	mieux	4	1	y	0.62107
74.1429	0.0	+	9	verb	phrase	3	9	match	mieux	4	1	y	0.62107
74.5428	0.2	nager	9	verb	phrase	3	10	match	mieux	4	1	y	0.62107
74.74280000000002	0.0	+	9	verb	phrase	3	11	match	mieux	4	1	y	0.62107
75.1428	0.0	+	9	verb	phrase	3	12	match	mieux	4	1	y	0.62107
77.14260000000002	0.0	MIEUX	9	verb	phrase	3	13	match	mieux	4	1	y	0.62107
77.82590000000002	0.0	+	9	verb	phrase	3	14	match	mieux	4	1	y	0.62107
77.7637	0.0	[response]	9	verb	phrase	3	15	match	mieux	4	1	y	0.62107
79.54240000000001	0.0	+	10	noun	list	4	1	match	loin	5	1	y	0.95829
80.0924	0.2	qxcf	10	noun	list	4	2	match	loin	5	1	y	0.95829
80.29240000000001	0.0	+	10	noun	list	4	3	match	loin	5	1	y	0.95829
80.69230000000002	0.2	sur	10	noun	list	4	4	match	loin	5	1	y	0.95829
80.8923	0.0	+	10	noun	list	4	5	match	loin	5	1	y	0.95829
81.29230000000001	0.2	peut	10	noun	list	4	6	match	loin	5	1	y	0.95829
81.4923	0.0	+	10	noun	list	4	7	match	loin	5	1	y	0.95829
81.8923	0.2	clavier	10	noun	list	4	8	match	loin	5	1	y	0.95829
82.09220000000002	0.0	+	10	noun	list	4	9	match	loin	5	1	y	0.95829
82.4922	0.2	loin	10	noun	list	4	10	match	loin	5	1	y	0.95829
82.69220000000001	0.0	+	10	noun	list	4	11	match	loin	5	1	y	0.95829
83.09220000000002	0.0	+	10	noun	list	4	12	match	loin	5	1	y	0.95829
85.09200000000001	0.0	LOIN	10	noun	list	4	13	match	loin	5	1	y	0.95829
86.1086	0.0	+	10	noun	list	4	14	match	loin	5	1	y	0.95829
86.05030000000002	0.0	[response]	10	noun	list	4	15	match	loin	5	1	y	0.95829
87.49180000000001	0.0	+	11	noun	phrase	2	1	nomatch	grenier	-1	1	p	0.6442000000000001
88.0418	0.2	jrkqlvg	11	noun	phrase	2	2	nomatch	grenier	-1	1	p	0.6442000000000001
88.24180000000001	0.0	+	11	noun	phrase	2	3	nomatch	grenier	-1	1	p	0.6442000000000001
88.64170000000001	0.2	xsh	11	noun	phrase	2	4	nomatch	grenier	-1	1	p	0.6442000000000001
88.8417	0.0	+	11	noun	phrase	2	5	nomatch	grenier	-1	1	p	0.6442000000000001
89.24170000000001	0.2	hkq	11	noun	phrase	2	6	nomatch	grenier	-1	1	p	0.6442000000000001
89.4417	0.0	+	11	noun	phrase	2	7	nomatch	grenier	-1	1	p	0.6442000000000001
89.8416	0.2	casier	11	noun	phrase	2	8	nomatch	grenier	-1	1	p	0.6442000000000001
90.04160000000002	0.0	+	11	noun	phrase	2	9	nomatch	grenier	-1	1	p	0.6442000000000001
90.4416	0.2	bleu	11	noun	phrase	2	10	nomatch	grenier	-1	1	p	0.6442000000000001
90.64160000000001	0.0	+	11	noun	phrase	2	11	nomatch	grenier	-1	1	p	0.6442000000000001
91.04160000000002	0.0	+	11	noun	phrase	2	12	nomatch	grenier	-1	1	p	0.6442000000000001
93.04140000000001	0.0	GRENIER	11	noun	phrase	2	13	nomatch	grenier	-1	1	p	0.6442000000000001
93.7413	0.0	+	11	noun	phrase	2	14	nomatch	grenier	-1	1	p	0.6442000000000001
93.6856	0.0	[response]	11	noun	phrase	2	15	nomatch	grenier	-1	1	p	0.6442000000000001
95.44120000000001	0.0	+	12	verb	phrase	1	1	match	tard	5	1	y	0.59238
95.99120000000002	0.2	tvzn	12	verb	phrase	1	2	match	tard	5	1	y	0.59238
96.19120000000001	0.0	+	12	verb	phrase	1	3	match	tard	5	1	y	0.59238
96.59110000000001	0.2	kvlx	12	verb	phrase	1	4	match	tard	5	1	y	0.59238
96.7911	0.0	+	12	verb	phrase	1	5	match	tard	5	1	y	0.59238
97.1911	0.2	lnfq	12	verb	phrase	1	6	match	tard	5	1	y	0.59238
97.3911	0.0	+	12	verb	phrase	1	7	match	tard	5	1	y	0.59238
97.791	0.2	zkdrhpq	12	verb	phrase	1	8	match	tard	5	1	y	0.59238
97.99100000000001	0.0	+	12	verb	phrase	1	9	match	tard	5	1	y	0.59238
98.39100000000002	0.2	tard	12	verb	phrase	1	10	match	tard	5	1	y	0.59238
98.59100000000001	0.0	+	12	verb	phrase	1	11	match	tard	5	1	y	0.59238
98.99090000000001	0.0	+	12	verb	phrase	1	12	match	tard	5	1	y	0.59238
100.99080000000001	0.0	TARD	12	verb	phrase	1	13	match	tard	5	1	y	0.59238
101.64070000000001	0.0	+	12	verb	phrase	1	14	match	tard	5	1	y	0.59238
101.5832	0.0	[response]	12	verb	phrase	1	15	match	tard	5	1	y	0.59238
103.3906	0.0	+	13	noun	list	1	1	nomatch	moins	-1	1	p	0.68069
103.94060000000002	0.2	qdkxz	13	noun	list	1	2	nomatch	moins	-1	1	p	0.68069
104.1405	0.0	+	13	noun	list	1	3	nomatch	moins	-1	1	p	0.68069
104.54050000000001	0.2	frjv	13	noun	list	1	4	nomatch	moins	-1	1	p	0.68069
104.7405	0.0	+	13	noun	list	1	5	nomatch	moins	-1	1	p	0.68069
105.1405	0.2	psl	13	noun	list	1	6	nomatch	moins	-1	1	p	0.68069
105.34050000000002	0.0	+	13	noun	list	1	7	nomatch	moins	-1	1	p	0.68069
105.7404	0.2	vfsdzlm	13	noun	list	1	8	nomatch	moins	-1	1	p	0.68069
105.94040000000001	0.0	+	13	noun	list	1	9	nomatch	moins	-1	1	p	0.68069
106.34040000000002	0.2	beaucoup	13	noun	list	1	10	nomatch	moins	-1	1	p	0.68069
106.5404	0.0	+	13	noun	list	1	11	nomatch	moins	-1	1	p	0.68069
106.94030000000001	0.0	+	13	noun	list	1	12	nomatch	moins	-1	1	p	0.68069
108.9402	0.0	MOINS	13	noun	list	1	13	nomatch	moins	-1	1	p	0.68069
109.6901	0.0	+	13	noun	list	1	14	nomatch	moins	-1	1	p	0.68069
109.6209	0.0	[response]	13	noun	list	1	15	nomatch	moins	-1	1	p	0.68069
111.34	0.0	+	14	noun	phrase	1	1	match	beau	5	1	y	0.70306
111.89000000000001	0.2	skglcp	14	noun	phrase	1	2	match	beau	5	1	y	0.70306
112.0899	0.0	+	14	noun	phrase	1	3	match	beau	5	1	y	0.70306
112.4899	0.2	fhsq	14	noun	phrase	1	4	match	beau	5	1	y	0.70306
112.6899	0.0	+	14	noun	phrase	1	5	match	beau	5	1	y	0.70306
113.0899	0.2	mwvt	14	noun	phrase	1	6	match	beau	5	1	y	0.70306
113.28980000000001	0.0	+	14	noun	phrase	1	7	match	beau	5	1	y	0.70306
113.68980000000002	0.2	vprqblt	14	noun	phrase	1	8	match	beau	5	1	y	0.70306
113.88980000000001	0.0	+	14	noun	phrase	1	9	match	beau	5	1	y	0.70306
114.28980000000001	0.2	beau	14	noun	phrase	1	10	match	beau	5	1	y	0.70306
114.4897	0.0	+	14	noun	phrase	1	11	match	beau	5	1	y	0.70306
114.8897	0.0	+	14	noun	phrase	1	12	match	beau	5	1	y	0.70306
116.8896	0.0	BEAU	14	noun	phrase	1	13	match	beau	5	1	y	0.70306
117.65620000000001	0.0	+	14	noun	phrase	1	14	match	beau	5	1	y	0.70306
117.5926	0.0	[response]	14	noun	phrase	1	15	match	beau	5	1	y	0.70306
119.2894	0.0	+	15	verb	phrase	3	1	match	plonger	5	1	y	0.54177
119.83930000000001	0.2	gsqfjhz	15	verb	phrase	3	2	match	plonger	5	1	y	0.54177
120.0393	0.0	+	15	verb	phrase	3	3	match	plonger	5	1	y	0.54177
120.4393	0.2	frjv	15	verb	phrase	3	4	match	plonger	5	1	y	0.54177
120.63930000000002	0.0	+	15	verb	phrase	3	5	match	plonger	5	1	y	0.54177
121.0392	0.2	peut	15	verb	phrase	3	6	match	plonger	5	1	y	0.54177
121.23920000000001	0.0	+	15	verb	phrase	3	7	match	plonger	5	1	y	0.54177
121.63920000000002	0.2	trop	15	verb	phrase	3	8	match	plonger	5	1	y	0.54177
121.8392	0.0	+	15	verb	phrase	3	9	match	plonger	5	1	y	0.54177
122.23920000000001	0.2	plonger	15	verb	phrase	3	10	match	plonger	5	1	y	0.54177
122.4391	0.0	+	15	verb	phrase	3	11	match	plonger	5	1	y	0.54177
122.8391	0.0	+	15	verb	phrase	3	12	match	plonger	5	1	y	0.54177
124.839	0.0	PLONGER	15	verb	phrase	3	13	match	plonger	5	1	y	0.54177
125.43890000000002	0.0	+	15	verb	phrase	3	14	match	plonger	5	1	y	0.54177
125.38070000000005	0.0	[response]	15	verb	phrase	3	15	match	plonger	5	1	y	0.54177
127.2388	0.0	+	16	noun	list	1	1	nomatch	doit	-1	1	p	0.6443500000000001
127.7887	0.2	kxh	16	noun	list	1	2	nomatch	doit	-1	1	p	0.6443500000000001
127.9887	0.0	+	16	noun	list	1	3	nomatch	doit	-1	1	p	0.6443500000000001
128.3887	0.2	jkvt	16	noun	list	1	4	nomatch	doit	-1	1	p	0.6443500000000001
128.58870000000002	0.0	+	16	noun	list	1	5	nomatch	doit	-1	1	p	0.6443500000000001
128.98860000000002	0.2	psl	16	noun	list	1	6	nomatch	doit	-1	1	p	0.6443500000000001
129.1886	0.0	+	16	noun	list	1	7	nomatch	doit	-1	1	p	0.6443500000000001
129.5886	0.2	hrmj	16	noun	list	1	8	nomatch	doit	-1	1	p	0.6443500000000001
129.7886	0.0	+	16	noun	list	1	9	nomatch	doit	-1	1	p	0.6443500000000001
130.1885	0.2	cendrier	16	noun	list	1	10	nomatch	doit	-1	1	p	0.6443500000000001
130.3885	0.0	+	16	noun	list	1	11	nomatch	doit	-1	1	p	0.6443500000000001
130.7885	0.0	+	16	noun	list	1	12	nomatch	doit	-1	1	p	0.6443500000000001
132.78830000000002	0.0	DOIT	16	noun	list	1	13	nomatch	doit	-1	1	p	0.6443500000000001
133.4883	0.0	+	16	noun	list	1	14	nomatch	doit	-1	1	p	0.6443500000000001
133.4327	0.0	[response]	16	noun	list	1	15	nomatch	doit	-1	1	p	0.6443500000000001
135.1882	0.0	+	17	noun	list	4	1	nomatch	mon	-1	1	p	0.82644
135.7381	0.2	vcdwrk	17	noun	list	4	2	nomatch	mon	-1	1	p	0.82644
135.93810000000002	0.0	+	17	noun	list	4	3	nomatch	mon	-1	1	p	0.82644
136.3381	0.2	avec	17	noun	list	4	4	nomatch	mon	-1	1	p	0.82644
136.53810000000001	0.0	+	17	noun	list	4	5	nomatch	mon	-1	1	p	0.82644
136.93800000000002	0.2	va	17	noun	list	4	6	nomatch	mon	-1	1	p	0.82644
137.138	0.0	+	17	noun	list	4	7	nomatch	mon	-1	1	p	0.82644
137.538	0.2	rocher	17	noun	list	4	8	nomatch	mon	-1	1	p	0.82644
137.738	0.0	+	17	noun	list	4	9	nomatch	mon	-1	1	p	0.82644
138.1379	0.2	tard	17	noun	list	4	10	nomatch	mon	-1	1	p	0.82644
138.33790000000002	0.0	+	17	noun	list	4	11	nomatch	mon	-1	1	p	0.82644
138.7379	0.0	+	17	noun	list	4	12	nomatch	mon	-1	1	p	0.82644
140.73770000000002	0.0	MON	17	noun	list	4	13	nomatch	mon	-1	1	p	0.82644
141.621	0.0	+	17	noun	list	4	14	nomatch	mon	-1	1	p	0.82644
141.5642	0.0	[response]	17	noun	list	4	15	nomatch	mon	-1	1	p	0.82644
143.13750000000002	0.0	+	18	noun	phrase	4	1	nomatch	patiner	-1	1	p	0.68549
143.6875	0.2	pjtz	18	noun	phrase	4	2	nomatch	patiner	-1	1	p	0.68549
143.88750000000002	0.0	+	18	noun	phrase	4	3	nomatch	patiner	-1	1	p	0.68549
144.2875	0.2	sous	18	noun	phrase	4	4	nomatch	patiner	-1	1	p	0.68549
144.4874	0.0	+	18	noun	phrase	4	5	nomatch	patiner	-1	1	p	0.68549
144.8874	0.2	leur	18	noun	phrase	4	6	nomatch	patiner	-1	1	p	0.68549
145.0874	0.0	+	18	noun	phrase	4	7	nomatch	patiner	-1	1	p	0.68549
145.4874	0.2	vieux	18	noun	phrase	4	8	nomatch	patiner	-1	1	p	0.68549
145.6874	0.0	+	18	noun	phrase	4	9	nomatch	patiner	-1	1	p	0.68549
146.0873	0.2	casier	18	noun	phrase	4	10	nomatch	patiner	-1	1	p	0.68549
146.28730000000002	0.0	+	18	noun	phrase	4	11	nomatch	patiner	-1	1	p	0.68549
146.6873	0.0	+	18	noun	phrase	4	12	nomatch	patiner	-1	1	p	0.68549
148.68710000000002	0.0	PATINER	18	noun	phrase	4	13	nomatch	patiner	-1	1	p	0.68549
149.43710000000002	0.0	+	18	noun	phrase	4	14	nomatch	patiner	-1	1	p	0.68549
149.3726	0.0	[response]	18	noun	phrase	4	15	nomatch	patiner	-1	1	p	0.68549
151.0869	0.0	+	19	verb	phrase	1	1	match	plus	5	1	y	0.44778
151.6369	0.2	pjrs	19	verb	phrase	1	2	match	plus	5	1	y	0.44778
151.8369	0.0	+	19	verb	phrase	1	3	match	plus	5	1	y	0.44778
152.23680000000002	0.2	mrzd	19	verb	phrase	1	4	match	plus	5	1	y	0.44778
152.4368	0.0	+	19	verb	phrase	1	5	match	plus	5	1	y	0.44778
152.8368	0.2	lnfq	19	verb	phrase	1	6	match	plus	5	1	y	0.44778
153.0368	0.0	+	19	verb	phrase	1	7	match	plus	5	1	y	0.44778
153.4368	0.2	fvjzng	19	verb	phrase	1	8	match	plus	5	1	y	0.44778
153.63670000000002	0.0	+	19	verb	phrase	1	9	match	plus	5	1	y	0.44778
154.0367	0.2	plus	19	verb	phrase	1	10	match	plus	5	1	y	0.44778
154.2367	0.0	+	19	verb	phrase	1	11	match	plus	5	1	y	0.44778
154.63670000000002	0.0	+	19	verb	phrase	1	12	match	plus	5	1	y	0.44778
156.6365	0.0	PLUS	19	verb	phrase	1	13	match	plus	5	1	y	0.44778
157.1531	0.0	+	19	verb	phrase	1	14	match	plus	5	1	y	0.44778
157.0843	0.0	[response]	19	verb	phrase	1	15	match	plus	5	1	y	0.44778
167.03570000000002	0.0	+	20	noun	list	1	1	nomatch	blanc	-1	1	p	0.50713
167.5857	0.2	nfprt	20	noun	list	1	2	nomatch	blanc	-1	1	p	0.50713
167.78570000000002	0.0	+	20	noun	list	1	3	nomatch	blanc	-1	1	p	0.50713
168.1856	0.2	ngcx	20	noun	list	1	4	nomatch	blanc	-1	1	p	0.50713
168.3856	0.0	+	20	noun	list	1	5	nomatch	blanc	-1	1	p	0.50713
168.78560000000002	0.2	ms	20	noun	list	1	6	nomatch	blanc	-1	1	p	0.50713
168.9856	0.0	+	20	noun	list	1	7	nomatch	blanc	-1	1	p	0.50713
169.3855	0.2	wkjvd	20	noun	list	1	8	nomatch	blanc	-1	1	p	0.50713
169.5855	0.0	+	20	noun	list	1	9	nomatch	blanc	-1	1	p	0.50713
169.9855	0.2	cendrier	20	noun	list	1	10	nomatch	blanc	-1	1	p	0.50713
170.1857	0.0	+	20	noun	list	1	11	nomatch	blanc	-1	1	p	0.50713
170.58540000000002	0.0	+	20	noun	list	1	12	nomatch	blanc	-1	1	p	0.50713
172.58530000000002	0.0	BLANC	20	noun	list	1	13	nomatch	blanc	-1	1	p	0.50713
173.1519	0.0	+	20	noun	list	1	14	nomatch	blanc	-1	1	p	0.50713
173.0924	0.0	[response]	20	noun	list	1	15	nomatch	blanc	-1	1	p	0.50713
174.98510000000002	0.0	+	21	noun	list	3	1	match	tablier	4	1	y	0.6032500000000001
175.5351	0.2	wjtshn	21	noun	list	3	2	match	tablier	4	1	y	0.6032500000000001
175.735	0.0	+	21	noun	list	3	3	match	tablier	4	1	y	0.6032500000000001
176.13500000000002	0.2	xsh	21	noun	list	3	4	match	tablier	4	1	y	0.6032500000000001
176.335	0.0	+	21	noun	list	3	5	match	tablier	4	1	y	0.6032500000000001
176.735	0.2	va	21	noun	list	3	6	match	tablier	4	1	y	0.6032500000000001
176.9349	0.0	+	21	noun	list	3	7	match	tablier	4	1	y	0.6032500000000001
177.3349	0.2	tablier	21	noun	list	3	8	match	tablier	4	1	y	0.6032500000000001
177.5349	0.0	+	21	noun	list	3	9	match	tablier	4	1	y	0.6032500000000001
177.9349	0.2	ainsi	21	noun	list	3	10	match	tablier	4	1	y	0.6032500000000001
178.13490000000002	0.0	+	21	noun	list	3	11	match	tablier	4	1	y	0.6032500000000001
178.53480000000002	0.0	+	21	noun	list	3	12	match	tablier	4	1	y	0.6032500000000001
180.5513	0.0	TABLIER	21	noun	list	3	13	match	tablier	4	1	y	0.6032500000000001
181.21790000000001	0.0	+	21	noun	list	3	14	match	tablier	4	1	y	0.6032500000000001
181.15460000000002	0.0	[response]	21	noun	list	3	15	match	tablier	4	1	y	0.6032500000000001
182.9511	0.0	+	22	noun	list	1	1	nomatch	doit	-1	1	p	0.73279
183.5011	0.2	zqmvtks	22	noun	list	1	2	nomatch	doit	-1	1	p	0.73279
183.7011	0.0	+	22	noun	list	1	3	nomatch	doit	-1	1	p	0.73279
184.1011	0.2	dtnl	22	noun	list	1	4	nomatch	doit	-1	1	p	0.73279
184.30100000000002	0.0	+	22	noun	list	1	5	nomatch	doit	-1	1	p	0.73279
184.701	0.2	ms	22	noun	list	1	6	nomatch	doit	-1	1	p	0.73279
184.901	0.0	+	22	noun	list	1	7	nomatch	doit	-1	1	p	0.73279
185.30100000000002	0.2	vjmqxk	22	noun	list	1	8	nomatch	doit	-1	1	p	0.73279
185.501	0.0	+	22	noun	list	1	9	nomatch	doit	-1	1	p	0.73279
185.9009	0.2	tard	22	noun	list	1	10	nomatch	doit	-1	1	p	0.73279
186.1009	0.0	+	22	noun	list	1	11	nomatch	doit	-1	1	p	0.73279
186.5009	0.0	+	22	noun	list	1	12	nomatch	doit	-1	1	p	0.73279
188.5007	0.0	DOIT	22	noun	list	1	13	nomatch	doit	-1	1	p	0.73279
189.3007	0.0	+	22	noun	list	1	14	nomatch	doit	-1	1	p	0.73279
189.23350000000002	0.0	[response]	22	noun	list	1	15	nomatch	doit	-1	1	p	0.73279
198.8999	0.0	+	23	noun	list	1	1	nomatch	boîtier	-1	1	p	0.56537
199.4499	0.2	vsnj	23	noun	list	1	2	nomatch	boîtier	-1	1	p	0.56537
199.6499	0.0	+	23	noun	list	1	3	nomatch	boîtier	-1	1	p	0.56537
200.0498	0.2	frjv	23	noun	list	1	4	nomatch	boîtier	-1	1	p	0.56537
200.2498	0.0	+	23	noun	list	1	5	nomatch	boîtier	-1	1	p	0.56537
200.64980000000003	0.2	mwvt	23	noun	list	1	6	nomatch	boîtier	-1	1	p	0.56537
200.84980000000002	0.0	+	23	noun	list	1	7	nomatch	boîtier	-1	1	p	0.56537
201.24990000000003	0.2	qdgrc	23	noun	list	1	8	nomatch	boîtier	-1	1	p	0.56537
201.4497	0.0	+	23	noun	list	1	9	nomatch	boîtier	-1	1	p	0.56537
201.84969999999998	0.2	sablier	23	noun	list	1	10	nomatch	boîtier	-1	1	p	0.56537
202.04970000000003	0.0	+	23	noun	list	1	11	nomatch	boîtier	-1	1	p	0.56537
202.4497	0.0	+	23	noun	list	1	12	nomatch	boîtier	-1	1	p	0.56537
204.4495	0.0	BOÎTIER	23	noun	list	1	13	nomatch	boîtier	-1	1	p	0.56537
205.08280000000002	0.0	+	23	noun	list	1	14	nomatch	boîtier	-1	1	p	0.56537
205.0149	0.0	[response]	23	noun	list	1	15	nomatch	boîtier	-1	1	p	0.56537
206.84930000000003	0.0	+	24	noun	list	2	1	match	grenier	5	1	y	0.633
207.39929999999998	0.2	clpjm	24	noun	list	2	2	match	grenier	5	1	y	0.633
207.59930000000003	0.0	+	24	noun	list	2	3	match	grenier	5	1	y	0.633
207.99920000000003	0.2	kvlx	24	noun	list	2	4	match	grenier	5	1	y	0.633
208.19920000000002	0.0	+	24	noun	list	2	5	match	grenier	5	1	y	0.633
208.5992	0.2	hkq	24	noun	list	2	6	match	grenier	5	1	y	0.633
208.79919999999998	0.0	+	24	noun	list	2	7	match	grenier	5	1	y	0.633
209.1991	0.2	mieux	24	noun	list	2	8	match	grenier	5	1	y	0.633
209.39910000000003	0.0	+	24	noun	list	2	9	match	grenier	5	1	y	0.633
209.7991	0.2	grenier	24	noun	list	2	10	match	grenier	5	1	y	0.633
209.9991	0.0	+	24	noun	list	2	11	match	grenier	5	1	y	0.633
210.399	0.0	+	24	noun	list	2	12	match	grenier	5	1	y	0.633
212.39890000000003	0.0	GRENIER	24	noun	list	2	13	match	grenier	5	1	y	0.633
213.09879999999998	0.0	+	24	noun	list	2	14	match	grenier	5	1	y	0.633
213.0319	0.0	[response]	24	noun	list	2	15	match	grenier	5	1	y	0.633
222.79810000000003	0.0	+	25	noun	phrase	4	1	nomatch	moins	-1	1	p	0.76085
223.348	0.2	mwflgc	25	noun	phrase	4	2	nomatch	moins	-1	1	p	0.76085
223.548	0.0	+	25	noun	phrase	4	3	nomatch	moins	-1	1	p	0.76085
223.94799999999998	0.2	dans	25	noun	phrase	4	4	nomatch	moins	-1	1	p	0.76085
224.14800000000002	0.0	+	25	noun	phrase	4	5	nomatch	moins	-1	1	p	0.76085
224.548	0.2	son	25	noun	phrase	4	6	nomatch	moins	-1	1	p	0.76085
224.74790000000002	0.0	+	25	noun	phrase	4	7	nomatch	moins	-1	1	p	0.76085
225.1479	0.2	nouveau	25	noun	phrase	4	8	nomatch	moins	-1	1	p	0.76085
225.34789999999998	0.0	+	25	noun	phrase	4	9	nomatch	moins	-1	1	p	0.76085
225.74790000000002	0.2	clavier	25	noun	phrase	4	10	nomatch	moins	-1	1	p	0.76085
225.94780000000003	0.0	+	25	noun	phrase	4	11	nomatch	moins	-1	1	p	0.76085
226.3478	0.0	+	25	noun	phrase	4	12	nomatch	moins	-1	1	p	0.76085
228.34770000000003	0.0	MOINS	25	noun	phrase	4	13	nomatch	moins	-1	1	p	0.76085
229.16430000000003	0.0	+	25	noun	phrase	4	14	nomatch	moins	-1	1	p	0.76085
229.10850000000005	0.0	[response]	25	noun	phrase	4	15	nomatch	moins	-1	1	p	0.76085
254.74560000000002	0.0	+	26	noun	phrase	2	1	nomatch	doit	-1	1	p	1.3378
255.29560000000004	0.2	dsclwtj	26	noun	phrase	2	2	nomatch	doit	-1	1	p	1.3378
255.49560000000002	0.0	+	26	noun	phrase	2	3	nomatch	doit	-1	1	p	1.3378
255.89550000000003	0.2	chdk	26	noun	phrase	2	4	nomatch	doit	-1	1	p	1.3378
256.0955	0.0	+	26	noun	phrase	2	5	nomatch	doit	-1	1	p	1.3378
256.4955	0.2	hkq	26	noun	phrase	2	6	nomatch	doit	-1	1	p	1.3378
256.6955	0.0	+	26	noun	phrase	2	7	nomatch	doit	-1	1	p	1.3378
257.0954	0.2	boîtier	26	noun	phrase	2	8	nomatch	doit	-1	1	p	1.3378
257.29540000000003	0.0	+	26	noun	phrase	2	9	nomatch	doit	-1	1	p	1.3378
257.6954	0.2	blanc	26	noun	phrase	2	10	nomatch	doit	-1	1	p	1.3378
257.8954	0.0	+	26	noun	phrase	2	11	nomatch	doit	-1	1	p	1.3378
258.29540000000003	0.0	+	26	noun	phrase	2	12	nomatch	doit	-1	1	p	1.3378
260.2952	0.0	DOIT	26	noun	phrase	2	13	nomatch	doit	-1	1	p	1.3378
261.6951	0.0	+	26	noun	phrase	2	14	nomatch	doit	-1	1	p	1.3378
261.633	0.0	[response]	26	noun	phrase	2	15	nomatch	doit	-1	1	p	1.3378
262.695	0.0	+	27	verb	list	1	1	match	voyager	5	1	y	0.45806
263.245	0.2	vjm	27	verb	list	1	2	match	voyager	5	1	y	0.45806
263.445	0.0	+	27	verb	list	1	3	match	voyager	5	1	y	0.45806
263.8449	0.2	fjcz	27	verb	list	1	4	match	voyager	5	1	y	0.45806
264.0449	0.0	+	27	verb	list	1	5	match	voyager	5	1	y	0.45806
264.4449	0.2	lnfq	27	verb	list	1	6	match	voyager	5	1	y	0.45806
264.6449	0.0	+	27	verb	list	1	7	match	voyager	5	1	y	0.45806
265.0448	0.2	ljskz	27	verb	list	1	8	match	voyager	5	1	y	0.45806
265.2448	0.0	+	27	verb	list	1	9	match	voyager	5	1	y	0.45806
265.64480000000003	0.2	voyager	27	verb	list	1	10	match	voyager	5	1	y	0.45806
265.8448	0.0	+	27	verb	list	1	11	match	voyager	5	1	y	0.45806
266.2447	0.0	+	27	verb	list	1	12	match	voyager	5	1	y	0.45806
268.2446	0.0	VOYAGER	27	verb	list	1	13	match	voyager	5	1	y	0.45806
268.76120000000003	0.0	+	27	verb	list	1	14	match	voyager	5	1	y	0.45806
268.7027	0.0	[response]	27	verb	list	1	15	match	voyager	5	1	y	0.45806
278.6438	0.0	+	28	noun	phrase	1	1	nomatch	luc	-1	1	p	0.87901
279.19370000000004	0.2	qpks	28	noun	phrase	1	2	nomatch	luc	-1	1	p	0.87901
279.3937	0.0	+	28	noun	phrase	1	3	nomatch	luc	-1	1	p	0.87901
279.7937	0.2	ngcx	28	noun	phrase	1	4	nomatch	luc	-1	1	p	0.87901
279.9937	0.0	+	28	noun	phrase	1	5	nomatch	luc	-1	1	p	0.87901
280.3937	0.2	hkq	28	noun	phrase	1	6	nomatch	luc	-1	1	p	0.87901
280.5936	0.0	+	28	noun	phrase	1	7	nomatch	luc	-1	1	p	0.87901
280.9936	0.2	qdpbcrgw	28	noun	phrase	1	8	nomatch	luc	-1	1	p	0.87901
281.1936	0.0	+	28	noun	phrase	1	9	nomatch	luc	-1	1	p	0.87901
281.5936	0.2	vert	28	noun	phrase	1	10	nomatch	luc	-1	1	p	0.87901
281.7935	0.0	+	28	noun	phrase	1	11	nomatch	luc	-1	1	p	0.87901
282.19350000000003	0.0	+	28	noun	phrase	1	12	nomatch	luc	-1	1	p	0.87901
284.1934	0.0	LUC	28	noun	phrase	1	13	nomatch	luc	-1	1	p	0.87901
285.1266	0.0	+	28	noun	phrase	1	14	nomatch	luc	-1	1	p	0.87901
285.0724000000001	0.0	[response]	28	noun	phrase	1	15	nomatch	luc	-1	1	p	0.87901
286.5932	0.0	+	29	noun	phrase	1	1	nomatch	bleu	-1	1	p	0.554
287.1431	0.2	klg	29	noun	phrase	1	2	nomatch	bleu	-1	1	p	0.554
287.3431	0.0	+	29	noun	phrase	1	3	nomatch	bleu	-1	1	p	0.554
287.7431	0.2	lnfq	29	noun	phrase	1	4	nomatch	bleu	-1	1	p	0.554
287.9431	0.0	+	29	noun	phrase	1	5	nomatch	bleu	-1	1	p	0.554
288.343	0.2	mwvt	29	noun	phrase	1	6	nomatch	bleu	-1	1	p	0.554
288.543	0.0	+	29	noun	phrase	1	7	nomatch	bleu	-1	1	p	0.554
288.943	0.2	ftqx	29	noun	phrase	1	8	nomatch	bleu	-1	1	p	0.554
289.14300000000003	0.0	+	29	noun	phrase	1	9	nomatch	bleu	-1	1	p	0.554
289.54290000000003	0.2	tablier	29	noun	phrase	1	10	nomatch	bleu	-1	1	p	0.554
289.7429	0.0	+	29	noun	phrase	1	11	nomatch	bleu	-1	1	p	0.554
290.1429	0.0	+	29	noun	phrase	1	12	nomatch	bleu	-1	1	p	0.554
292.1427	0.0	BLEU	29	noun	phrase	1	13	nomatch	bleu	-1	1	p	0.554
292.7594	0.0	+	29	noun	phrase	1	14	nomatch	bleu	-1	1	p	0.554
292.6967	0.0	[response]	29	noun	phrase	1	15	nomatch	bleu	-1	1	p	0.554
294.5426	0.0	+	30	noun	phrase	1	1	match	grenier	5	1	y	0.51919
295.09250000000003	0.2	kwt	30	noun	phrase	1	2	match	grenier	5	1	y	0.51919
295.2925	0.0	+	30	noun	phrase	1	3	match	grenier	5	1	y	0.51919
295.6925	0.2	ngcx	30	noun	phrase	1	4	match	grenier	5	1	y	0.51919
295.8925	0.0	+	30	noun	phrase	1	5	match	grenier	5	1	y	0.51919
296.2924	0.2	psl	30	noun	phrase	1	6	match	grenier	5	1	y	0.51919
296.49240000000003	0.0	+	30	noun	phrase	1	7	match	grenier	5	1	y	0.51919
296.8924	0.2	qvgx	30	noun	phrase	1	8	match	grenier	5	1	y	0.51919
297.0924	0.0	+	30	noun	phrase	1	9	match	grenier	5	1	y	0.51919
297.4923	0.2	grenier	30	noun	phrase	1	10	match	grenier	5	1	y	0.51919
297.6923	0.0	+	30	noun	phrase	1	11	match	grenier	5	1	y	0.51919
298.0923	0.0	+	30	noun	phrase	1	12	match	grenier	5	1	y	0.51919
300.0921	0.0	GRENIER	30	noun	phrase	1	13	match	grenier	5	1	y	0.51919
300.6754	0.0	+	30	noun	phrase	1	14	match	grenier	5	1	y	0.51919
300.6113	0.0	[response]	30	noun	phrase	1	15	match	grenier	5	1	y	0.51919
302.492	0.0	+	31	noun	list	2	1	nomatch	pour	-1	1	p	0.65817
303.0419	0.2	hnpqcgr	31	noun	list	2	2	nomatch	pour	-1	1	p	0.65817
303.2419	0.0	+	31	noun	list	2	3	nomatch	pour	-1	1	p	0.65817
303.6419	0.2	mrzd	31	noun	list	2	4	nomatch	pour	-1	1	p	0.65817
303.84180000000003	0.0	+	31	noun	list	2	5	nomatch	pour	-1	1	p	0.65817
304.2418	0.2	hkq	31	noun	list	2	6	nomatch	pour	-1	1	p	0.65817
304.4418	0.0	+	31	noun	list	2	7	nomatch	pour	-1	1	p	0.65817
304.84180000000003	0.2	moins	31	noun	list	2	8	nomatch	pour	-1	1	p	0.65817
305.0418	0.0	+	31	noun	list	2	9	nomatch	pour	-1	1	p	0.65817
305.4417	0.2	sablier	31	noun	list	2	10	nomatch	pour	-1	1	p	0.65817
305.6417	0.0	+	31	noun	list	2	11	nomatch	pour	-1	1	p	0.65817
306.0417	0.0	+	31	noun	list	2	12	nomatch	pour	-1	1	p	0.65817
308.0415	0.0	POUR	31	noun	list	2	13	nomatch	pour	-1	1	p	0.65817
308.7581	0.0	+	31	noun	list	2	14	nomatch	pour	-1	1	p	0.65817
308.69970000000006	0.0	[response]	31	noun	list	2	15	nomatch	pour	-1	1	p	0.65817
310.4413	0.0	+	32	noun	list	3	1	match	peut	3	1	y	0.59125
310.9913	0.2	rmtbws	32	noun	list	3	2	match	peut	3	1	y	0.59125
311.1913	0.0	+	32	noun	list	3	3	match	peut	3	1	y	0.59125
311.5912	0.2	fjcz	32	noun	list	3	4	match	peut	3	1	y	0.59125
311.7912	0.0	+	32	noun	list	3	5	match	peut	3	1	y	0.59125
312.1912	0.2	peut	32	noun	list	3	6	match	peut	3	1	y	0.59125
312.3912	0.0	+	32	noun	list	3	7	match	peut	3	1	y	0.59125
312.7912	0.2	cendrier	32	noun	list	3	8	match	peut	3	1	y	0.59125
312.9911	0.0	+	32	noun	list	3	9	match	peut	3	1	y	0.59125
313.3911	0.2	vite	32	noun	list	3	10	match	peut	3	1	y	0.59125
313.5911	0.0	+	32	noun	list	3	11	match	peut	3	1	y	0.59125
313.9911	0.0	+	32	noun	list	3	12	match	peut	3	1	y	0.59125
315.9909	0.0	PEUT	32	noun	list	3	13	match	peut	3	1	y	0.59125
316.6409	0.0	+	32	noun	list	3	14	match	peut	3	1	y	0.59125
316.5822	0.0	[response]	32	noun	list	3	15	match	peut	3	1	y	0.59125
334.3895	0.0	+	33	verb	phrase	1	1	match	galoper	5	1	y	0.45143
334.93940000000003	0.2	lwhgxkc	33	verb	phrase	1	2	match	galoper	5	1	y	0.45143
335.1394	0.0	+	33	verb	phrase	1	3	match	galoper	5	1	y	0.45143
335.5394	0.2	kjs	33	verb	phrase	1	4	match	galoper	5	1	y	0.45143
335.7394	0.0	+	33	verb	phrase	1	5	match	galoper	5	1	y	0.45143
336.1394	0.2	ms	33	verb	phrase	1	6	match	galoper	5	1	y	0.45143
336.3393	0.0	+	33	verb	phrase	1	7	match	galoper	5	1	y	0.45143
336.7393	0.2	nfg	33	verb	phrase	1	8	match	galoper	5	1	y	0.45143
336.9393	0.0	+	33	verb	phrase	1	9	match	galoper	5	1	y	0.45143
337.3393	0.2	galoper	33	verb	phrase	1	10	match	galoper	5	1	y	0.45143
337.5392	0.0	+	33	verb	phrase	1	11	match	galoper	5	1	y	0.45143
337.9392	0.0	+	33	verb	phrase	1	12	match	galoper	5	1	y	0.45143
339.9391	0.0	GALOPER	33	verb	phrase	1	13	match	galoper	5	1	y	0.45143
340.45570000000004	0.0	+	33	verb	phrase	1	14	match	galoper	5	1	y	0.45143
340.39050000000003	0.0	[response]	33	verb	phrase	1	15	match	galoper	5	1	y	0.45143
350.3383	0.0	+	34	verb	list	4	1	match	danser	4	1	y	0.59077
350.8882	0.2	snxpcr	34	verb	list	4	2	match	danser	4	1	y	0.59077
351.08820000000003	0.0	+	34	verb	list	4	3	match	danser	4	1	y	0.59077
351.4882	0.2	marc	34	verb	list	4	4	match	danser	4	1	y	0.59077
351.6882	0.0	+	34	verb	list	4	5	match	danser	4	1	y	0.59077
352.0881	0.2	son	34	verb	list	4	6	match	danser	4	1	y	0.59077
352.2881	0.0	+	34	verb	list	4	7	match	danser	4	1	y	0.59077
352.6881	0.2	danser	34	verb	list	4	8	match	danser	4	1	y	0.59077
352.8881	0.0	+	34	verb	list	4	9	match	danser	4	1	y	0.59077
353.288	0.2	vert	34	verb	list	4	10	match	danser	4	1	y	0.59077
353.488	0.0	+	34	verb	list	4	11	match	danser	4	1	y	0.59077
353.88800000000003	0.0	+	34	verb	list	4	12	match	danser	4	1	y	0.59077
355.8878	0.0	DANSER	34	verb	list	4	13	match	danser	4	1	y	0.59077
356.5378	0.0	+	34	verb	list	4	14	match	danser	4	1	y	0.59077
356.4786000000001	0.0	[response]	34	verb	list	4	15	match	danser	4	1	y	0.59077
358.2876	0.0	+	35	noun	phrase	1	1	match	tablier	5	1	y	0.62149
358.8376	0.2	pxvbfm	35	noun	phrase	1	2	match	tablier	5	1	y	0.62149
359.0376	0.0	+	35	noun	phrase	1	3	match	tablier	5	1	y	0.62149
359.43760000000003	0.2	dtnl	35	noun	phrase	1	4	match	tablier	5	1	y	0.62149
359.6375	0.0	+	35	noun	phrase	1	5	match	tablier	5	1	y	0.62149
360.0375	0.2	psl	35	noun	phrase	1	6	match	tablier	5	1	y	0.62149
360.2375	0.0	+	35	noun	phrase	1	7	match	tablier	5	1	y	0.62149
360.6375	0.2	cmjwknr	35	noun	phrase	1	8	match	tablier	5	1	y	0.62149
360.83750000000003	0.0	+	35	noun	phrase	1	9	match	tablier	5	1	y	0.62149
361.2374	0.2	tablier	35	noun	phrase	1	10	match	tablier	5	1	y	0.62149
361.4374	0.0	+	35	noun	phrase	1	11	match	tablier	5	1	y	0.62149
361.8374	0.0	+	35	noun	phrase	1	12	match	tablier	5	1	y	0.62149
363.8372	0.0	TABLIER	35	noun	phrase	1	13	match	tablier	5	1	y	0.62149
364.5205	0.0	+	35	noun	phrase	1	14	match	tablier	5	1	y	0.62149
364.4587	0.0	[response]	35	noun	phrase	1	15	match	tablier	5	1	y	0.62149
366.237	0.0	+	36	verb	list	2	1	match	vert	5	1	y	0.58737
366.78700000000003	0.2	zmlqxt	36	verb	list	2	2	match	vert	5	1	y	0.58737
366.987	0.0	+	36	verb	list	2	3	match	vert	5	1	y	0.58737
367.387	0.2	cnjt	36	verb	list	2	4	match	vert	5	1	y	0.58737
367.5869	0.0	+	36	verb	list	2	5	match	vert	5	1	y	0.58737
367.9869	0.2	hkq	36	verb	list	2	6	match	vert	5	1	y	0.58737
368.1869	0.0	+	36	verb	list	2	7	match	vert	5	1	y	0.58737
368.5869	0.2	patiner	36	verb	list	2	8	match	vert	5	1	y	0.58737
368.7868	0.0	+	36	verb	list	2	9	match	vert	5	1	y	0.58737
369.1868	0.2	vert	36	verb	list	2	10	match	vert	5	1	y	0.58737
369.3868	0.0	+	36	verb	list	2	11	match	vert	5	1	y	0.58737
369.7868	0.0	+	36	verb	list	2	12	match	vert	5	1	y	0.58737
371.7866	0.0	VERT	36	verb	list	2	13	match	vert	5	1	y	0.58737
372.4366	0.0	+	36	verb	list	2	14	match	vert	5	1	y	0.58737
372.374	0.0	[response]	36	verb	list	2	15	match	vert	5	1	y	0.58737
374.1864	0.0	+	37	noun	list	1	1	nomatch	grenier	-1	1	p	0.74869
374.7364	0.2	qhcjrlx	37	noun	list	1	2	nomatch	grenier	-1	1	p	0.74869
374.9364	0.0	+	37	noun	list	1	3	nomatch	grenier	-1	1	p	0.74869
375.3363	0.2	frjv	37	noun	list	1	4	nomatch	grenier	-1	1	p	0.74869
375.5363	0.0	+	37	noun	list	1	5	nomatch	grenier	-1	1	p	0.74869
375.9363	0.2	mwvt	37	noun	list	1	6	nomatch	grenier	-1	1	p	0.74869
376.1363	0.0	+	37	noun	list	1	7	nomatch	grenier	-1	1	p	0.74869
376.5362	0.2	drlbmhz	37	noun	list	1	8	nomatch	grenier	-1	1	p	0.74869
376.7362	0.0	+	37	noun	list	1	9	nomatch	grenier	-1	1	p	0.74869
377.13620000000003	0.2	moins	37	noun	list	1	10	nomatch	grenier	-1	1	p	0.74869
377.3362	0.0	+	37	noun	list	1	11	nomatch	grenier	-1	1	p	0.74869
377.7362	0.0	+	37	noun	list	1	12	nomatch	grenier	-1	1	p	0.74869
379.736	0.0	GRENIER	37	noun	list	1	13	nomatch	grenier	-1	1	p	0.74869
380.5526	0.0	+	37	noun	list	1	14	nomatch	grenier	-1	1	p	0.74869
380.48470000000003	0.0	[response]	37	noun	list	1	15	nomatch	grenier	-1	1	p	0.74869
382.1358	0.0	+	38	noun	list	2	1	nomatch	yves	-1	1	p	0.84487
382.68580000000003	0.2	jkfszw	38	noun	list	2	2	nomatch	yves	-1	1	p	0.84487
382.8858	0.0	+	38	noun	list	2	3	nomatch	yves	-1	1	p	0.84487
383.2857	0.2	dtnl	38	noun	list	2	4	nomatch	yves	-1	1	p	0.84487
383.4857	0.0	+	38	noun	list	2	5	nomatch	yves	-1	1	p	0.84487
383.8857	0.2	qgkm	38	noun	list	2	6	nomatch	yves	-1	1	p	0.84487
384.08570000000003	0.0	+	38	noun	list	2	7	nomatch	yves	-1	1	p	0.84487
384.48560000000003	0.2	sablier	38	noun	list	2	8	nomatch	yves	-1	1	p	0.84487
384.6856	0.0	+	38	noun	list	2	9	nomatch	yves	-1	1	p	0.84487
385.0856	0.2	vite	38	noun	list	2	10	nomatch	yves	-1	1	p	0.84487
385.2856	0.0	+	38	noun	list	2	11	nomatch	yves	-1	1	p	0.84487
385.6855	0.0	+	38	noun	list	2	12	nomatch	yves	-1	1	p	0.84487
387.6854	0.0	YVES	38	noun	list	2	13	nomatch	yves	-1	1	p	0.84487
388.5853	0.0	+	38	noun	list	2	14	nomatch	yves	-1	1	p	0.84487
388.5302	0.0	[response]	38	noun	list	2	15	nomatch	yves	-1	1	p	0.84487
390.0852	0.0	+	39	verb	list	2	1	nomatch	grenier	-1	1	p	0.57629
390.6352	0.2	xsnhr	39	verb	list	2	2	nomatch	grenier	-1	1	p	0.57629
390.8351	0.0	+	39	verb	list	2	3	nomatch	grenier	-1	1	p	0.57629
391.2351	0.2	chdk	39	verb	list	2	4	nomatch	grenier	-1	1	p	0.57629
391.43510000000003	0.0	+	39	verb	list	2	5	nomatch	grenier	-1	1	p	0.57629
391.8351	0.2	lnfq	39	verb	list	2	6	nomatch	grenier	-1	1	p	0.57629
392.0351	0.0	+	39	verb	list	2	7	nomatch	grenier	-1	1	p	0.57629
392.435	0.2	vieux	39	verb	list	2	8	nomatch	grenier	-1	1	p	0.57629
392.635	0.0	+	39	verb	list	2	9	nomatch	grenier	-1	1	p	0.57629
393.035	0.2	rouler	39	verb	list	2	10	nomatch	grenier	-1	1	p	0.57629
393.235	0.0	+	39	verb	list	2	11	nomatch	grenier	-1	1	p	0.57629
393.6349	0.0	+	39	verb	list	2	12	nomatch	grenier	-1	1	p	0.57629
395.6514	0.0	GRENIER	39	verb	list	2	13	nomatch	grenier	-1	1	p	0.57629
396.2847	0.0	+	39	verb	list	2	14	nomatch	grenier	-1	1	p	0.57629
396.2277	0.0	[response]	39	verb	list	2	15	nomatch	grenier	-1	1	p	0.57629
406.05060000000003	0.0	+	40	verb	phrase	1	1	match	chasser	5	1	y	0.6782
406.6006	0.2	dsvpwq	40	verb	phrase	1	2	match	chasser	5	1	y	0.6782
406.80060000000003	0.0	+	40	verb	phrase	1	3	match	chasser	5	1	y	0.6782
407.20050000000003	0.2	kvlx	40	verb	phrase	1	4	match	chasser	5	1	y	0.6782
407.4005	0.0	+	40	verb	phrase	1	5	match	chasser	5	1	y	0.6782
407.8005	0.2	qgkm	40	verb	phrase	1	6	match	chasser	5	1	y	0.6782
408.0005	0.0	+	40	verb	phrase	1	7	match	chasser	5	1	y	0.6782
408.4005	0.2	wkjvd	40	verb	phrase	1	8	match	chasser	5	1	y	0.6782
408.6004	0.0	+	40	verb	phrase	1	9	match	chasser	5	1	y	0.6782
409.0004	0.2	chasser	40	verb	phrase	1	10	match	chasser	5	1	y	0.6782
409.2004	0.0	+	40	verb	phrase	1	11	match	chasser	5	1	y	0.6782
409.6004	0.0	+	40	verb	phrase	1	12	match	chasser	5	1	y	0.6782
411.60020000000003	0.0	CHASSER	40	verb	phrase	1	13	match	chasser	5	1	y	0.6782
412.3335	0.0	+	40	verb	phrase	1	14	match	chasser	5	1	y	0.6782
412.27840000000003	0.0	[response]	40	verb	phrase	1	15	match	chasser	5	1	y	0.6782
414.0	0.0	+	41	noun	list	1	1	nomatch	marc	-1	1	p	0.60017
414.55	0.2	tpjndl	41	noun	list	1	2	nomatch	marc	-1	1	p	0.60017
414.75	0.0	+	41	noun	list	1	3	nomatch	marc	-1	1	p	0.60017
415.1499	0.2	mrzd	41	noun	list	1	4	nomatch	marc	-1	1	p	0.60017
415.3499	0.0	+	41	noun	list	1	5	nomatch	marc	-1	1	p	0.60017
415.7499	0.2	hkq	41	noun	list	1	6	nomatch	marc	-1	1	p	0.60017
415.9499	0.0	+	41	noun	list	1	7	nomatch	marc	-1	1	p	0.60017
416.3498	0.2	phrwb	41	noun	list	1	8	nomatch	marc	-1	1	p	0.60017
416.5498	0.0	+	41	noun	list	1	9	nomatch	marc	-1	1	p	0.60017
416.9498	0.2	rocher	41	noun	list	1	10	nomatch	marc	-1	1	p	0.60017
417.1498	0.0	+	41	noun	list	1	11	nomatch	marc	-1	1	p	0.60017
417.5498	0.0	+	41	noun	list	1	12	nomatch	marc	-1	1	p	0.60017
419.5496	0.0	MARC	41	noun	list	1	13	nomatch	marc	-1	1	p	0.60017
420.2162	0.0	+	41	noun	list	1	14	nomatch	marc	-1	1	p	0.60017
420.1498	0.0	[response]	41	noun	list	1	15	nomatch	marc	-1	1	p	0.60017
421.9494	0.0	+	42	verb	phrase	1	1	nomatch	ainsi	-1	1	p	0.59131
422.4994	0.2	pvw	42	verb	phrase	1	2	nomatch	ainsi	-1	1	p	0.59131
422.6994	0.0	+	42	verb	phrase	1	3	nomatch	ainsi	-1	1	p	0.59131
423.0993	0.2	frjv	42	verb	phrase	1	4	nomatch	ainsi	-1	1	p	0.59131
423.2993	0.0	+	42	verb	phrase	1	5	nomatch	ainsi	-1	1	p	0.59131
423.6993	0.2	qgkm	42	verb	phrase	1	6	nomatch	ainsi	-1	1	p	0.59131
423.8993	0.0	+	42	verb	phrase	1	7	nomatch	ainsi	-1	1	p	0.59131
424.2992	0.2	cfjvpt	42	verb	phrase	1	8	nomatch	ainsi	-1	1	p	0.59131
424.49920000000003	0.0	+	42	verb	phrase	1	9	nomatch	ainsi	-1	1	p	0.59131
424.8992	0.2	vite	42	verb	phrase	1	10	nomatch	ainsi	-1	1	p	0.59131
425.0992	0.0	+	42	verb	phrase	1	11	nomatch	ainsi	-1	1	p	0.59131
425.4991	0.0	+	42	verb	phrase	1	12	nomatch	ainsi	-1	1	p	0.59131
427.499	0.0	AINSI	42	verb	phrase	1	13	nomatch	ainsi	-1	1	p	0.59131
428.1489	0.0	+	42	verb	phrase	1	14	nomatch	ainsi	-1	1	p	0.59131
428.0903	0.0	[response]	42	verb	phrase	1	15	nomatch	ainsi	-1	1	p	0.59131
437.89820000000003	0.0	+	43	noun	list	1	1	match	trop	5	1	y	0.58572
438.4481	0.2	gmxbwh	43	noun	list	1	2	match	trop	5	1	y	0.58572
438.6481	0.0	+	43	noun	list	1	3	match	trop	5	1	y	0.58572
439.04810000000003	0.2	kjs	43	noun	list	1	4	match	trop	5	1	y	0.58572
439.2481	0.0	+	43	noun	list	1	5	match	trop	5	1	y	0.58572
439.6481	0.2	mwvt	43	noun	list	1	6	match	trop	5	1	y	0.58572
439.848	0.0	+	43	noun	list	1	7	match	trop	5	1	y	0.58572
440.248	0.2	psmcxl	43	noun	list	1	8	match	trop	5	1	y	0.58572
440.448	0.0	+	43	noun	list	1	9	match	trop	5	1	y	0.58572
440.848	0.2	trop	43	noun	list	1	10	match	trop	5	1	y	0.58572
441.0479	0.0	+	43	noun	list	1	11	match	trop	5	1	y	0.58572
441.4479	0.0	+	43	noun	list	1	12	match	trop	5	1	y	0.58572
443.44780000000003	0.0	TROP	43	noun	list	1	13	match	trop	5	1	y	0.58572
444.09770000000003	0.0	+	43	noun	list	1	14	match	trop	5	1	y	0.58572
444.0335	0.0	[response]	43	noun	list	1	15	match	trop	5	1	y	0.58572
445.8476	0.0	+	44	verb	list	1	1	match	vieux	5	1	y	0.67222
446.3975	0.2	bhlksvz	44	verb	list	1	2	match	vieux	5	1	y	0.67222
446.5975	0.0	+	44	verb	list	1	3	match	vieux	5	1	y	0.67222
446.9975	0.2	fjcz	44	verb	list	1	4	match	vieux	5	1	y	0.67222
447.1975	0.0	+	44	verb	list	1	5	match	vieux	5	1	y	0.67222
447.5974	0.2	qgkm	44	verb	list	1	6	match	vieux	5	1	y	0.67222
447.7974	0.0	+	44	verb	list	1	7	match	vieux	5	1	y	0.67222
448.1974	0.2	dshcq	44	verb	list	1	8	match	vieux	5	1	y	0.67222
448.3974	0.0	+	44	verb	list	1	9	match	vieux	5	1	y	0.67222
448.7973	0.2	vieux	44	verb	list	1	10	match	vieux	5	1	y	0.67222
448.9973	0.0	+	44	verb	list	1	11	match	vieux	5	1	y	0.67222
449.39730000000003	0.0	+	44	verb	list	1	12	match	vieux	5	1	y	0.67222
451.3971	0.0	VIEUX	44	verb	list	1	13	match	vieux	5	1	y	0.67222
452.1304	0.0	+	44	verb	list	1	14	match	vieux	5	1	y	0.67222
452.06940000000003	0.0	[response]	44	verb	list	1	15	match	vieux	5	1	y	0.67222
461.7963	0.0	+	45	verb	list	1	1	nomatch	blanc	-1	1	p	0.54465
462.34630000000004	0.2	wgdlkq	45	verb	list	1	2	nomatch	blanc	-1	1	p	0.54465
462.5463	0.0	+	45	verb	list	1	3	nomatch	blanc	-1	1	p	0.54465
462.94629999999995	0.2	frjv	45	verb	list	1	4	nomatch	blanc	-1	1	p	0.54465
463.1462	0.0	+	45	verb	list	1	5	nomatch	blanc	-1	1	p	0.54465
463.5462	0.2	hkq	45	verb	list	1	6	nomatch	blanc	-1	1	p	0.54465
463.74620000000004	0.0	+	45	verb	list	1	7	nomatch	blanc	-1	1	p	0.54465
464.1462	0.2	fvjzng	45	verb	list	1	8	nomatch	blanc	-1	1	p	0.54465
464.3461	0.0	+	45	verb	list	1	9	nomatch	blanc	-1	1	p	0.54465
464.74609999999996	0.2	vert	45	verb	list	1	10	nomatch	blanc	-1	1	p	0.54465
464.9461	0.0	+	45	verb	list	1	11	nomatch	blanc	-1	1	p	0.54465
465.3461	0.0	+	45	verb	list	1	12	nomatch	blanc	-1	1	p	0.54465
467.34590000000003	0.0	BLANC	45	verb	list	1	13	nomatch	blanc	-1	1	p	0.54465
467.94590000000005	0.0	+	45	verb	list	1	14	nomatch	blanc	-1	1	p	0.54465
467.89060000000006	0.0	[response]	45	verb	list	1	15	nomatch	blanc	-1	1	p	0.54465
469.74570000000006	0.0	+	46	verb	list	1	1	nomatch	mon	-1	1	p	0.65794
470.2957	0.2	fqs	46	verb	list	1	2	nomatch	mon	-1	1	p	0.65794
470.49570000000006	0.0	+	46	verb	list	1	3	nomatch	mon	-1	1	p	0.65794
470.89560000000006	0.2	xfct	46	verb	list	1	4	nomatch	mon	-1	1	p	0.65794
471.0956	0.0	+	46	verb	list	1	5	nomatch	mon	-1	1	p	0.65794
471.49559999999997	0.2	mwvt	46	verb	list	1	6	nomatch	mon	-1	1	p	0.65794
471.6956	0.0	+	46	verb	list	1	7	nomatch	mon	-1	1	p	0.65794
472.0955	0.2	cvrz	46	verb	list	1	8	nomatch	mon	-1	1	p	0.65794
472.29550000000006	0.0	+	46	verb	list	1	9	nomatch	mon	-1	1	p	0.65794
472.69550000000004	0.2	nager	46	verb	list	1	10	nomatch	mon	-1	1	p	0.65794
472.89549999999997	0.0	+	46	verb	list	1	11	nomatch	mon	-1	1	p	0.65794
473.29550000000006	0.0	+	46	verb	list	1	12	nomatch	mon	-1	1	p	0.65794
475.2953	0.0	MON	46	verb	list	1	13	nomatch	mon	-1	1	p	0.65794
476.01189999999997	0.0	+	46	verb	list	1	14	nomatch	mon	-1	1	p	0.65794
475.95320000000004	0.0	[response]	46	verb	list	1	15	nomatch	mon	-1	1	p	0.65794
477.6951	0.0	+	47	noun	phrase	2	1	match	vieux	4	1	y	0.84747
478.2451	0.2	rczp	47	noun	phrase	2	2	match	vieux	4	1	y	0.84747
478.4451	0.0	+	47	noun	phrase	2	3	match	vieux	4	1	y	0.84747
478.845	0.2	lnfq	47	noun	phrase	2	4	match	vieux	4	1	y	0.84747
479.04499999999996	0.0	+	47	noun	phrase	2	5	match	vieux	4	1	y	0.84747
479.44500000000005	0.2	psl	47	noun	phrase	2	6	match	vieux	4	1	y	0.84747
479.645	0.0	+	47	noun	phrase	2	7	match	vieux	4	1	y	0.84747
480.0449	0.2	vieux	47	noun	phrase	2	8	match	vieux	4	1	y	0.84747
480.24490000000003	0.0	+	47	noun	phrase	2	9	match	vieux	4	1	y	0.84747
480.6449	0.2	cendrier	47	noun	phrase	2	10	match	vieux	4	1	y	0.84747
480.84490000000005	0.0	+	47	noun	phrase	2	11	match	vieux	4	1	y	0.84747
481.24480000000005	0.0	+	47	noun	phrase	2	12	match	vieux	4	1	y	0.84747
483.24469999999997	0.0	VIEUX	47	noun	phrase	2	13	match	vieux	4	1	y	0.84747
484.1613	0.0	+	47	noun	phrase	2	14	match	vieux	4	1	y	0.84747
484.09220000000005	0.0	[response]	47	noun	phrase	2	15	match	vieux	4	1	y	0.84747
493.64390000000003	0.0	+	48	verb	list	3	1	nomatch	moins	-1	1	p	0.56356
494.1938	0.2	xtkp	48	verb	list	3	2	nomatch	moins	-1	1	p	0.56356
494.39380000000006	0.0	+	48	verb	list	3	3	nomatch	moins	-1	1	p	0.56356
494.79380000000003	0.2	dtnl	48	verb	list	3	4	nomatch	moins	-1	1	p	0.56356
494.99379999999996	0.0	+	48	verb	list	3	5	nomatch	moins	-1	1	p	0.56356
495.39380000000006	0.2	doit	48	verb	list	3	6	nomatch	moins	-1	1	p	0.56356
495.5937	0.0	+	48	verb	list	3	7	nomatch	moins	-1	1	p	0.56356
495.9937	0.2	petit	48	verb	list	3	8	nomatch	moins	-1	1	p	0.56356
496.19370000000004	0.0	+	48	verb	list	3	9	nomatch	moins	-1	1	p	0.56356
496.5937	0.2	plonger	48	verb	list	3	10	nomatch	moins	-1	1	p	0.56356
496.79359999999997	0.0	+	48	verb	list	3	11	nomatch	moins	-1	1	p	0.56356
497.19360000000006	0.0	+	48	verb	list	3	12	nomatch	moins	-1	1	p	0.56356
499.1935	0.0	MOINS	48	verb	list	3	13	nomatch	moins	-1	1	p	0.56356
499.82669999999996	0.0	+	48	verb	list	3	14	nomatch	moins	-1	1	p	0.56356
499.75700000000006	0.0	[response]	48	verb	list	3	15	nomatch	moins	-1	1	p	0.56356
501.5933	0.0	+	49	noun	phrase	3	1	match	grand	4	1	y	0.7611
502.1432	0.2	pvqlnt	49	noun	phrase	3	2	match	grand	4	1	y	0.7611
502.3432	0.0	+	49	noun	phrase	3	3	match	grand	4	1	y	0.7611
502.7432	0.2	lnfq	49	noun	phrase	3	4	match	grand	4	1	y	0.7611
502.94320000000005	0.0	+	49	noun	phrase	3	5	match	grand	4	1	y	0.7611
503.34310000000005	0.2	mon	49	noun	phrase	3	6	match	grand	4	1	y	0.7611
503.5431	0.0	+	49	noun	phrase	3	7	match	grand	4	1	y	0.7611
503.94309999999996	0.2	grand	49	noun	phrase	3	8	match	grand	4	1	y	0.7611
504.1431	0.0	+	49	noun	phrase	3	9	match	grand	4	1	y	0.7611
504.543	0.2	grenier	49	noun	phrase	3	10	match	grand	4	1	y	0.7611
504.74300000000005	0.0	+	49	noun	phrase	3	11	match	grand	4	1	y	0.7611
505.14300000000003	0.0	+	49	noun	phrase	3	12	match	grand	4	1	y	0.7611
507.14279999999997	0.0	GRAND	49	noun	phrase	3	13	match	grand	4	1	y	0.7611
507.95939999999996	0.0	+	49	noun	phrase	3	14	match	grand	4	1	y	0.7611
507.9039	0.0	[response]	49	noun	phrase	3	15	match	grand	4	1	y	0.7611
509.54269999999997	0.0	+	50	noun	list	2	1	nomatch	mieux	-1	1	p	0.5837600000000001
510.09260000000006	0.2	msg	50	noun	list	2	2	nomatch	mieux	-1	1	p	0.5837600000000001
510.2926	0.0	+	50	noun	list	2	3	nomatch	mieux	-1	1	p	0.5837600000000001
510.69259999999997	0.2	frjv	50	noun	list	2	4	nomatch	mieux	-1	1	p	0.5837600000000001
510.8926	0.0	+	50	noun	list	2	5	nomatch	mieux	-1	1	p	0.5837600000000001
511.2925	0.2	hkq	50	noun	list	2	6	nomatch	mieux	-1	1	p	0.5837600000000001
511.49250000000006	0.0	+	50	noun	list	2	7	nomatch	mieux	-1	1	p	0.5837600000000001
511.89250000000004	0.2	moins	50	noun	list	2	8	nomatch	mieux	-1	1	p	0.5837600000000001
512.0925	0.0	+	50	noun	list	2	9	nomatch	mieux	-1	1	p	0.5837600000000001
512.4924	0.2	cendrier	50	noun	list	2	10	nomatch	mieux	-1	1	p	0.5837600000000001
512.6924	0.0	+	50	noun	list	2	11	nomatch	mieux	-1	1	p	0.5837600000000001
513.0924	0.0	+	50	noun	list	2	12	nomatch	mieux	-1	1	p	0.5837600000000001
515.0922	0.0	MIEUX	50	noun	list	2	13	nomatch	mieux	-1	1	p	0.5837600000000001
515.7422	0.0	+	50	noun	list	2	14	nomatch	mieux	-1	1	p	0.5837600000000001
515.676	0.0	[response]	50	noun	list	2	15	nomatch	mieux	-1	1	p	0.5837600000000001
517.4921	0.0	+	51	noun	phrase	2	1	match	grand	4	1	y	0.57483
518.042	0.2	rntqkhs	51	noun	phrase	2	2	match	grand	4	1	y	0.57483
518.242	0.0	+	51	noun	phrase	2	3	match	grand	4	1	y	0.57483
518.642	0.2	ngcx	51	noun	phrase	2	4	match	grand	4	1	y	0.57483
518.8419	0.0	+	51	noun	phrase	2	5	match	grand	4	1	y	0.57483
519.2419	0.2	mwvt	51	noun	phrase	2	6	match	grand	4	1	y	0.57483
519.4419	0.0	+	51	noun	phrase	2	7	match	grand	4	1	y	0.57483
519.8419	0.2	grand	51	noun	phrase	2	8	match	grand	4	1	y	0.57483
520.0419	0.0	+	51	noun	phrase	2	9	match	grand	4	1	y	0.57483
520.4418000000001	0.2	boîtier	51	noun	phrase	2	10	match	grand	4	1	y	0.57483
520.6418	0.0	+	51	noun	phrase	2	11	match	grand	4	1	y	0.57483
521.0418	0.0	+	51	noun	phrase	2	12	match	grand	4	1	y	0.57483
523.0416	0.0	GRAND	51	noun	phrase	2	13	match	grand	4	1	y	0.57483
523.6749	0.0	+	51	noun	phrase	2	14	match	grand	4	1	y	0.57483
523.6165	0.0	[response]	51	noun	phrase	2	15	match	grand	4	1	y	0.57483
533.4408	0.0	+	52	noun	list	4	1	nomatch	tôt	-1	1	p	0.92779
533.9908	0.2	fjm	52	noun	list	4	2	nomatch	tôt	-1	1	p	0.92779
534.1908	0.0	+	52	noun	list	4	3	nomatch	tôt	-1	1	p	0.92779
534.5907	0.2	luc	52	noun	list	4	4	nomatch	tôt	-1	1	p	0.92779
534.7907	0.0	+	52	noun	list	4	5	nomatch	tôt	-1	1	p	0.92779
535.1907	0.2	son	52	noun	list	4	6	nomatch	tôt	-1	1	p	0.92779
535.3907	0.0	+	52	noun	list	4	7	nomatch	tôt	-1	1	p	0.92779
535.7906	0.2	beaucoup	52	noun	list	4	8	nomatch	tôt	-1	1	p	0.92779
535.9906	0.0	+	52	noun	list	4	9	nomatch	tôt	-1	1	p	0.92779
536.3906000000001	0.2	cendrier	52	noun	list	4	10	nomatch	tôt	-1	1	p	0.92779
536.5906	0.0	+	52	noun	list	4	11	nomatch	tôt	-1	1	p	0.92779
536.9906	0.0	+	52	noun	list	4	12	nomatch	tôt	-1	1	p	0.92779
538.9904	0.0	TÔT	52	noun	list	4	13	nomatch	tôt	-1	1	p	0.92779
539.9736	0.0	+	52	noun	list	4	14	nomatch	tôt	-1	1	p	0.92779
539.9182	0.0	[response]	52	noun	list	4	15	nomatch	tôt	-1	1	p	0.92779
541.3902	0.0	+	53	verb	list	1	1	nomatch	patiner	-1	1	p	0.59313
541.9402	0.2	vpjqc	53	verb	list	1	2	nomatch	patiner	-1	1	p	0.59313
542.1401	0.0	+	53	verb	list	1	3	nomatch	patiner	-1	1	p	0.59313
542.5401	0.2	lnfq	53	verb	list	1	4	nomatch	patiner	-1	1	p	0.59313
542.7401	0.0	+	53	verb	list	1	5	nomatch	patiner	-1	1	p	0.59313
543.1401	0.2	qgkm	53	verb	list	1	6	nomatch	patiner	-1	1	p	0.59313
543.3401	0.0	+	53	verb	list	1	7	nomatch	patiner	-1	1	p	0.59313
543.74	0.2	ljskz	53	verb	list	1	8	nomatch	patiner	-1	1	p	0.59313
543.94	0.0	+	53	verb	list	1	9	nomatch	patiner	-1	1	p	0.59313
544.34	0.2	galoper	53	verb	list	1	10	nomatch	patiner	-1	1	p	0.59313
544.54	0.0	+	53	verb	list	1	11	nomatch	patiner	-1	1	p	0.59313
544.9399	0.0	+	53	verb	list	1	12	nomatch	patiner	-1	1	p	0.59313
546.9398	0.0	PATINER	53	verb	list	1	13	nomatch	patiner	-1	1	p	0.59313
547.5897	0.0	+	53	verb	list	1	14	nomatch	patiner	-1	1	p	0.59313
547.5329	0.0	[response]	53	verb	list	1	15	nomatch	patiner	-1	1	p	0.59313
549.3396	0.0	+	54	noun	phrase	4	1	nomatch	luc	-1	1	p	1.0619
549.8896	0.2	vmhjb	54	noun	phrase	4	2	nomatch	luc	-1	1	p	1.0619
550.0895	0.0	+	54	noun	phrase	4	3	nomatch	luc	-1	1	p	1.0619
550.4895	0.2	sur	54	noun	phrase	4	4	nomatch	luc	-1	1	p	1.0619
550.6895	0.0	+	54	noun	phrase	4	5	nomatch	luc	-1	1	p	1.0619
551.0895	0.2	son	54	noun	phrase	4	6	nomatch	luc	-1	1	p	1.0619
551.2894	0.0	+	54	noun	phrase	4	7	nomatch	luc	-1	1	p	1.0619
551.6894	0.2	nouveau	54	noun	phrase	4	8	nomatch	luc	-1	1	p	1.0619
551.8894	0.0	+	54	noun	phrase	4	9	nomatch	luc	-1	1	p	1.0619
552.2894	0.2	boîtier	54	noun	phrase	4	10	nomatch	luc	-1	1	p	1.0619
552.4894	0.0	+	54	noun	phrase	4	11	nomatch	luc	-1	1	p	1.0619
552.8893	0.0	+	54	noun	phrase	4	12	nomatch	luc	-1	1	p	1.0619
554.8892	0.0	LUC	54	noun	phrase	4	13	nomatch	luc	-1	1	p	1.0619
556.0057	0.0	+	54	noun	phrase	4	14	nomatch	luc	-1	1	p	1.0619
555.9511000000001	0.0	[response]	54	noun	phrase	4	15	nomatch	luc	-1	1	p	1.0619
557.289	0.0	+	55	verb	list	1	1	nomatch	ainsi	-1	1	p	0.72296
557.8389	0.2	zqt	55	verb	list	1	2	nomatch	ainsi	-1	1	p	0.72296
558.0389	0.0	+	55	verb	list	1	3	nomatch	ainsi	-1	1	p	0.72296
558.4389	0.2	jkvt	55	verb	list	1	4	nomatch	ainsi	-1	1	p	0.72296
558.6389	0.0	+	55	verb	list	1	5	nomatch	ainsi	-1	1	p	0.72296
559.0389	0.2	psl	55	verb	list	1	6	nomatch	ainsi	-1	1	p	0.72296
559.2388	0.0	+	55	verb	list	1	7	nomatch	ainsi	-1	1	p	0.72296
559.6388000000001	0.2	ftxvqrb	55	verb	list	1	8	nomatch	ainsi	-1	1	p	0.72296
559.8388	0.0	+	55	verb	list	1	9	nomatch	ainsi	-1	1	p	0.72296
560.2388	0.2	blanc	55	verb	list	1	10	nomatch	ainsi	-1	1	p	0.72296
560.4387	0.0	+	55	verb	list	1	11	nomatch	ainsi	-1	1	p	0.72296
560.8387	0.0	+	55	verb	list	1	12	nomatch	ainsi	-1	1	p	0.72296
562.8386	0.0	AINSI	55	verb	list	1	13	nomatch	ainsi	-1	1	p	0.72296
563.6218	0.0	+	55	verb	list	1	14	nomatch	ainsi	-1	1	p	0.72296
563.5615000000001	0.0	[response]	55	verb	list	1	15	nomatch	ainsi	-1	1	p	0.72296
565.2384	0.0	+	56	noun	phrase	3	1	nomatch	plonger	-1	1	p	0.67704
565.7883	0.2	gmzkptj	56	noun	phrase	3	2	nomatch	plonger	-1	1	p	0.67704
565.9883	0.0	+	56	noun	phrase	3	3	nomatch	plonger	-1	1	p	0.67704
566.3883	0.2	dtnl	56	noun	phrase	3	4	nomatch	plonger	-1	1	p	0.67704
566.5883	0.0	+	56	noun	phrase	3	5	nomatch	plonger	-1	1	p	0.67704
566.9882	0.2	son	56	noun	phrase	3	6	nomatch	plonger	-1	1	p	0.67704
567.1882	0.0	+	56	noun	phrase	3	7	nomatch	plonger	-1	1	p	0.67704
567.5882	0.2	beau	56	noun	phrase	3	8	nomatch	plonger	-1	1	p	0.67704
567.7882	0.0	+	56	noun	phrase	3	9	nomatch	plonger	-1	1	p	0.67704
568.1881	0.2	clavier	56	noun	phrase	3	10	nomatch	plonger	-1	1	p	0.67704
568.3881	0.0	+	56	noun	phrase	3	11	nomatch	plonger	-1	1	p	0.67704
568.7881	0.0	+	56	noun	phrase	3	12	nomatch	plonger	-1	1	p	0.67704
570.7879	0.0	PLONGER	56	noun	phrase	3	13	nomatch	plonger	-1	1	p	0.67704
571.5212	0.0	+	56	noun	phrase	3	14	nomatch	plonger	-1	1	p	0.67704
571.4650000000001	0.0	[response]	56	noun	phrase	3	15	nomatch	plonger	-1	1	p	0.67704
573.1878	0.0	+	57	verb	list	3	1	match	rouler	5	1	y	0.6548
573.7377	0.2	bxzg	57	verb	list	3	2	match	rouler	5	1	y	0.6548
573.9377000000001	0.0	+	57	verb	list	3	3	match	rouler	5	1	y	0.6548
574.3377	0.2	lnfq	57	verb	list	3	4	match	rouler	5	1	y	0.6548
574.5377	0.0	+	57	verb	list	3	5	match	rouler	5	1	y	0.6548
574.9376	0.2	doit	57	verb	list	3	6	match	rouler	5	1	y	0.6548
575.1376	0.0	+	57	verb	list	3	7	match	rouler	5	1	y	0.6548
575.5376	0.2	vieux	57	verb	list	3	8	match	rouler	5	1	y	0.6548
575.7376	0.0	+	57	verb	list	3	9	match	rouler	5	1	y	0.6548
576.1375	0.2	rouler	57	verb	list	3	10	match	rouler	5	1	y	0.6548
576.3375	0.0	+	57	verb	list	3	11	match	rouler	5	1	y	0.6548
576.7375	0.0	+	57	verb	list	3	12	match	rouler	5	1	y	0.6548
578.7373	0.0	ROULER	57	verb	list	3	13	match	rouler	5	1	y	0.6548
579.4539	0.0	+	57	verb	list	3	14	match	rouler	5	1	y	0.6548
579.3921	0.0	[response]	57	verb	list	3	15	match	rouler	5	1	y	0.6548
581.1371	0.0	+	58	verb	list	2	1	match	patiner	5	1	y	0.5280500000000001
581.6871	0.2	zbw	58	verb	list	2	2	match	patiner	5	1	y	0.5280500000000001
581.8871	0.0	+	58	verb	list	2	3	match	patiner	5	1	y	0.5280500000000001
582.2871	0.2	dtnl	58	verb	list	2	4	match	patiner	5	1	y	0.5280500000000001
582.4871	0.0	+	58	verb	list	2	5	match	patiner	5	1	y	0.5280500000000001
582.8870000000001	0.2	ms	58	verb	list	2	6	match	patiner	5	1	y	0.5280500000000001
583.087	0.0	+	58	verb	list	2	7	match	patiner	5	1	y	0.5280500000000001
583.487	0.2	grand	58	verb	list	2	8	match	patiner	5	1	y	0.5280500000000001
583.6869	0.0	+	58	verb	list	2	9	match	patiner	5	1	y	0.5280500000000001
584.0869	0.2	patiner	58	verb	list	2	10	match	patiner	5	1	y	0.5280500000000001
584.2869000000001	0.0	+	58	verb	list	2	11	match	patiner	5	1	y	0.5280500000000001
584.6869	0.0	+	58	verb	list	2	12	match	patiner	5	1	y	0.5280500000000001
586.6867	0.0	PATINER	58	verb	list	2	13	match	patiner	5	1	y	0.5280500000000001
587.27	0.0	+	58	verb	list	2	14	match	patiner	5	1	y	0.5280500000000001
587.2148	0.0	[response]	58	verb	list	2	15	match	patiner	5	1	y	0.5280500000000001
589.0865	0.0	+	59	verb	phrase	4	1	match	doit	3	1	y	1.302
589.6365	0.2	hvxfdpw	59	verb	phrase	4	2	match	doit	3	1	y	1.302
589.8365	0.0	+	59	verb	phrase	4	3	match	doit	3	1	y	1.302
590.2364	0.2	luc	59	verb	phrase	4	4	match	doit	3	1	y	1.302
590.4364	0.0	+	59	verb	phrase	4	5	match	doit	3	1	y	1.302
590.8364	0.2	doit	59	verb	phrase	4	6	match	doit	3	1	y	1.302
591.0364	0.0	+	59	verb	phrase	4	7	match	doit	3	1	y	1.302
591.4364	0.2	galoper	59	verb	phrase	4	8	match	doit	3	1	y	1.302
591.6363	0.0	+	59	verb	phrase	4	9	match	doit	3	1	y	1.302
592.0363	0.2	tard	59	verb	phrase	4	10	match	doit	3	1	y	1.302
592.2363	0.0	+	59	verb	phrase	4	11	match	doit	3	1	y	1.302
592.6363	0.0	+	59	verb	phrase	4	12	match	doit	3	1	y	1.302
594.6361	0.0	DOIT	59	verb	phrase	4	13	match	doit	3	1	y	1.302
596.0027	0.0	+	59	verb	phrase	4	14	match	doit	3	1	y	1.302
595.9381	0.0	[response]	59	verb	phrase	4	15	match	doit	3	1	y	1.302
597.0359	0.0	+	60	verb	list	2	1	match	bleu	5	1	y	0.50839
597.5859	0.2	scfm	60	verb	list	2	2	match	bleu	5	1	y	0.50839
597.7859	0.0	+	60	verb	list	2	3	match	bleu	5	1	y	0.50839
598.1858	0.2	xfct	60	verb	list	2	4	match	bleu	5	1	y	0.50839
598.3858	0.0	+	60	verb	list	2	5	match	bleu	5	1	y	0.50839
598.7858	0.2	psl	60	verb	list	2	6	match	bleu	5	1	y	0.50839
598.9858	0.0	+	60	verb	list	2	7	match	bleu	5	1	y	0.50839
599.3857	0.2	voyager	60	verb	list	2	8	match	bleu	5	1	y	0.50839
599.5857	0.0	+	60	verb	list	2	9	match	bleu	5	1	y	0.50839
599.9857	0.2	bleu	60	verb	list	2	10	match	bleu	5	1	y	0.50839
600.1857	0.0	+	60	verb	list	2	11	match	bleu	5	1	y	0.50839
600.5856	0.0	+	60	verb	list	2	12	match	bleu	5	1	y	0.50839
602.5855	0.0	BLEU	60	verb	list	2	13	match	bleu	5	1	y	0.50839
603.1521	0.0	+	60	verb	list	2	14	match	bleu	5	1	y	0.50839
603.0939	0.0	[response]	60	verb	list	2	15	match	bleu	5	1	y	0.50839
604.9862	0.0	+	61	noun	phrase	1	1	match	blanc	5	1	y	0.78374
605.5353	0.2	dtqcmkh	61	noun	phrase	1	2	match	blanc	5	1	y	0.78374
605.7352	0.0	+	61	noun	phrase	1	3	match	blanc	5	1	y	0.78374
606.1352	0.2	chdk	61	noun	phrase	1	4	match	blanc	5	1	y	0.78374
606.3352	0.0	+	61	noun	phrase	1	5	match	blanc	5	1	y	0.78374
606.7352	0.2	mwvt	61	noun	phrase	1	6	match	blanc	5	1	y	0.78374
606.9352	0.0	+	61	noun	phrase	1	7	match	blanc	5	1	y	0.78374
607.3351	0.2	vjmqxk	61	noun	phrase	1	8	match	blanc	5	1	y	0.78374
607.5351	0.0	+	61	noun	phrase	1	9	match	blanc	5	1	y	0.78374
607.9351	0.2	blanc	61	noun	phrase	1	10	match	blanc	5	1	y	0.78374
608.1351	0.0	+	61	noun	phrase	1	11	match	blanc	5	1	y	0.78374
608.535	0.0	+	61	noun	phrase	1	12	match	blanc	5	1	y	0.78374
610.5349	0.0	BLANC	61	noun	phrase	1	13	match	blanc	5	1	y	0.78374
611.3848	0.0	+	61	noun	phrase	1	14	match	blanc	5	1	y	0.78374
611.3186000000001	0.0	[response]	61	noun	phrase	1	15	match	blanc	5	1	y	0.78374
612.9513000000001	0.0	+	62	verb	phrase	4	1	nomatch	plus	-1	1	p	0.71168
613.5013	0.2	cgqmhn	62	verb	phrase	4	2	nomatch	plus	-1	1	p	0.71168
613.7013000000001	0.0	+	62	verb	phrase	4	3	nomatch	plus	-1	1	p	0.71168
614.1013	0.2	marc	62	verb	phrase	4	4	nomatch	plus	-1	1	p	0.71168
614.3013	0.0	+	62	verb	phrase	4	5	nomatch	plus	-1	1	p	0.71168
614.7012	0.2	peut	62	verb	phrase	4	6	nomatch	plus	-1	1	p	0.71168
614.9012	0.0	+	62	verb	phrase	4	7	nomatch	plus	-1	1	p	0.71168
615.3012	0.2	voyager	62	verb	phrase	4	8	nomatch	plus	-1	1	p	0.71168
615.5012	0.0	+	62	verb	phrase	4	9	nomatch	plus	-1	1	p	0.71168
615.9011	0.2	ainsi	62	verb	phrase	4	10	nomatch	plus	-1	1	p	0.71168
616.1011	0.0	+	62	verb	phrase	4	11	nomatch	plus	-1	1	p	0.71168
616.5011	0.0	+	62	verb	phrase	4	12	nomatch	plus	-1	1	p	0.71168
618.5009	0.0	PLUS	62	verb	phrase	4	13	nomatch	plus	-1	1	p	0.71168
619.2675	0.0	+	62	verb	phrase	4	14	nomatch	plus	-1	1	p	0.71168
619.2126	0.0	[response]	62	verb	phrase	4	15	nomatch	plus	-1	1	p	0.71168
620.9007	0.0	+	63	noun	phrase	3	1	match	leur	3	1	y	0.61094
621.4507	0.2	jfbgrhm	63	noun	phrase	3	2	match	leur	3	1	y	0.61094
621.6507	0.0	+	63	noun	phrase	3	3	match	leur	3	1	y	0.61094
622.0507	0.2	ngcx	63	noun	phrase	3	4	match	leur	3	1	y	0.61094
622.2506	0.0	+	63	noun	phrase	3	5	match	leur	3	1	y	0.61094
622.6506	0.2	leur	63	noun	phrase	3	6	match	leur	3	1	y	0.61094
622.8506	0.0	+	63	noun	phrase	3	7	match	leur	3	1	y	0.61094
623.2506	0.2	nouveau	63	noun	phrase	3	8	match	leur	3	1	y	0.61094
623.4505	0.0	+	63	noun	phrase	3	9	match	leur	3	1	y	0.61094
623.8505	0.2	rocher	63	noun	phrase	3	10	match	leur	3	1	y	0.61094
624.0505	0.0	+	63	noun	phrase	3	11	match	leur	3	1	y	0.61094
624.4505	0.0	+	63	noun	phrase	3	12	match	leur	3	1	y	0.61094
626.4503	0.0	LEUR	63	noun	phrase	3	13	match	leur	3	1	y	0.61094
627.1169	0.0	+	63	noun	phrase	3	14	match	leur	3	1	y	0.61094
627.0613000000001	0.0	[response]	63	noun	phrase	3	15	match	leur	3	1	y	0.61094
628.8501	0.0	+	64	verb	phrase	3	1	nomatch	vers	-1	1	p	1.0885
629.4001	0.2	wsdql	64	verb	phrase	3	2	nomatch	vers	-1	1	p	1.0885
629.6001	0.0	+	64	verb	phrase	3	3	nomatch	vers	-1	1	p	1.0885
630.0	0.2	cnjt	64	verb	phrase	3	4	nomatch	vers	-1	1	p	1.0885
630.2	0.0	+	64	verb	phrase	3	5	nomatch	vers	-1	1	p	1.0885
630.6	0.2	va	64	verb	phrase	3	6	nomatch	vers	-1	1	p	1.0885
630.8	0.0	+	64	verb	phrase	3	7	nomatch	vers	-1	1	p	1.0885
631.2	0.2	galoper	64	verb	phrase	3	8	nomatch	vers	-1	1	p	1.0885
631.3999	0.0	+	64	verb	phrase	3	9	nomatch	vers	-1	1	p	1.0885
631.7999	0.2	ainsi	64	verb	phrase	3	10	nomatch	vers	-1	1	p	1.0885
631.9999	0.0	+	64	verb	phrase	3	11	nomatch	vers	-1	1	p	1.0885
632.3999	0.0	+	64	verb	phrase	3	12	nomatch	vers	-1	1	p	1.0885
634.3997	0.0	VERS	64	verb	phrase	3	13	nomatch	vers	-1	1	p	1.0885
635.5496	0.0	+	64	verb	phrase	3	14	nomatch	vers	-1	1	p	1.0885
635.4882	0.0	[response]	64	verb	phrase	3	15	nomatch	vers	-1	1	p	1.0885
636.7995	0.0	+	65	noun	phrase	4	1	match	vert	5	1	y	0.85945
637.3495	0.2	pgwjtr	65	noun	phrase	4	2	match	vert	5	1	y	0.85945
637.5495	0.0	+	65	noun	phrase	4	3	match	vert	5	1	y	0.85945
637.9494	0.2	avec	65	noun	phrase	4	4	match	vert	5	1	y	0.85945
638.1494	0.0	+	65	noun	phrase	4	5	match	vert	5	1	y	0.85945
638.5494	0.2	mon	65	noun	phrase	4	6	match	vert	5	1	y	0.85945
638.7494	0.0	+	65	noun	phrase	4	7	match	vert	5	1	y	0.85945
639.1493	0.2	tablier	65	noun	phrase	4	8	match	vert	5	1	y	0.85945
639.3493	0.0	+	65	noun	phrase	4	9	match	vert	5	1	y	0.85945
639.7493000000001	0.2	vert	65	noun	phrase	4	10	match	vert	5	1	y	0.85945
639.9493	0.0	+	65	noun	phrase	4	11	match	vert	5	1	y	0.85945
640.3492	0.0	+	65	noun	phrase	4	12	match	vert	5	1	y	0.85945
642.3491	0.0	VERT	65	noun	phrase	4	13	match	vert	5	1	y	0.85945
643.2657	0.0	+	65	noun	phrase	4	14	match	vert	5	1	y	0.85945
643.2085	0.0	[response]	65	noun	phrase	4	15	match	vert	5	1	y	0.85945
644.7489	0.0	+	66	verb	phrase	2	1	nomatch	mieux	-1	1	p	0.6784
645.2989	0.2	cpznl	66	verb	phrase	2	2	nomatch	mieux	-1	1	p	0.6784
645.4989	0.0	+	66	verb	phrase	2	3	nomatch	mieux	-1	1	p	0.6784
645.8988	0.2	frjv	66	verb	phrase	2	4	nomatch	mieux	-1	1	p	0.6784
646.0988	0.0	+	66	verb	phrase	2	5	nomatch	mieux	-1	1	p	0.6784
646.4988	0.2	lnfq	66	verb	phrase	2	6	nomatch	mieux	-1	1	p	0.6784
646.6988	0.0	+	66	verb	phrase	2	7	nomatch	mieux	-1	1	p	0.6784
647.0987	0.2	moins	66	verb	phrase	2	8	nomatch	mieux	-1	1	p	0.6784
647.2987	0.0	+	66	verb	phrase	2	9	nomatch	mieux	-1	1	p	0.6784
647.6987	0.2	patiner	66	verb	phrase	2	10	nomatch	mieux	-1	1	p	0.6784
647.8987	0.0	+	66	verb	phrase	2	11	nomatch	mieux	-1	1	p	0.6784
648.2986	0.0	+	66	verb	phrase	2	12	nomatch	mieux	-1	1	p	0.6784
650.2985	0.0	MIEUX	66	verb	phrase	2	13	nomatch	mieux	-1	1	p	0.6784
651.0317	0.0	+	66	verb	phrase	2	14	nomatch	mieux	-1	1	p	0.6784
650.9769	0.0	[response]	66	verb	phrase	2	15	nomatch	mieux	-1	1	p	0.6784
652.6983	0.0	+	67	verb	list	3	1	nomatch	yves	-1	1	p	0.61174
653.2483	0.2	bhvpzl	67	verb	list	3	2	nomatch	yves	-1	1	p	0.61174
653.4482	0.0	+	67	verb	list	3	3	nomatch	yves	-1	1	p	0.61174
653.8482	0.2	fjcz	67	verb	list	3	4	nomatch	yves	-1	1	p	0.61174
654.0482	0.0	+	67	verb	list	3	5	nomatch	yves	-1	1	p	0.61174
654.4482	0.2	va	67	verb	list	3	6	nomatch	yves	-1	1	p	0.61174
654.6481	0.0	+	67	verb	list	3	7	nomatch	yves	-1	1	p	0.61174
655.0481	0.2	grand	67	verb	list	3	8	nomatch	yves	-1	1	p	0.61174
655.2481	0.0	+	67	verb	list	3	9	nomatch	yves	-1	1	p	0.61174
655.6481	0.2	nager	67	verb	list	3	10	nomatch	yves	-1	1	p	0.61174
655.8481	0.0	+	67	verb	list	3	11	nomatch	yves	-1	1	p	0.61174
656.248	0.0	+	67	verb	list	3	12	nomatch	yves	-1	1	p	0.61174
658.2479	0.0	YVES	67	verb	list	3	13	nomatch	yves	-1	1	p	0.61174
658.9145	0.0	+	67	verb	list	3	14	nomatch	yves	-1	1	p	0.61174
658.8596000000001	0.0	[response]	67	verb	list	3	15	nomatch	yves	-1	1	p	0.61174
660.6477	0.0	+	68	verb	phrase	2	1	match	chasser	4	1	y	0.8170900000000001
661.1976	0.2	fck	68	verb	phrase	2	2	match	chasser	4	1	y	0.8170900000000001
661.3976	0.0	+	68	verb	phrase	2	3	match	chasser	4	1	y	0.8170900000000001
661.7976	0.2	kvlx	68	verb	phrase	2	4	match	chasser	4	1	y	0.8170900000000001
661.9976	0.0	+	68	verb	phrase	2	5	match	chasser	4	1	y	0.8170900000000001
662.3975	0.2	qgkm	68	verb	phrase	2	6	match	chasser	4	1	y	0.8170900000000001
662.5975	0.0	+	68	verb	phrase	2	7	match	chasser	4	1	y	0.8170900000000001
662.9975000000001	0.2	chasser	68	verb	phrase	2	8	match	chasser	4	1	y	0.8170900000000001
663.1975	0.0	+	68	verb	phrase	2	9	match	chasser	4	1	y	0.8170900000000001
663.5975	0.2	loin	68	verb	phrase	2	10	match	chasser	4	1	y	0.8170900000000001
663.7974	0.0	+	68	verb	phrase	2	11	match	chasser	4	1	y	0.8170900000000001
664.1974	0.0	+	68	verb	phrase	2	12	match	chasser	4	1	y	0.8170900000000001
666.1973	0.0	CHASSER	68	verb	phrase	2	13	match	chasser	4	1	y	0.8170900000000001
667.0805	0.0	+	68	verb	phrase	2	14	match	chasser	4	1	y	0.8170900000000001
667.0143	0.0	[response]	68	verb	phrase	2	15	match	chasser	4	1	y	0.8170900000000001
668.5971	0.0	+	69	verb	phrase	1	1	nomatch	bleu	-1	1	p	0.58985
669.147	0.2	czsj	69	verb	phrase	1	2	nomatch	bleu	-1	1	p	0.58985
669.347	0.0	+	69	verb	phrase	1	3	nomatch	bleu	-1	1	p	0.58985
669.747	0.2	jkvt	69	verb	phrase	1	4	nomatch	bleu	-1	1	p	0.58985
669.947	0.0	+	69	verb	phrase	1	5	nomatch	bleu	-1	1	p	0.58985
670.3469	0.2	lnfq	69	verb	phrase	1	6	nomatch	bleu	-1	1	p	0.58985
670.5469	0.0	+	69	verb	phrase	1	7	nomatch	bleu	-1	1	p	0.58985
670.9469	0.2	kbmnvdp	69	verb	phrase	1	8	nomatch	bleu	-1	1	p	0.58985
671.1469	0.0	+	69	verb	phrase	1	9	nomatch	bleu	-1	1	p	0.58985
671.5468	0.2	beaucoup	69	verb	phrase	1	10	nomatch	bleu	-1	1	p	0.58985
671.7468	0.0	+	69	verb	phrase	1	11	nomatch	bleu	-1	1	p	0.58985
672.1468	0.0	+	69	verb	phrase	1	12	nomatch	bleu	-1	1	p	0.58985
674.1466	0.0	BLEU	69	verb	phrase	1	13	nomatch	bleu	-1	1	p	0.58985
674.7966	0.0	+	69	verb	phrase	1	14	nomatch	bleu	-1	1	p	0.58985
674.7365	0.0	[response]	69	verb	phrase	1	15	nomatch	bleu	-1	1	p	0.58985
676.5464000000001	0.0	+	70	verb	phrase	2	1	match	rouler	4	1	y	0.51527
677.0964	0.2	dph	70	verb	phrase	2	2	match	rouler	4	1	y	0.51527
677.2964000000001	0.0	+	70	verb	phrase	2	3	match	rouler	4	1	y	0.51527
677.6964	0.2	mrzd	70	verb	phrase	2	4	match	rouler	4	1	y	0.51527
677.8964	0.0	+	70	verb	phrase	2	5	match	rouler	4	1	y	0.51527
678.2963	0.2	ms	70	verb	phrase	2	6	match	rouler	4	1	y	0.51527
678.4963	0.0	+	70	verb	phrase	2	7	match	rouler	4	1	y	0.51527
678.8963	0.2	rouler	70	verb	phrase	2	8	match	rouler	4	1	y	0.51527
679.0963	0.0	+	70	verb	phrase	2	9	match	rouler	4	1	y	0.51527
679.4962	0.2	ainsi	70	verb	phrase	2	10	match	rouler	4	1	y	0.51527
679.6962	0.0	+	70	verb	phrase	2	11	match	rouler	4	1	y	0.51527
680.0962	0.0	+	70	verb	phrase	2	12	match	rouler	4	1	y	0.51527
682.096	0.0	ROULER	70	verb	phrase	2	13	match	rouler	4	1	y	0.51527
682.6793	0.0	+	70	verb	phrase	2	14	match	rouler	4	1	y	0.51527
682.6113	0.0	[response]	70	verb	phrase	2	15	match	rouler	4	1	y	0.51527
684.4958	0.0	+	71	verb	phrase	2	1	nomatch	plus	-1	1	p	0.87723
685.0458	0.2	tjk	71	verb	phrase	2	2	nomatch	plus	-1	1	p	0.87723
685.2458	0.0	+	71	verb	phrase	2	3	nomatch	plus	-1	1	p	0.87723
685.6458	0.2	jkvt	71	verb	phrase	2	4	nomatch	plus	-1	1	p	0.87723
685.8457	0.0	+	71	verb	phrase	2	5	nomatch	plus	-1	1	p	0.87723
686.2457	0.2	lnfq	71	verb	phrase	2	6	nomatch	plus	-1	1	p	0.87723
686.4457	0.0	+	71	verb	phrase	2	7	nomatch	plus	-1	1	p	0.87723
686.8457	0.2	trop	71	verb	phrase	2	8	nomatch	plus	-1	1	p	0.87723
687.0456	0.0	+	71	verb	phrase	2	9	nomatch	plus	-1	1	p	0.87723
687.4456	0.2	chasser	71	verb	phrase	2	10	nomatch	plus	-1	1	p	0.87723
687.6456000000001	0.0	+	71	verb	phrase	2	11	nomatch	plus	-1	1	p	0.87723
688.0456	0.0	+	71	verb	phrase	2	12	nomatch	plus	-1	1	p	0.87723
690.0454	0.0	PLUS	71	verb	phrase	2	13	nomatch	plus	-1	1	p	0.87723
690.9787	0.0	+	71	verb	phrase	2	14	nomatch	plus	-1	1	p	0.87723
690.9226	0.0	[response]	71	verb	phrase	2	15	nomatch	plus	-1	1	p	0.87723
692.4452	0.0	+	72	verb	list	4	1	match	vers	2	1	y	0.66596
692.9952	0.2	fqms	72	verb	list	4	2	match	vers	2	1	y	0.66596
693.1952	0.0	+	72	verb	list	4	3	match	vers	2	1	y	0.66596
693.5951	0.2	vers	72	verb	list	4	4	match	vers	2	1	y	0.66596
693.7951	0.0	+	72	verb	list	4	5	match	vers	2	1	y	0.66596
694.1951	0.2	doit	72	verb	list	4	6	match	vers	2	1	y	0.66596
694.3951	0.0	+	72	verb	list	4	7	match	vers	2	1	y	0.66596
694.795	0.2	grand	72	verb	list	4	8	match	vers	2	1	y	0.66596
694.995	0.0	+	72	verb	list	4	9	match	vers	2	1	y	0.66596
695.395	0.2	rouler	72	verb	list	4	10	match	vers	2	1	y	0.66596
695.595	0.0	+	72	verb	list	4	11	match	vers	2	1	y	0.66596
695.995	0.0	+	72	verb	list	4	12	match	vers	2	1	y	0.66596
697.9948	0.0	VERS	72	verb	list	4	13	match	vers	2	1	y	0.66596
698.7281	0.0	+	72	verb	list	4	14	match	vers	2	1	y	0.66596
698.6608	0.0	[response]	72	verb	list	4	15	match	vers	2	1	y	0.66596
700.3946	0.0	+	73	verb	list	1	1	match	danser	5	1	y	0.5359300000000001
700.9446	0.2	sbz	73	verb	list	1	2	match	danser	5	1	y	0.5359300000000001
701.1446	0.0	+	73	verb	list	1	3	match	danser	5	1	y	0.5359300000000001
701.5445	0.2	xfct	73	verb	list	1	4	match	danser	5	1	y	0.5359300000000001
701.7445	0.0	+	73	verb	list	1	5	match	danser	5	1	y	0.5359300000000001
702.1445	0.2	hkq	73	verb	list	1	6	match	danser	5	1	y	0.5359300000000001
702.3445	0.0	+	73	verb	list	1	7	match	danser	5	1	y	0.5359300000000001
702.7444	0.2	cvrz	73	verb	list	1	8	match	danser	5	1	y	0.5359300000000001
702.9444	0.0	+	73	verb	list	1	9	match	danser	5	1	y	0.5359300000000001
703.3444000000001	0.2	danser	73	verb	list	1	10	match	danser	5	1	y	0.5359300000000001
703.5444	0.0	+	73	verb	list	1	11	match	danser	5	1	y	0.5359300000000001
703.9443	0.0	+	73	verb	list	1	12	match	danser	5	1	y	0.5359300000000001
705.9442	0.0	DANSER	73	verb	list	1	13	match	danser	5	1	y	0.5359300000000001
706.5441	0.0	+	73	verb	list	1	14	match	danser	5	1	y	0.5359300000000001
706.4801	0.0	[response]	73	verb	list	1	15	match	danser	5	1	y	0.5359300000000001
708.344	0.0	+	74	verb	phrase	3	1	match	doit	3	1	y	0.87419
708.894	0.2	bsfnrpw	74	verb	phrase	3	2	match	doit	3	1	y	0.87419
709.0939	0.0	+	74	verb	phrase	3	3	match	doit	3	1	y	0.87419
709.4939	0.2	kvlx	74	verb	phrase	3	4	match	doit	3	1	y	0.87419
709.6939	0.0	+	74	verb	phrase	3	5	match	doit	3	1	y	0.87419
710.0939	0.2	doit	74	verb	phrase	3	6	match	doit	3	1	y	0.87419
710.2939	0.0	+	74	verb	phrase	3	7	match	doit	3	1	y	0.87419
710.6938	0.2	plonger	74	verb	phrase	3	8	match	doit	3	1	y	0.87419
710.8938	0.0	+	74	verb	phrase	3	9	match	doit	3	1	y	0.87419
711.2938	0.2	tôt	74	verb	phrase	3	10	match	doit	3	1	y	0.87419
711.4938	0.0	+	74	verb	phrase	3	11	match	doit	3	1	y	0.87419
711.8937	0.0	+	74	verb	phrase	3	12	match	doit	3	1	y	0.87419
713.8936	0.0	DOIT	74	verb	phrase	3	13	match	doit	3	1	y	0.87419
714.8268	0.0	+	74	verb	phrase	3	14	match	doit	3	1	y	0.87419
714.7678000000001	0.0	[response]	74	verb	phrase	3	15	match	doit	3	1	y	0.87419
716.2934	0.0	+	75	verb	list	1	1	match	patiner	5	1	y	0.53265
716.8433	0.2	ctrw	75	verb	list	1	2	match	patiner	5	1	y	0.53265
717.0433	0.0	+	75	verb	list	1	3	match	patiner	5	1	y	0.53265
717.4433	0.2	jkvt	75	verb	list	1	4	match	patiner	5	1	y	0.53265
717.6433	0.0	+	75	verb	list	1	5	match	patiner	5	1	y	0.53265
718.0433	0.2	psl	75	verb	list	1	6	match	patiner	5	1	y	0.53265
718.2432	0.0	+	75	verb	list	1	7	match	patiner	5	1	y	0.53265
718.6432	0.2	ftqx	75	verb	list	1	8	match	patiner	5	1	y	0.53265
718.8432	0.0	+	75	verb	list	1	9	match	patiner	5	1	y	0.53265
719.2432	0.2	patiner	75	verb	list	1	10	match	patiner	5	1	y	0.53265
719.4432	0.0	+	75	verb	list	1	11	match	patiner	5	1	y	0.53265
719.8431	0.0	+	75	verb	list	1	12	match	patiner	5	1	y	0.53265
721.843	0.0	PATINER	75	verb	list	1	13	match	patiner	5	1	y	0.53265
722.4429	0.0	+	75	verb	list	1	14	match	patiner	5	1	y	0.53265
722.3756	0.0	[response]	75	verb	list	1	15	match	patiner	5	1	y	0.53265
724.2428	0.0	+	76	verb	phrase	4	1	nomatch	tablier	-1	1	p	0.87278
724.7927	0.2	hxwf	76	verb	phrase	4	2	nomatch	tablier	-1	1	p	0.87278
724.9927	0.0	+	76	verb	phrase	4	3	nomatch	tablier	-1	1	p	0.87278
725.3927	0.2	yves	76	verb	phrase	4	4	nomatch	tablier	-1	1	p	0.87278
725.5927	0.0	+	76	verb	phrase	4	5	nomatch	tablier	-1	1	p	0.87278
725.9926	0.2	va	76	verb	phrase	4	6	nomatch	tablier	-1	1	p	0.87278
726.1926	0.0	+	76	verb	phrase	4	7	nomatch	tablier	-1	1	p	0.87278
726.5926000000001	0.2	mieux	76	verb	phrase	4	8	nomatch	tablier	-1	1	p	0.87278
726.7926	0.0	+	76	verb	phrase	4	9	nomatch	tablier	-1	1	p	0.87278
727.1926	0.2	voyager	76	verb	phrase	4	10	nomatch	tablier	-1	1	p	0.87278
727.3925	0.0	+	76	verb	phrase	4	11	nomatch	tablier	-1	1	p	0.87278
727.7925	0.0	+	76	verb	phrase	4	12	nomatch	tablier	-1	1	p	0.87278
729.7924	0.0	TABLIER	76	verb	phrase	4	13	nomatch	tablier	-1	1	p	0.87278
730.7256	0.0	+	76	verb	phrase	4	14	nomatch	tablier	-1	1	p	0.87278
730.6651	0.0	[response]	76	verb	phrase	4	15	nomatch	tablier	-1	1	p	0.87278
732.1922	0.0	+	77	verb	list	3	1	match	mon	3	1	y	0.62108
732.7421	0.2	vhjstpl	77	verb	list	3	2	match	mon	3	1	y	0.62108
732.9421	0.0	+	77	verb	list	3	3	match	mon	3	1	y	0.62108
733.3421	0.2	kjs	77	verb	list	3	4	match	mon	3	1	y	0.62108
733.5421	0.0	+	77	verb	list	3	5	match	mon	3	1	y	0.62108
733.942	0.2	mon	77	verb	list	3	6	match	mon	3	1	y	0.62108
734.142	0.0	+	77	verb	list	3	7	match	mon	3	1	y	0.62108
734.542	0.2	plonger	77	verb	list	3	8	match	mon	3	1	y	0.62108
734.742	0.0	+	77	verb	list	3	9	match	mon	3	1	y	0.62108
735.1419	0.2	vert	77	verb	list	3	10	match	mon	3	1	y	0.62108
735.3419	0.0	+	77	verb	list	3	11	match	mon	3	1	y	0.62108
735.7419	0.0	+	77	verb	list	3	12	match	mon	3	1	y	0.62108
737.7417	0.0	MON	77	verb	list	3	13	match	mon	3	1	y	0.62108
738.425	0.0	+	77	verb	list	3	14	match	mon	3	1	y	0.62108
738.3628	0.0	[response]	77	verb	list	3	15	match	mon	3	1	y	0.62108
740.1416	0.0	+	78	noun	list	3	1	nomatch	peut	-1	1	p	0.70057
740.6915	0.2	fjnc	78	noun	list	3	2	nomatch	peut	-1	1	p	0.70057
740.8915	0.0	+	78	noun	list	3	3	nomatch	peut	-1	1	p	0.70057
741.2915	0.2	dtnl	78	noun	list	3	4	nomatch	peut	-1	1	p	0.70057
741.4915	0.0	+	78	noun	list	3	5	nomatch	peut	-1	1	p	0.70057
741.8914	0.2	va	78	noun	list	3	6	nomatch	peut	-1	1	p	0.70057
742.0914	0.0	+	78	noun	list	3	7	nomatch	peut	-1	1	p	0.70057
742.4914	0.2	casier	78	noun	list	3	8	nomatch	peut	-1	1	p	0.70057
742.6914	0.0	+	78	noun	list	3	9	nomatch	peut	-1	1	p	0.70057
743.0913	0.2	tôt	78	noun	list	3	10	nomatch	peut	-1	1	p	0.70057
743.2913	0.0	+	78	noun	list	3	11	nomatch	peut	-1	1	p	0.70057
743.6913	0.0	+	78	noun	list	3	12	nomatch	peut	-1	1	p	0.70057
745.6911	0.0	PEUT	78	noun	list	3	13	nomatch	peut	-1	1	p	0.70057
746.4577	0.0	+	78	noun	list	3	14	nomatch	peut	-1	1	p	0.70057
746.3917	0.0	[response]	78	noun	list	3	15	nomatch	peut	-1	1	p	0.70057
748.0909	0.0	+	79	verb	phrase	1	1	match	patiner	5	1	y	0.48286
748.6409	0.2	dfrp	79	verb	phrase	1	2	match	patiner	5	1	y	0.48286
748.8409	0.0	+	79	verb	phrase	1	3	match	patiner	5	1	y	0.48286
749.2409	0.2	kjs	79	verb	phrase	1	4	match	patiner	5	1	y	0.48286
749.4408	0.0	+	79	verb	phrase	1	5	match	patiner	5	1	y	0.48286
749.8408000000001	0.2	ms	79	verb	phrase	1	6	match	patiner	5	1	y	0.48286
750.0408	0.0	+	79	verb	phrase	1	7	match	patiner	5	1	y	0.48286
750.4408	0.2	wjrvhplb	79	verb	phrase	1	8	match	patiner	5	1	y	0.48286
750.6407	0.0	+	79	verb	phrase	1	9	match	patiner	5	1	y	0.48286
751.0407	0.2	patiner	79	verb	phrase	1	10	match	patiner	5	1	y	0.48286
751.2407000000001	0.0	+	79	verb	phrase	1	11	match	patiner	5	1	y	0.48286
751.6407	0.0	+	79	verb	phrase	1	12	match	patiner	5	1	y	0.48286
753.6405	0.0	PATINER	79	verb	phrase	1	13	match	patiner	5	1	y	0.48286
754.1905	0.0	+	79	verb	phrase	1	14	match	patiner	5	1	y	0.48286
754.1234000000002	0.0	[response]	79	verb	phrase	1	15	match	patiner	5	1	y	0.48286
756.0403	0.0	+	80	verb	phrase	1	1	match	tard	5	1	y	0.49471
756.5903	0.2	qsgl	80	verb	phrase	1	2	match	tard	5	1	y	0.49471
756.7903	0.0	+	80	verb	phrase	1	3	match	tard	5	1	y	0.49471
757.1902	0.2	jkvt	80	verb	phrase	1	4	match	tard	5	1	y	0.49471
757.3902	0.0	+	80	verb	phrase	1	5	match	tard	5	1	y	0.49471
757.7902	0.2	lnfq	80	verb	phrase	1	6	match	tard	5	1	y	0.49471
757.9902	0.0	+	80	verb	phrase	1	7	match	tard	5	1	y	0.49471
758.3902	0.2	fvjzng	80	verb	phrase	1	8	match	tard	5	1	y	0.49471
758.5901	0.0	+	80	verb	phrase	1	9	match	tard	5	1	y	0.49471
758.9902	0.2	tard	80	verb	phrase	1	10	match	tard	5	1	y	0.49471
759.1901	0.0	+	80	verb	phrase	1	11	match	tard	5	1	y	0.49471
759.5901	0.0	+	80	verb	phrase	1	12	match	tard	5	1	y	0.49471
761.5899000000001	0.0	TARD	80	verb	phrase	1	13	match	tard	5	1	y	0.49471
762.1399	0.0	+	80	verb	phrase	1	14	match	tard	5	1	y	0.49471
763.9897	0.0	+	80	verb	phrase	1	15	match	tard	5	1	y	0.49471
765.0396000000001	0.0	+	80	verb	phrase	1	16	match	tard	5	1	y	0.49471
765.1396	0.0	+	80	verb	phrase	1	17	match	tard	5	1	y	0.49471
766.5395	0.0	+	80	verb	phrase	1	18	match	tard	5	1	y	0.49471
766.6395	0.0	+	80	verb	phrase	1	19	match	tard	5	1	y	0.49471
768.0394	0.0	+	80	verb	phrase	1	20	match	tard	5	1	y	0.49471
768.1394	0.0	+	80	verb	phrase	1	21	match	tard	5	1	y	0.49471
769.5393	0.0	+	80	verb	phrase	1	22	match	tard	5	1	y	0.49471
769.6393	0.0	+	80	verb	phrase	1	23	match	tard	5	1	y	0.49471
771.0225	0.0	+	80	verb	phrase	1	24	match	tard	5	1	y	0.49471
771.1225000000001	0.0	+	80	verb	phrase	1	25	match	tard	5	1	y	0.49471
772.5391	0.0	+	80	verb	phrase	1	26	match	tard	5	1	y	0.49471
772.6391	0.0	+	80	verb	phrase	1	27	match	tard	5	1	y	0.49471
774.0389	0.0	+	80	verb	phrase	1	28	match	tard	5	1	y	0.49471
774.1389	0.0	+	80	verb	phrase	1	29	match	tard	5	1	y	0.49471
775.5388	0.0	+	80	verb	phrase	1	30	match	tard	5	1	y	0.49471
775.6388000000001	0.0	+	80	verb	phrase	1	31	match	tard	5	1	y	0.49471
777.0387000000001	0.0	+	80	verb	phrase	1	32	match	tard	5	1	y	0.49471
777.1387	0.0	+	80	verb	phrase	1	33	match	tard	5	1	y	0.49471
778.5386	0.0	+	80	verb	phrase	1	34	match	tard	5	1	y	0.49471
778.6386	0.0	+	80	verb	phrase	1	35	match	tard	5	1	y	0.49471
783.6215	0.0	+	80	verb	phrase	1	36	match	tard	5	1	y	0.49471
762.0846	0.0	[response]	80	verb	phrase	1	37	match	tard	5	1	y	0.49471
