onset	duration	stim	trial_number	trial_type	trial_structure	trial_length	sequential_position	probe_type	probe	probe_position	response_correct	response_key	response_time
0.05760000000000787	0.0	+	1	noun	phrase	3	1	match	cendrier	5	1	y	0.6621
0.5409000000000077	0.2	gtnwjpk	1	noun	phrase	3	2	match	cendrier	5	1	y	0.6621
0.7409000000000106	0.0	+	1	noun	phrase	3	3	match	cendrier	5	1	y	0.6621
1.140800000000013	0.2	chdk	1	noun	phrase	3	4	match	cendrier	5	1	y	0.6621
1.3408000000000015	0.0	+	1	noun	phrase	3	5	match	cendrier	5	1	y	0.6621
1.7408000000000072	0.2	leur	1	noun	phrase	3	6	match	cendrier	5	1	y	0.6621
1.94080000000001	0.0	+	1	noun	phrase	3	7	match	cendrier	5	1	y	0.6621
2.3407000000000124	0.2	petit	1	noun	phrase	3	8	match	cendrier	5	1	y	0.6621
2.540700000000001	0.0	+	1	noun	phrase	3	9	match	cendrier	5	1	y	0.6621
2.9407000000000068	0.2	cendrier	1	noun	phrase	3	10	match	cendrier	5	1	y	0.6621
3.1407000000000096	0.0	+	1	noun	phrase	3	11	match	cendrier	5	1	y	0.6621
3.5407000000000153	0.0	+	1	noun	phrase	3	12	match	cendrier	5	1	y	0.6621
5.540500000000009	0.0	CENDRIER	1	noun	phrase	3	13	match	cendrier	5	1	y	0.6621
6.257100000000008	0.0	+	1	noun	phrase	3	14	match	cendrier	5	1	y	0.6621
6.2026000000000465	0.0	[response]	1	noun	phrase	3	15	match	cendrier	5	1	y	0.6621
7.940300000000008	0.0	+	2	noun	list	1	1	match	grenier	5	1	y	0.45911
8.490300000000019	0.2	mswgtfl	2	noun	list	1	2	match	grenier	5	1	y	0.45911
8.690300000000008	0.0	+	2	noun	list	1	3	match	grenier	5	1	y	0.45911
9.09020000000001	0.2	frjv	2	noun	list	1	4	match	grenier	5	1	y	0.45911
9.290199999999999	0.0	+	2	noun	list	1	5	match	grenier	5	1	y	0.45911
9.690200000000004	0.2	hkq	2	noun	list	1	6	match	grenier	5	1	y	0.45911
9.890199999999993	0.0	+	2	noun	list	1	7	match	grenier	5	1	y	0.45911
10.290099999999995	0.2	phrwb	2	noun	list	1	8	match	grenier	5	1	y	0.45911
10.490100000000012	0.0	+	2	noun	list	1	9	match	grenier	5	1	y	0.45911
10.890100000000018	0.2	grenier	2	noun	list	1	10	match	grenier	5	1	y	0.45911
11.090100000000007	0.0	+	2	noun	list	1	11	match	grenier	5	1	y	0.45911
11.490000000000009	0.0	+	2	noun	list	1	12	match	grenier	5	1	y	0.45911
13.489900000000006	0.0	GRENIER	2	noun	list	1	13	match	grenier	5	1	y	0.45911
14.006500000000017	0.0	+	2	noun	list	1	14	match	grenier	5	1	y	0.45911
13.94900000000004	0.0	[response]	2	noun	list	1	15	match	grenier	5	1	y	0.45911
23.889100000000013	0.0	+	3	noun	phrase	4	1	match	pour	2	1	y	0.65769
24.438999999999993	0.2	ckhtvn	3	noun	phrase	4	2	match	pour	2	1	y	0.65769
24.63900000000001	0.0	+	3	noun	phrase	4	3	match	pour	2	1	y	0.65769
25.039000000000016	0.2	pour	3	noun	phrase	4	4	match	pour	2	1	y	0.65769
25.239000000000004	0.0	+	3	noun	phrase	4	5	match	pour	2	1	y	0.65769
25.63900000000001	0.2	mon	3	noun	phrase	4	6	match	pour	2	1	y	0.65769
25.838899999999995	0.0	+	3	noun	phrase	4	7	match	pour	2	1	y	0.65769
26.2389	0.2	grand	3	noun	phrase	4	8	match	pour	2	1	y	0.65769
26.438900000000018	0.0	+	3	noun	phrase	4	9	match	pour	2	1	y	0.65769
26.838899999999995	0.2	tablier	3	noun	phrase	4	10	match	pour	2	1	y	0.65769
27.03880000000001	0.0	+	3	noun	phrase	4	11	match	pour	2	1	y	0.65769
27.438800000000015	0.0	+	3	noun	phrase	4	12	match	pour	2	1	y	0.65769
29.43870000000001	0.0	POUR	3	noun	phrase	4	13	match	pour	2	1	y	0.65769
30.15530000000001	0.0	+	3	noun	phrase	4	14	match	pour	2	1	y	0.65769
30.096400000000017	0.0	[response]	3	noun	phrase	4	15	match	pour	2	1	y	0.65769
31.83850000000001	0.0	+	4	noun	phrase	1	1	nomatch	clavier	-1	1	p	0.73003
32.38840000000002	0.2	kdgn	4	noun	phrase	1	2	nomatch	clavier	-1	1	p	0.73003
32.58840000000001	0.0	+	4	noun	phrase	1	3	nomatch	clavier	-1	1	p	0.73003
32.98840000000001	0.2	fjcz	4	noun	phrase	1	4	nomatch	clavier	-1	1	p	0.73003
33.1884	0.0	+	4	noun	phrase	1	5	nomatch	clavier	-1	1	p	0.73003
33.588300000000004	0.2	psl	4	noun	phrase	1	6	nomatch	clavier	-1	1	p	0.73003
33.78829999999999	0.0	+	4	noun	phrase	1	7	nomatch	clavier	-1	1	p	0.73003
34.1883	0.2	xkwgr	4	noun	phrase	1	8	nomatch	clavier	-1	1	p	0.73003
34.388300000000015	0.0	+	4	noun	phrase	1	9	nomatch	clavier	-1	1	p	0.73003
34.78829999999999	0.2	boîtier	4	noun	phrase	1	10	nomatch	clavier	-1	1	p	0.73003
34.988200000000006	0.0	+	4	noun	phrase	1	11	nomatch	clavier	-1	1	p	0.73003
35.38820000000001	0.0	+	4	noun	phrase	1	12	nomatch	clavier	-1	1	p	0.73003
37.38810000000001	0.0	CLAVIER	4	noun	phrase	1	13	nomatch	clavier	-1	1	p	0.73003
38.18800000000002	0.0	+	4	noun	phrase	1	14	nomatch	clavier	-1	1	p	0.73003
38.1181	0.0	[response]	4	noun	phrase	1	15	nomatch	clavier	-1	1	p	0.73003
63.786	0.0	+	5	verb	phrase	1	1	match	mieux	5	1	y	0.42697
64.33600000000001	0.2	scx	5	verb	phrase	1	2	match	mieux	5	1	y	0.42697
64.536	0.0	+	5	verb	phrase	1	3	match	mieux	5	1	y	0.42697
64.9359	0.2	kjs	5	verb	phrase	1	4	match	mieux	5	1	y	0.42697
65.13589999999999	0.0	+	5	verb	phrase	1	5	match	mieux	5	1	y	0.42697
65.5359	0.2	lnfq	5	verb	phrase	1	6	match	mieux	5	1	y	0.42697
65.73590000000002	0.0	+	5	verb	phrase	1	7	match	mieux	5	1	y	0.42697
66.13589999999999	0.2	zkdrhpq	5	verb	phrase	1	8	match	mieux	5	1	y	0.42697
66.3358	0.0	+	5	verb	phrase	1	9	match	mieux	5	1	y	0.42697
66.73580000000001	0.2	mieux	5	verb	phrase	1	10	match	mieux	5	1	y	0.42697
66.9358	0.0	+	5	verb	phrase	1	11	match	mieux	5	1	y	0.42697
67.3358	0.0	+	5	verb	phrase	1	12	match	mieux	5	1	y	0.42697
69.3356	0.0	MIEUX	5	verb	phrase	1	13	match	mieux	5	1	y	0.42697
69.81890000000001	0.0	+	5	verb	phrase	1	14	match	mieux	5	1	y	0.42697
69.76260000000002	0.0	[response]	5	verb	phrase	1	15	match	mieux	5	1	y	0.42697
71.7354	0.0	+	6	noun	phrase	4	1	nomatch	mon	-1	1	p	0.81493
72.28540000000001	0.2	chgdb	6	noun	phrase	4	2	nomatch	mon	-1	1	p	0.81493
72.4854	0.0	+	6	noun	phrase	4	3	nomatch	mon	-1	1	p	0.81493
72.8853	0.2	pour	6	noun	phrase	4	4	nomatch	mon	-1	1	p	0.81493
73.08530000000002	0.0	+	6	noun	phrase	4	5	nomatch	mon	-1	1	p	0.81493
73.4853	0.2	son	6	noun	phrase	4	6	nomatch	mon	-1	1	p	0.81493
73.68530000000001	0.0	+	6	noun	phrase	4	7	nomatch	mon	-1	1	p	0.81493
74.08520000000001	0.2	boîtier	6	noun	phrase	4	8	nomatch	mon	-1	1	p	0.81493
74.2859	0.0	+	6	noun	phrase	4	9	nomatch	mon	-1	1	p	0.81493
74.68520000000001	0.2	bleu	6	noun	phrase	4	10	nomatch	mon	-1	1	p	0.81493
74.8852	0.0	+	6	noun	phrase	4	11	nomatch	mon	-1	1	p	0.81493
75.2851	0.0	+	6	noun	phrase	4	12	nomatch	mon	-1	1	p	0.81493
77.285	0.0	MON	6	noun	phrase	4	13	nomatch	mon	-1	1	p	0.81493
78.16830000000002	0.0	+	6	noun	phrase	4	14	nomatch	mon	-1	1	p	0.81493
78.09990000000002	0.0	[response]	6	noun	phrase	4	15	nomatch	mon	-1	1	p	0.81493
79.70150000000001	0.0	+	7	noun	phrase	1	1	match	nouveau	5	1	y	0.52851
80.25140000000002	0.2	zrqvnk	7	noun	phrase	1	2	match	nouveau	5	1	y	0.52851
80.4514	0.0	+	7	noun	phrase	1	3	match	nouveau	5	1	y	0.52851
80.85140000000001	0.2	xsh	7	noun	phrase	1	4	match	nouveau	5	1	y	0.52851
81.0514	0.0	+	7	noun	phrase	1	5	match	nouveau	5	1	y	0.52851
81.4513	0.2	mwvt	7	noun	phrase	1	6	match	nouveau	5	1	y	0.52851
81.65130000000002	0.0	+	7	noun	phrase	1	7	match	nouveau	5	1	y	0.52851
82.0513	0.2	vjmqxk	7	noun	phrase	1	8	match	nouveau	5	1	y	0.52851
82.25130000000001	0.0	+	7	noun	phrase	1	9	match	nouveau	5	1	y	0.52851
82.65120000000002	0.2	nouveau	7	noun	phrase	1	10	match	nouveau	5	1	y	0.52851
82.8512	0.0	+	7	noun	phrase	1	11	match	nouveau	5	1	y	0.52851
83.25120000000001	0.0	+	7	noun	phrase	1	12	match	nouveau	5	1	y	0.52851
85.251	0.0	NOUVEAU	7	noun	phrase	1	13	match	nouveau	5	1	y	0.52851
85.83430000000001	0.0	+	7	noun	phrase	1	14	match	nouveau	5	1	y	0.52851
85.77960000000004	0.0	[response]	7	noun	phrase	1	15	match	nouveau	5	1	y	0.52851
87.65090000000001	0.0	+	8	noun	phrase	1	1	match	rouge	5	1	y	0.60965
88.20080000000002	0.2	wsmv	8	noun	phrase	1	2	match	rouge	5	1	y	0.60965
88.4008	0.0	+	8	noun	phrase	1	3	match	rouge	5	1	y	0.60965
88.80080000000001	0.2	lnfq	8	noun	phrase	1	4	match	rouge	5	1	y	0.60965
89.0008	0.0	+	8	noun	phrase	1	5	match	rouge	5	1	y	0.60965
89.4007	0.2	hkq	8	noun	phrase	1	6	match	rouge	5	1	y	0.60965
89.60070000000002	0.0	+	8	noun	phrase	1	7	match	rouge	5	1	y	0.60965
90.0007	0.2	vprqblt	8	noun	phrase	1	8	match	rouge	5	1	y	0.60965
90.20070000000001	0.0	+	8	noun	phrase	1	9	match	rouge	5	1	y	0.60965
90.60060000000001	0.2	rouge	8	noun	phrase	1	10	match	rouge	5	1	y	0.60965
90.8006	0.0	+	8	noun	phrase	1	11	match	rouge	5	1	y	0.60965
91.20060000000001	0.0	+	8	noun	phrase	1	12	match	rouge	5	1	y	0.60965
93.2004	0.0	ROUGE	8	noun	phrase	1	13	match	rouge	5	1	y	0.60965
93.86700000000002	0.0	+	8	noun	phrase	1	14	match	rouge	5	1	y	0.60965
93.8101	0.0	[response]	8	noun	phrase	1	15	match	rouge	5	1	y	0.60965
95.6002	0.0	+	9	noun	phrase	4	1	match	son	3	1	y	0.8497
96.15020000000001	0.2	qzxvmgt	9	noun	phrase	4	2	match	son	3	1	y	0.8497
96.3502	0.0	+	9	noun	phrase	4	3	match	son	3	1	y	0.8497
96.7502	0.2	dans	9	noun	phrase	4	4	match	son	3	1	y	0.8497
96.9502	0.0	+	9	noun	phrase	4	5	match	son	3	1	y	0.8497
97.3501	0.2	son	9	noun	phrase	4	6	match	son	3	1	y	0.8497
97.55010000000001	0.0	+	9	noun	phrase	4	7	match	son	3	1	y	0.8497
97.95010000000002	0.2	grand	9	noun	phrase	4	8	match	son	3	1	y	0.8497
98.15010000000001	0.0	+	9	noun	phrase	4	9	match	son	3	1	y	0.8497
98.55000000000001	0.2	grenier	9	noun	phrase	4	10	match	son	3	1	y	0.8497
98.75	0.0	+	9	noun	phrase	4	11	match	son	3	1	y	0.8497
99.15	0.0	+	9	noun	phrase	4	12	match	son	3	1	y	0.8497
101.1498	0.0	SON	9	noun	phrase	4	13	match	son	3	1	y	0.8497
102.06640000000002	0.0	+	9	noun	phrase	4	14	match	son	3	1	y	0.8497
101.99950000000004	0.0	[response]	9	noun	phrase	4	15	match	son	3	1	y	0.8497
103.5496	0.0	+	10	noun	phrase	4	1	nomatch	blanc	-1	1	p	0.88858
104.09960000000001	0.2	fbtpjhd	10	noun	phrase	4	2	nomatch	blanc	-1	1	p	0.88858
104.30080000000001	0.0	+	10	noun	phrase	4	3	nomatch	blanc	-1	1	p	0.88858
104.6996	0.2	vers	10	noun	phrase	4	4	nomatch	blanc	-1	1	p	0.88858
104.89950000000002	0.0	+	10	noun	phrase	4	5	nomatch	blanc	-1	1	p	0.88858
105.2995	0.2	mon	10	noun	phrase	4	6	nomatch	blanc	-1	1	p	0.88858
105.49950000000001	0.0	+	10	noun	phrase	4	7	nomatch	blanc	-1	1	p	0.88858
105.89950000000002	0.2	casier	10	noun	phrase	4	8	nomatch	blanc	-1	1	p	0.88858
106.0995	0.0	+	10	noun	phrase	4	9	nomatch	blanc	-1	1	p	0.88858
106.49940000000001	0.2	rouge	10	noun	phrase	4	10	nomatch	blanc	-1	1	p	0.88858
106.6994	0.0	+	10	noun	phrase	4	11	nomatch	blanc	-1	1	p	0.88858
107.0994	0.0	+	10	noun	phrase	4	12	nomatch	blanc	-1	1	p	0.88858
109.0992	0.0	BLANC	10	noun	phrase	4	13	nomatch	blanc	-1	1	p	0.88858
110.04910000000001	0.0	+	10	noun	phrase	4	14	nomatch	blanc	-1	1	p	0.88858
109.9878	0.0	[response]	10	noun	phrase	4	15	nomatch	blanc	-1	1	p	0.88858
111.499	0.0	+	11	noun	list	3	1	nomatch	yves	-1	1	p	0.70644
112.049	0.2	twx	11	noun	list	3	2	nomatch	yves	-1	1	p	0.70644
112.249	0.0	+	11	noun	list	3	3	nomatch	yves	-1	1	p	0.70644
112.6489	0.2	kjs	11	noun	list	3	4	nomatch	yves	-1	1	p	0.70644
112.84890000000001	0.0	+	11	noun	list	3	5	nomatch	yves	-1	1	p	0.70644
113.24890000000002	0.2	son	11	noun	list	3	6	nomatch	yves	-1	1	p	0.70644
113.44890000000001	0.0	+	11	noun	list	3	7	nomatch	yves	-1	1	p	0.70644
113.84890000000001	0.2	beaucoup	11	noun	list	3	8	nomatch	yves	-1	1	p	0.70644
114.0488	0.0	+	11	noun	list	3	9	nomatch	yves	-1	1	p	0.70644
114.4488	0.2	tablier	11	noun	list	3	10	nomatch	yves	-1	1	p	0.70644
114.6488	0.0	+	11	noun	list	3	11	nomatch	yves	-1	1	p	0.70644
115.0488	0.0	+	11	noun	list	3	12	nomatch	yves	-1	1	p	0.70644
117.0486	0.0	YVES	11	noun	list	3	13	nomatch	yves	-1	1	p	0.70644
117.8152	0.0	+	11	noun	list	3	14	nomatch	yves	-1	1	p	0.70644
117.7551	0.0	[response]	11	noun	list	3	15	nomatch	yves	-1	1	p	0.70644
119.44839999999999	0.0	+	12	noun	list	4	1	nomatch	sur	-1	1	p	0.81671
119.9984	0.2	pfl	12	noun	list	4	2	nomatch	sur	-1	1	p	0.81671
120.19839999999999	0.0	+	12	noun	list	4	3	nomatch	sur	-1	1	p	0.81671
120.5983	0.2	sans	12	noun	list	4	4	nomatch	sur	-1	1	p	0.81671
120.79830000000001	0.0	+	12	noun	list	4	5	nomatch	sur	-1	1	p	0.81671
121.19830000000002	0.2	va	12	noun	list	4	6	nomatch	sur	-1	1	p	0.81671
121.3983	0.0	+	12	noun	list	4	7	nomatch	sur	-1	1	p	0.81671
121.79820000000001	0.2	sablier	12	noun	list	4	8	nomatch	sur	-1	1	p	0.81671
121.9982	0.0	+	12	noun	list	4	9	nomatch	sur	-1	1	p	0.81671
122.3982	0.2	tôt	12	noun	list	4	10	nomatch	sur	-1	1	p	0.81671
122.59820000000002	0.0	+	12	noun	list	4	11	nomatch	sur	-1	1	p	0.81671
122.9982	0.0	+	12	noun	list	4	12	nomatch	sur	-1	1	p	0.81671
124.99800000000002	0.0	SUR	12	noun	list	4	13	nomatch	sur	-1	1	p	0.81671
125.88130000000001	0.0	+	12	noun	list	4	14	nomatch	sur	-1	1	p	0.81671
125.81470000000002	0.0	[response]	12	noun	list	4	15	nomatch	sur	-1	1	p	0.81671
127.39780000000002	0.0	+	13	noun	phrase	1	1	nomatch	grenier	-1	1	p	0.70247
127.9478	0.2	scpn	13	noun	phrase	1	2	nomatch	grenier	-1	1	p	0.70247
128.14780000000002	0.0	+	13	noun	phrase	1	3	nomatch	grenier	-1	1	p	0.70247
128.54770000000002	0.2	fhsq	13	noun	phrase	1	4	nomatch	grenier	-1	1	p	0.70247
128.7477	0.0	+	13	noun	phrase	1	5	nomatch	grenier	-1	1	p	0.70247
129.14770000000001	0.2	hkq	13	noun	phrase	1	6	nomatch	grenier	-1	1	p	0.70247
129.3477	0.0	+	13	noun	phrase	1	7	nomatch	grenier	-1	1	p	0.70247
129.7476	0.2	cvrz	13	noun	phrase	1	8	nomatch	grenier	-1	1	p	0.70247
129.9476	0.0	+	13	noun	phrase	1	9	nomatch	grenier	-1	1	p	0.70247
130.3476	0.2	clavier	13	noun	phrase	1	10	nomatch	grenier	-1	1	p	0.70247
130.54760000000002	0.0	+	13	noun	phrase	1	11	nomatch	grenier	-1	1	p	0.70247
130.94750000000002	0.0	+	13	noun	phrase	1	12	nomatch	grenier	-1	1	p	0.70247
132.9474	0.0	GRENIER	13	noun	phrase	1	13	nomatch	grenier	-1	1	p	0.70247
133.71400000000003	0.0	+	13	noun	phrase	1	14	nomatch	grenier	-1	1	p	0.70247
133.64990000000003	0.0	[response]	13	noun	phrase	1	15	nomatch	grenier	-1	1	p	0.70247
135.34720000000002	0.0	+	14	noun	phrase	3	1	match	nouveau	4	1	y	0.75119
135.89720000000003	0.2	swd	14	noun	phrase	3	2	match	nouveau	4	1	y	0.75119
136.09709999999998	0.0	+	14	noun	phrase	3	3	match	nouveau	4	1	y	0.75119
136.49710000000002	0.2	fjcz	14	noun	phrase	3	4	match	nouveau	4	1	y	0.75119
136.6971	0.0	+	14	noun	phrase	3	5	match	nouveau	4	1	y	0.75119
137.09709999999998	0.2	son	14	noun	phrase	3	6	match	nouveau	4	1	y	0.75119
137.29710000000003	0.0	+	14	noun	phrase	3	7	match	nouveau	4	1	y	0.75119
137.69700000000003	0.2	nouveau	14	noun	phrase	3	8	match	nouveau	4	1	y	0.75119
137.89700000000002	0.0	+	14	noun	phrase	3	9	match	nouveau	4	1	y	0.75119
138.297	0.2	sablier	14	noun	phrase	3	10	match	nouveau	4	1	y	0.75119
138.49699999999999	0.0	+	14	noun	phrase	3	11	match	nouveau	4	1	y	0.75119
138.8969	0.0	+	14	noun	phrase	3	12	match	nouveau	4	1	y	0.75119
140.8968	0.0	NOUVEAU	14	noun	phrase	3	13	match	nouveau	4	1	y	0.75119
141.7134	0.0	+	14	noun	phrase	3	14	match	nouveau	4	1	y	0.75119
141.648	0.0	[response]	14	noun	phrase	3	15	match	nouveau	4	1	y	0.75119
143.29659999999998	0.0	+	15	noun	list	1	1	nomatch	trop	-1	1	p	0.58252
143.8466	0.2	zqm	15	noun	list	1	2	nomatch	trop	-1	1	p	0.58252
144.0465	0.0	+	15	noun	list	1	3	nomatch	trop	-1	1	p	0.58252
144.4465	0.2	kvlx	15	noun	list	1	4	nomatch	trop	-1	1	p	0.58252
144.64650000000003	0.0	+	15	noun	list	1	5	nomatch	trop	-1	1	p	0.58252
145.0465	0.2	mwvt	15	noun	list	1	6	nomatch	trop	-1	1	p	0.58252
145.24640000000002	0.0	+	15	noun	list	1	7	nomatch	trop	-1	1	p	0.58252
145.6464	0.2	vprqblt	15	noun	list	1	8	nomatch	trop	-1	1	p	0.58252
145.8464	0.0	+	15	noun	list	1	9	nomatch	trop	-1	1	p	0.58252
146.24640000000002	0.2	plus	15	noun	list	1	10	nomatch	trop	-1	1	p	0.58252
146.44629999999998	0.0	+	15	noun	list	1	11	nomatch	trop	-1	1	p	0.58252
146.8463	0.0	+	15	noun	list	1	12	nomatch	trop	-1	1	p	0.58252
148.84619999999998	0.0	TROP	15	noun	list	1	13	nomatch	trop	-1	1	p	0.58252
149.49609999999998	0.0	+	15	noun	list	1	14	nomatch	trop	-1	1	p	0.58252
149.42870000000002	0.0	[response]	15	noun	list	1	15	nomatch	trop	-1	1	p	0.58252
151.246	0.0	+	16	verb	phrase	2	1	match	tard	5	1	y	0.74342
151.7959	0.2	zrfspgj	16	verb	phrase	2	2	match	tard	5	1	y	0.74342
151.99590000000003	0.0	+	16	verb	phrase	2	3	match	tard	5	1	y	0.74342
152.3959	0.2	kjs	16	verb	phrase	2	4	match	tard	5	1	y	0.74342
152.5959	0.0	+	16	verb	phrase	2	5	match	tard	5	1	y	0.74342
152.99590000000003	0.2	ms	16	verb	phrase	2	6	match	tard	5	1	y	0.74342
153.1958	0.0	+	16	verb	phrase	2	7	match	tard	5	1	y	0.74342
153.59580000000003	0.2	voyager	16	verb	phrase	2	8	match	tard	5	1	y	0.74342
153.7958	0.0	+	16	verb	phrase	2	9	match	tard	5	1	y	0.74342
154.1958	0.2	tard	16	verb	phrase	2	10	match	tard	5	1	y	0.74342
154.3957	0.0	+	16	verb	phrase	2	11	match	tard	5	1	y	0.74342
154.79569999999998	0.0	+	16	verb	phrase	2	12	match	tard	5	1	y	0.74342
156.7956	0.0	TARD	16	verb	phrase	2	13	match	tard	5	1	y	0.74342
157.5955	0.0	+	16	verb	phrase	2	14	match	tard	5	1	y	0.74342
157.53900000000002	0.0	[response]	16	verb	phrase	2	15	match	tard	5	1	y	0.74342
159.19539999999998	0.0	+	17	noun	list	3	1	match	mon	3	1	y	0.72286
159.74530000000001	0.2	zlbwqc	17	noun	list	3	2	match	mon	3	1	y	0.72286
159.9453	0.0	+	17	noun	list	3	3	match	mon	3	1	y	0.72286
160.34529999999998	0.2	mrzd	17	noun	list	3	4	match	mon	3	1	y	0.72286
160.54530000000003	0.0	+	17	noun	list	3	5	match	mon	3	1	y	0.72286
160.94520000000003	0.2	mon	17	noun	list	3	6	match	mon	3	1	y	0.72286
161.14520000000002	0.0	+	17	noun	list	3	7	match	mon	3	1	y	0.72286
161.5452	0.2	trop	17	noun	list	3	8	match	mon	3	1	y	0.72286
161.74519999999998	0.0	+	17	noun	list	3	9	match	mon	3	1	y	0.72286
162.14509999999999	0.2	cendrier	17	noun	list	3	10	match	mon	3	1	y	0.72286
162.34510000000003	0.0	+	17	noun	list	3	11	match	mon	3	1	y	0.72286
162.7451	0.0	+	17	noun	list	3	12	match	mon	3	1	y	0.72286
164.7449	0.0	MON	17	noun	list	3	13	match	mon	3	1	y	0.72286
165.5282	0.0	+	17	noun	list	3	14	match	mon	3	1	y	0.72286
165.46779999999998	0.0	[response]	17	noun	list	3	15	match	mon	3	1	y	0.72286
175.1441	0.0	+	18	noun	list	1	1	nomatch	grenier	-1	1	p	0.71207
175.69410000000002	0.2	qld	18	noun	list	1	2	nomatch	grenier	-1	1	p	0.71207
175.8941	0.0	+	18	noun	list	1	3	nomatch	grenier	-1	1	p	0.71207
176.2941	0.2	dtnl	18	noun	list	1	4	nomatch	grenier	-1	1	p	0.71207
176.494	0.0	+	18	noun	list	1	5	nomatch	grenier	-1	1	p	0.71207
176.89400000000003	0.2	ms	18	noun	list	1	6	nomatch	grenier	-1	1	p	0.71207
177.09400000000002	0.0	+	18	noun	list	1	7	nomatch	grenier	-1	1	p	0.71207
177.494	0.2	sbxh	18	noun	list	1	8	nomatch	grenier	-1	1	p	0.71207
177.694	0.0	+	18	noun	list	1	9	nomatch	grenier	-1	1	p	0.71207
178.0939	0.2	boîtier	18	noun	list	1	10	nomatch	grenier	-1	1	p	0.71207
178.29389999999998	0.0	+	18	noun	list	1	11	nomatch	grenier	-1	1	p	0.71207
178.6939	0.0	+	18	noun	list	1	12	nomatch	grenier	-1	1	p	0.71207
180.6937	0.0	GRENIER	18	noun	list	1	13	nomatch	grenier	-1	1	p	0.71207
181.4603	0.0	+	18	noun	list	1	14	nomatch	grenier	-1	1	p	0.71207
181.40580000000003	0.0	[response]	18	noun	list	1	15	nomatch	grenier	-1	1	p	0.71207
191.09290000000001	0.0	+	19	verb	phrase	3	1	match	patiner	5	1	y	0.9135
191.64290000000003	0.2	smfk	19	verb	phrase	3	2	match	patiner	5	1	y	0.9135
191.84290000000001	0.0	+	19	verb	phrase	3	3	match	patiner	5	1	y	0.9135
192.24280000000002	0.2	cnjt	19	verb	phrase	3	4	match	patiner	5	1	y	0.9135
192.4428	0.0	+	19	verb	phrase	3	5	match	patiner	5	1	y	0.9135
192.84279999999998	0.2	doit	19	verb	phrase	3	6	match	patiner	5	1	y	0.9135
193.04280000000003	0.0	+	19	verb	phrase	3	7	match	patiner	5	1	y	0.9135
193.44270000000003	0.2	plus	19	verb	phrase	3	8	match	patiner	5	1	y	0.9135
193.64270000000002	0.0	+	19	verb	phrase	3	9	match	patiner	5	1	y	0.9135
194.0427	0.2	patiner	19	verb	phrase	3	10	match	patiner	5	1	y	0.9135
194.24269999999999	0.0	+	19	verb	phrase	3	11	match	patiner	5	1	y	0.9135
194.64270000000002	0.0	+	19	verb	phrase	3	12	match	patiner	5	1	y	0.9135
196.6425	0.0	PATINER	19	verb	phrase	3	13	match	patiner	5	1	y	0.9135
197.62570000000002	0.0	+	19	verb	phrase	3	14	match	patiner	5	1	y	0.9135
197.556	0.0	[response]	19	verb	phrase	3	15	match	patiner	5	1	y	0.9135
207.04170000000002	0.0	+	20	noun	list	2	1	nomatch	tôt	-1	1	p	0.8104
207.59170000000003	0.2	dztbk	20	noun	list	2	2	nomatch	tôt	-1	1	p	0.8104
207.7916	0.0	+	20	noun	list	2	3	nomatch	tôt	-1	1	p	0.8104
208.19160000000002	0.2	fjcz	20	noun	list	2	4	nomatch	tôt	-1	1	p	0.8104
208.3916	0.0	+	20	noun	list	2	5	nomatch	tôt	-1	1	p	0.8104
208.7916	0.2	lnfq	20	noun	list	2	6	nomatch	tôt	-1	1	p	0.8104
208.9915	0.0	+	20	noun	list	2	7	nomatch	tôt	-1	1	p	0.8104
209.39149999999998	0.2	boîtier	20	noun	list	2	8	nomatch	tôt	-1	1	p	0.8104
209.59150000000002	0.0	+	20	noun	list	2	9	nomatch	tôt	-1	1	p	0.8104
209.9915	0.2	tard	20	noun	list	2	10	nomatch	tôt	-1	1	p	0.8104
210.1915	0.0	+	20	noun	list	2	11	nomatch	tôt	-1	1	p	0.8104
210.5914	0.0	+	20	noun	list	2	12	nomatch	tôt	-1	1	p	0.8104
212.59130000000002	0.0	TÔT	20	noun	list	2	13	nomatch	tôt	-1	1	p	0.8104
213.45790000000002	0.0	+	20	noun	list	2	14	nomatch	tôt	-1	1	p	0.8104
213.40170000000003	0.0	[response]	20	noun	list	2	15	nomatch	tôt	-1	1	p	0.8104
230.9899	0.0	+	21	noun	phrase	2	1	nomatch	mieux	-1	1	p	0.8660100000000001
231.53979999999999	0.2	lvxfsp	21	noun	phrase	2	2	nomatch	mieux	-1	1	p	0.8660100000000001
231.73980000000003	0.0	+	21	noun	phrase	2	3	nomatch	mieux	-1	1	p	0.8660100000000001
232.1398	0.2	dtnl	21	noun	phrase	2	4	nomatch	mieux	-1	1	p	0.8660100000000001
232.3398	0.0	+	21	noun	phrase	2	5	nomatch	mieux	-1	1	p	0.8660100000000001
232.7397	0.2	mwvt	21	noun	phrase	2	6	nomatch	mieux	-1	1	p	0.8660100000000001
232.9397	0.0	+	21	noun	phrase	2	7	nomatch	mieux	-1	1	p	0.8660100000000001
233.33970000000002	0.2	beau	21	noun	phrase	2	8	nomatch	mieux	-1	1	p	0.8660100000000001
233.5397	0.0	+	21	noun	phrase	2	9	nomatch	mieux	-1	1	p	0.8660100000000001
233.9396	0.2	grenier	21	noun	phrase	2	10	nomatch	mieux	-1	1	p	0.8660100000000001
234.1396	0.0	+	21	noun	phrase	2	11	nomatch	mieux	-1	1	p	0.8660100000000001
234.53959999999998	0.0	+	21	noun	phrase	2	12	nomatch	mieux	-1	1	p	0.8660100000000001
236.53940000000003	0.0	MIEUX	21	noun	phrase	2	13	nomatch	mieux	-1	1	p	0.8660100000000001
237.4727	0.0	+	21	noun	phrase	2	14	nomatch	mieux	-1	1	p	0.8660100000000001
237.40540000000001	0.0	[response]	21	noun	phrase	2	15	nomatch	mieux	-1	1	p	0.8660100000000001
238.9392	0.0	+	22	noun	phrase	1	1	match	cendrier	5	1	y	0.65833
239.4892	0.2	vpnhwr	22	noun	phrase	1	2	match	cendrier	5	1	y	0.65833
239.6892	0.0	+	22	noun	phrase	1	3	match	cendrier	5	1	y	0.65833
240.08920000000003	0.2	xsh	22	noun	phrase	1	4	match	cendrier	5	1	y	0.65833
240.2891	0.0	+	22	noun	phrase	1	5	match	cendrier	5	1	y	0.65833
240.68910000000002	0.2	psl	22	noun	phrase	1	6	match	cendrier	5	1	y	0.65833
240.8891	0.0	+	22	noun	phrase	1	7	match	cendrier	5	1	y	0.65833
241.2891	0.2	cvrz	22	noun	phrase	1	8	match	cendrier	5	1	y	0.65833
241.48909999999998	0.0	+	22	noun	phrase	1	9	match	cendrier	5	1	y	0.65833
241.88899999999998	0.2	cendrier	22	noun	phrase	1	10	match	cendrier	5	1	y	0.65833
242.08900000000003	0.0	+	22	noun	phrase	1	11	match	cendrier	5	1	y	0.65833
242.489	0.0	+	22	noun	phrase	1	12	match	cendrier	5	1	y	0.65833
244.4888	0.0	CENDRIER	22	noun	phrase	1	13	match	cendrier	5	1	y	0.65833
245.20540000000003	0.0	+	22	noun	phrase	1	14	match	cendrier	5	1	y	0.65833
245.1471	0.0	[response]	22	noun	phrase	1	15	match	cendrier	5	1	y	0.65833
246.88860000000003	0.0	+	23	verb	phrase	1	1	nomatch	sous	-1	1	p	0.84721
247.43859999999998	0.2	vhtlf	23	verb	phrase	1	2	nomatch	sous	-1	1	p	0.84721
247.63860000000003	0.0	+	23	verb	phrase	1	3	nomatch	sous	-1	1	p	0.84721
248.03850000000003	0.2	frjv	23	verb	phrase	1	4	nomatch	sous	-1	1	p	0.84721
248.23850000000002	0.0	+	23	verb	phrase	1	5	nomatch	sous	-1	1	p	0.84721
248.6385	0.2	ms	23	verb	phrase	1	6	nomatch	sous	-1	1	p	0.84721
248.83849999999998	0.0	+	23	verb	phrase	1	7	nomatch	sous	-1	1	p	0.84721
249.23850000000002	0.2	cfjvpt	23	verb	phrase	1	8	nomatch	sous	-1	1	p	0.84721
249.43840000000003	0.0	+	23	verb	phrase	1	9	nomatch	sous	-1	1	p	0.84721
249.8384	0.2	moins	23	verb	phrase	1	10	nomatch	sous	-1	1	p	0.84721
250.0384	0.0	+	23	verb	phrase	1	11	nomatch	sous	-1	1	p	0.84721
250.43840000000003	0.0	+	23	verb	phrase	1	12	nomatch	sous	-1	1	p	0.84721
252.43820000000002	0.0	SOUS	23	verb	phrase	1	13	nomatch	sous	-1	1	p	0.84721
253.35479999999998	0.0	+	23	verb	phrase	1	14	nomatch	sous	-1	1	p	0.84721
253.2854	0.0	[response]	23	verb	phrase	1	15	nomatch	sous	-1	1	p	0.84721
254.838	0.0	+	24	noun	list	4	1	match	grenier	5	1	y	0.86249
255.388	0.2	fpbw	24	noun	list	4	2	match	grenier	5	1	y	0.86249
255.588	0.0	+	24	noun	list	4	3	match	grenier	5	1	y	0.86249
255.9879	0.2	yves	24	noun	list	4	4	match	grenier	5	1	y	0.86249
256.1879	0.0	+	24	noun	list	4	5	match	grenier	5	1	y	0.86249
256.5879	0.2	son	24	noun	list	4	6	match	grenier	5	1	y	0.86249
256.78790000000004	0.0	+	24	noun	list	4	7	match	grenier	5	1	y	0.86249
257.18780000000004	0.2	mieux	24	noun	list	4	8	match	grenier	5	1	y	0.86249
257.38779999999997	0.0	+	24	noun	list	4	9	match	grenier	5	1	y	0.86249
257.78780000000006	0.2	grenier	24	noun	list	4	10	match	grenier	5	1	y	0.86249
257.9878	0.0	+	24	noun	list	4	11	match	grenier	5	1	y	0.86249
258.38779999999997	0.0	+	24	noun	list	4	12	match	grenier	5	1	y	0.86249
260.3876	0.0	GRENIER	24	noun	list	4	13	match	grenier	5	1	y	0.86249
261.30420000000004	0.0	+	24	noun	list	4	14	match	grenier	5	1	y	0.86249
261.2501000000001	0.0	[response]	24	noun	list	4	15	match	grenier	5	1	y	0.86249
262.78740000000005	0.0	+	25	verb	list	2	1	nomatch	vert	-1	1	p	0.78562
263.3374	0.2	clqfr	25	verb	list	2	2	nomatch	vert	-1	1	p	0.78562
263.53740000000005	0.0	+	25	verb	list	2	3	nomatch	vert	-1	1	p	0.78562
263.93730000000005	0.2	lnfq	25	verb	list	2	4	nomatch	vert	-1	1	p	0.78562
264.1373	0.0	+	25	verb	list	2	5	nomatch	vert	-1	1	p	0.78562
264.53729999999996	0.2	ms	25	verb	list	2	6	nomatch	vert	-1	1	p	0.78562
264.7373	0.0	+	25	verb	list	2	7	nomatch	vert	-1	1	p	0.78562
265.1372	0.2	petit	25	verb	list	2	8	nomatch	vert	-1	1	p	0.78562
265.33720000000005	0.0	+	25	verb	list	2	9	nomatch	vert	-1	1	p	0.78562
265.73720000000003	0.2	nager	25	verb	list	2	10	nomatch	vert	-1	1	p	0.78562
265.93719999999996	0.0	+	25	verb	list	2	11	nomatch	vert	-1	1	p	0.78562
266.33709999999996	0.0	+	25	verb	list	2	12	nomatch	vert	-1	1	p	0.78562
268.337	0.0	VERT	25	verb	list	2	13	nomatch	vert	-1	1	p	0.78562
269.18690000000004	0.0	+	25	verb	list	2	14	nomatch	vert	-1	1	p	0.78562
269.12260000000003	0.0	[response]	25	verb	list	2	15	nomatch	vert	-1	1	p	0.78562
270.7368	0.0	+	26	noun	list	4	1	match	ainsi	5	1	y	1.0031
271.28679999999997	0.2	jtnm	26	noun	list	4	2	match	ainsi	5	1	y	1.0031
271.48670000000004	0.0	+	26	noun	list	4	3	match	ainsi	5	1	y	1.0031
271.8867	0.2	sous	26	noun	list	4	4	match	ainsi	5	1	y	1.0031
272.08669999999995	0.0	+	26	noun	list	4	5	match	ainsi	5	1	y	1.0031
272.48670000000004	0.2	va	26	noun	list	4	6	match	ainsi	5	1	y	1.0031
272.6867	0.0	+	26	noun	list	4	7	match	ainsi	5	1	y	1.0031
273.0866	0.2	boîtier	26	noun	list	4	8	match	ainsi	5	1	y	1.0031
273.2866	0.0	+	26	noun	list	4	9	match	ainsi	5	1	y	1.0031
273.6866	0.2	ainsi	26	noun	list	4	10	match	ainsi	5	1	y	1.0031
273.88660000000004	0.0	+	26	noun	list	4	11	match	ainsi	5	1	y	1.0031
274.28650000000005	0.0	+	26	noun	list	4	12	match	ainsi	5	1	y	1.0031
276.28639999999996	0.0	AINSI	26	noun	list	4	13	match	ainsi	5	1	y	1.0031
277.35299999999995	0.0	+	26	noun	list	4	14	match	ainsi	5	1	y	1.0031
277.2895	0.0	[response]	26	noun	list	4	15	match	ainsi	5	1	y	1.0031
278.6862	0.0	+	27	noun	phrase	3	1	match	grenier	4	1	y	0.72749
279.23620000000005	0.2	nfzwpkh	27	noun	phrase	3	2	match	grenier	4	1	y	0.72749
279.4361	0.0	+	27	noun	phrase	3	3	match	grenier	4	1	y	0.72749
279.8361	0.2	ngcx	27	noun	phrase	3	4	match	grenier	4	1	y	0.72749
280.03610000000003	0.0	+	27	noun	phrase	3	5	match	grenier	4	1	y	0.72749
280.4361	0.2	leur	27	noun	phrase	3	6	match	grenier	4	1	y	0.72749
280.63599999999997	0.0	+	27	noun	phrase	3	7	match	grenier	4	1	y	0.72749
281.03600000000006	0.2	grenier	27	noun	phrase	3	8	match	grenier	4	1	y	0.72749
281.236	0.0	+	27	noun	phrase	3	9	match	grenier	4	1	y	0.72749
281.63599999999997	0.2	bleu	27	noun	phrase	3	10	match	grenier	4	1	y	0.72749
281.836	0.0	+	27	noun	phrase	3	11	match	grenier	4	1	y	0.72749
282.2359	0.0	+	27	noun	phrase	3	12	match	grenier	4	1	y	0.72749
284.23580000000004	0.0	GRENIER	27	noun	phrase	3	13	match	grenier	4	1	y	0.72749
285.019	0.0	+	27	noun	phrase	3	14	match	grenier	4	1	y	0.72749
284.9633	0.0	[response]	27	noun	phrase	3	15	match	grenier	4	1	y	0.72749
286.63559999999995	0.0	+	28	verb	phrase	4	1	match	luc	2	1	y	0.56289
287.18550000000005	0.2	lpn	28	verb	phrase	4	2	match	luc	2	1	y	0.56289
287.3855	0.0	+	28	verb	phrase	4	3	match	luc	2	1	y	0.56289
287.78549999999996	0.2	luc	28	verb	phrase	4	4	match	luc	2	1	y	0.56289
287.9855	0.0	+	28	verb	phrase	4	5	match	luc	2	1	y	0.56289
288.3854	0.2	doit	28	verb	phrase	4	6	match	luc	2	1	y	0.56289
288.58540000000005	0.0	+	28	verb	phrase	4	7	match	luc	2	1	y	0.56289
288.9854	0.2	nager	28	verb	phrase	4	8	match	luc	2	1	y	0.56289
289.18539999999996	0.0	+	28	verb	phrase	4	9	match	luc	2	1	y	0.56289
289.58540000000005	0.2	vite	28	verb	phrase	4	10	match	luc	2	1	y	0.56289
289.7853	0.0	+	28	verb	phrase	4	11	match	luc	2	1	y	0.56289
290.1853	0.0	+	28	verb	phrase	4	12	match	luc	2	1	y	0.56289
292.1852	0.0	LUC	28	verb	phrase	4	13	match	luc	2	1	y	0.56289
292.8184	0.0	+	28	verb	phrase	4	14	match	luc	2	1	y	0.56289
292.74800000000005	0.0	[response]	28	verb	phrase	4	15	match	luc	2	1	y	0.56289
294.58500000000004	0.0	+	29	noun	phrase	2	1	nomatch	marc	-1	1	p	1.3661
295.1349	0.2	gcp	29	noun	phrase	2	2	nomatch	marc	-1	1	p	1.3661
295.33490000000006	0.0	+	29	noun	phrase	2	3	nomatch	marc	-1	1	p	1.3661
295.73490000000004	0.2	dtnl	29	noun	phrase	2	4	nomatch	marc	-1	1	p	1.3661
295.93489999999997	0.0	+	29	noun	phrase	2	5	nomatch	marc	-1	1	p	1.3661
296.33490000000006	0.2	mwvt	29	noun	phrase	2	6	nomatch	marc	-1	1	p	1.3661
296.5348	0.0	+	29	noun	phrase	2	7	nomatch	marc	-1	1	p	1.3661
296.9515	0.2	grenier	29	noun	phrase	2	8	nomatch	marc	-1	1	p	1.3661
297.13480000000004	0.0	+	29	noun	phrase	2	9	nomatch	marc	-1	1	p	1.3661
297.55140000000006	0.2	vert	29	noun	phrase	2	10	nomatch	marc	-1	1	p	1.3661
297.7514	0.0	+	29	noun	phrase	2	11	nomatch	marc	-1	1	p	1.3661
298.15139999999997	0.0	+	29	noun	phrase	2	12	nomatch	marc	-1	1	p	1.3661
300.1512	0.0	MARC	29	noun	phrase	2	13	nomatch	marc	-1	1	p	1.3661
301.58439999999996	0.0	+	29	noun	phrase	2	14	nomatch	marc	-1	1	p	1.3661
301.5173	0.0	[response]	29	noun	phrase	2	15	nomatch	marc	-1	1	p	1.3661
302.55100000000004	0.0	+	30	noun	list	1	1	nomatch	vite	-1	1	p	0.66822
303.101	0.2	nbsv	30	noun	list	1	2	nomatch	vite	-1	1	p	0.66822
303.30100000000004	0.0	+	30	noun	list	1	3	nomatch	vite	-1	1	p	0.66822
303.70090000000005	0.2	fjcz	30	noun	list	1	4	nomatch	vite	-1	1	p	0.66822
303.9009	0.0	+	30	noun	list	1	5	nomatch	vite	-1	1	p	0.66822
304.30089999999996	0.2	ms	30	noun	list	1	6	nomatch	vite	-1	1	p	0.66822
304.5009	0.0	+	30	noun	list	1	7	nomatch	vite	-1	1	p	0.66822
304.9008	0.2	vprqblt	30	noun	list	1	8	nomatch	vite	-1	1	p	0.66822
305.10080000000005	0.0	+	30	noun	list	1	9	nomatch	vite	-1	1	p	0.66822
305.5008	0.2	ainsi	30	noun	list	1	10	nomatch	vite	-1	1	p	0.66822
305.70079999999996	0.0	+	30	noun	list	1	11	nomatch	vite	-1	1	p	0.66822
306.10080000000005	0.0	+	30	noun	list	1	12	nomatch	vite	-1	1	p	0.66822
308.1006	0.0	VITE	30	noun	list	1	13	nomatch	vite	-1	1	p	0.66822
308.83389999999997	0.0	+	30	noun	list	1	14	nomatch	vite	-1	1	p	0.66822
308.76880000000006	0.0	[response]	30	noun	list	1	15	nomatch	vite	-1	1	p	0.66822
310.5004	0.0	+	31	noun	list	2	1	nomatch	grenier	-1	1	p	0.96211
311.05039999999997	0.2	lnbsg	31	noun	list	2	2	nomatch	grenier	-1	1	p	0.96211
311.2504	0.0	+	31	noun	list	2	3	nomatch	grenier	-1	1	p	0.96211
311.6503	0.2	mrzd	31	noun	list	2	4	nomatch	grenier	-1	1	p	0.96211
311.85030000000006	0.0	+	31	noun	list	2	5	nomatch	grenier	-1	1	p	0.96211
312.25030000000004	0.2	psl	31	noun	list	2	6	nomatch	grenier	-1	1	p	0.96211
312.45029999999997	0.0	+	31	noun	list	2	7	nomatch	grenier	-1	1	p	0.96211
312.8502	0.2	trop	31	noun	list	2	8	nomatch	grenier	-1	1	p	0.96211
313.0502	0.0	+	31	noun	list	2	9	nomatch	grenier	-1	1	p	0.96211
313.4502	0.2	tablier	31	noun	list	2	10	nomatch	grenier	-1	1	p	0.96211
313.65020000000004	0.0	+	31	noun	list	2	11	nomatch	grenier	-1	1	p	0.96211
314.05010000000004	0.0	+	31	noun	list	2	12	nomatch	grenier	-1	1	p	0.96211
316.04999999999995	0.0	GRENIER	31	noun	list	2	13	nomatch	grenier	-1	1	p	0.96211
317.0666	0.0	+	31	noun	list	2	14	nomatch	grenier	-1	1	p	0.96211
317.01210000000003	0.0	[response]	31	noun	list	2	15	nomatch	grenier	-1	1	p	0.96211
318.4498	0.0	+	32	verb	phrase	2	1	match	tôt	5	1	y	0.9217200000000001
318.99980000000005	0.2	ncrgfwm	32	verb	phrase	2	2	match	tôt	5	1	y	0.9217200000000001
319.1997	0.0	+	32	verb	phrase	2	3	match	tôt	5	1	y	0.9217200000000001
319.5997	0.2	frjv	32	verb	phrase	2	4	match	tôt	5	1	y	0.9217200000000001
319.79970000000003	0.0	+	32	verb	phrase	2	5	match	tôt	5	1	y	0.9217200000000001
320.1997	0.2	lnfq	32	verb	phrase	2	6	match	tôt	5	1	y	0.9217200000000001
320.39970000000005	0.0	+	32	verb	phrase	2	7	match	tôt	5	1	y	0.9217200000000001
320.79960000000005	0.2	plonger	32	verb	phrase	2	8	match	tôt	5	1	y	0.9217200000000001
320.9996	0.0	+	32	verb	phrase	2	9	match	tôt	5	1	y	0.9217200000000001
321.39959999999996	0.2	tôt	32	verb	phrase	2	10	match	tôt	5	1	y	0.9217200000000001
321.5996	0.0	+	32	verb	phrase	2	11	match	tôt	5	1	y	0.9217200000000001
321.9995	0.0	+	32	verb	phrase	2	12	match	tôt	5	1	y	0.9217200000000001
323.99940000000004	0.0	TÔT	32	verb	phrase	2	13	match	tôt	5	1	y	0.9217200000000001
324.98260000000005	0.0	+	32	verb	phrase	2	14	match	tôt	5	1	y	0.9217200000000001
324.9211	0.0	[response]	32	verb	phrase	2	15	match	tôt	5	1	y	0.9217200000000001
326.39919999999995	0.0	+	33	verb	phrase	3	1	match	peut	3	1	y	0.88234
326.94910000000004	0.2	gmx	33	verb	phrase	3	2	match	peut	3	1	y	0.88234
327.1491	0.0	+	33	verb	phrase	3	3	match	peut	3	1	y	0.88234
327.54909999999995	0.2	kjs	33	verb	phrase	3	4	match	peut	3	1	y	0.88234
327.7491	0.0	+	33	verb	phrase	3	5	match	peut	3	1	y	0.88234
328.1491	0.2	peut	33	verb	phrase	3	6	match	peut	3	1	y	0.88234
328.34900000000005	0.0	+	33	verb	phrase	3	7	match	peut	3	1	y	0.88234
328.749	0.2	plus	33	verb	phrase	3	8	match	peut	3	1	y	0.88234
328.94899999999996	0.0	+	33	verb	phrase	3	9	match	peut	3	1	y	0.88234
329.34900000000005	0.2	galoper	33	verb	phrase	3	10	match	peut	3	1	y	0.88234
329.5489	0.0	+	33	verb	phrase	3	11	match	peut	3	1	y	0.88234
329.9489	0.0	+	33	verb	phrase	3	12	match	peut	3	1	y	0.88234
331.9488	0.0	PEUT	33	verb	phrase	3	13	match	peut	3	1	y	0.88234
332.89869999999996	0.0	+	33	verb	phrase	3	14	match	peut	3	1	y	0.88234
332.8311	0.0	[response]	33	verb	phrase	3	15	match	peut	3	1	y	0.88234
334.34860000000003	0.0	+	34	noun	phrase	2	1	nomatch	vert	-1	1	p	0.83172
334.8985	0.2	hsqmfx	34	noun	phrase	2	2	nomatch	vert	-1	1	p	0.83172
335.09850000000006	0.0	+	34	noun	phrase	2	3	nomatch	vert	-1	1	p	0.83172
335.49850000000004	0.2	fhsq	34	noun	phrase	2	4	nomatch	vert	-1	1	p	0.83172
335.69849999999997	0.0	+	34	noun	phrase	2	5	nomatch	vert	-1	1	p	0.83172
336.09839999999997	0.2	mwvt	34	noun	phrase	2	6	nomatch	vert	-1	1	p	0.83172
336.2985	0.0	+	34	noun	phrase	2	7	nomatch	vert	-1	1	p	0.83172
336.6984	0.2	tablier	34	noun	phrase	2	8	nomatch	vert	-1	1	p	0.83172
336.89840000000004	0.0	+	34	noun	phrase	2	9	nomatch	vert	-1	1	p	0.83172
337.2984	0.2	bleu	34	noun	phrase	2	10	nomatch	vert	-1	1	p	0.83172
337.4983	0.0	+	34	noun	phrase	2	11	nomatch	vert	-1	1	p	0.83172
337.89830000000006	0.0	+	34	noun	phrase	2	12	nomatch	vert	-1	1	p	0.83172
339.8982	0.0	VERT	34	noun	phrase	2	13	nomatch	vert	-1	1	p	0.83172
340.7981	0.0	+	34	noun	phrase	2	14	nomatch	vert	-1	1	p	0.83172
340.72990000000004	0.0	[response]	34	noun	phrase	2	15	nomatch	vert	-1	1	p	0.83172
350.29729999999995	0.0	+	35	verb	phrase	1	1	nomatch	leur	-1	1	p	0.97811
350.8473	0.2	bhws	35	verb	phrase	1	2	nomatch	leur	-1	1	p	0.97811
351.04729999999995	0.0	+	35	verb	phrase	1	3	nomatch	leur	-1	1	p	0.97811
351.44730000000004	0.2	frjv	35	verb	phrase	1	4	nomatch	leur	-1	1	p	0.97811
351.6473	0.0	+	35	verb	phrase	1	5	nomatch	leur	-1	1	p	0.97811
352.0472	0.2	lnfq	35	verb	phrase	1	6	nomatch	leur	-1	1	p	0.97811
352.2472	0.0	+	35	verb	phrase	1	7	nomatch	leur	-1	1	p	0.97811
352.6472	0.2	dshcq	35	verb	phrase	1	8	nomatch	leur	-1	1	p	0.97811
352.84720000000004	0.0	+	35	verb	phrase	1	9	nomatch	leur	-1	1	p	0.97811
353.24710000000005	0.2	tôt	35	verb	phrase	1	10	nomatch	leur	-1	1	p	0.97811
353.4471	0.0	+	35	verb	phrase	1	11	nomatch	leur	-1	1	p	0.97811
353.84709999999995	0.0	+	35	verb	phrase	1	12	nomatch	leur	-1	1	p	0.97811
355.8469	0.0	LEUR	35	verb	phrase	1	13	nomatch	leur	-1	1	p	0.97811
356.88020000000006	0.0	+	35	verb	phrase	1	14	nomatch	leur	-1	1	p	0.97811
356.82500000000005	0.0	[response]	35	verb	phrase	1	15	nomatch	leur	-1	1	p	0.97811
358.24670000000003	0.0	+	36	verb	phrase	2	1	nomatch	son	-1	1	p	0.95392
358.7967	0.2	snz	36	verb	phrase	2	2	nomatch	son	-1	1	p	0.95392
358.99670000000003	0.0	+	36	verb	phrase	2	3	nomatch	son	-1	1	p	0.95392
359.3967	0.2	kjs	36	verb	phrase	2	4	nomatch	son	-1	1	p	0.95392
359.59659999999997	0.0	+	36	verb	phrase	2	5	nomatch	son	-1	1	p	0.95392
359.99660000000006	0.2	qgkm	36	verb	phrase	2	6	nomatch	son	-1	1	p	0.95392
360.1966	0.0	+	36	verb	phrase	2	7	nomatch	son	-1	1	p	0.95392
360.59659999999997	0.2	mieux	36	verb	phrase	2	8	nomatch	son	-1	1	p	0.95392
360.79650000000004	0.0	+	36	verb	phrase	2	9	nomatch	son	-1	1	p	0.95392
361.1965	0.2	plonger	36	verb	phrase	2	10	nomatch	son	-1	1	p	0.95392
361.39650000000006	0.0	+	36	verb	phrase	2	11	nomatch	son	-1	1	p	0.95392
361.79650000000004	0.0	+	36	verb	phrase	2	12	nomatch	son	-1	1	p	0.95392
363.79970000000003	0.0	SON	36	verb	phrase	2	13	nomatch	son	-1	1	p	0.95392
364.8129	0.0	+	36	verb	phrase	2	14	nomatch	son	-1	1	p	0.95392
364.7536	0.0	[response]	36	verb	phrase	2	15	nomatch	son	-1	1	p	0.95392
366.1961	0.0	+	37	noun	list	1	1	match	sablier	5	1	y	0.63464
366.74609999999996	0.2	dzj	37	noun	list	1	2	match	sablier	5	1	y	0.63464
366.9461	0.0	+	37	noun	list	1	3	match	sablier	5	1	y	0.63464
367.3461	0.2	xsh	37	noun	list	1	4	match	sablier	5	1	y	0.63464
367.54600000000005	0.0	+	37	noun	list	1	5	match	sablier	5	1	y	0.63464
367.946	0.2	ms	37	noun	list	1	6	match	sablier	5	1	y	0.63464
368.14599999999996	0.0	+	37	noun	list	1	7	match	sablier	5	1	y	0.63464
368.54600000000005	0.2	zlbh	37	noun	list	1	8	match	sablier	5	1	y	0.63464
368.7459	0.0	+	37	noun	list	1	9	match	sablier	5	1	y	0.63464
369.1459	0.2	sablier	37	noun	list	1	10	match	sablier	5	1	y	0.63464
369.34590000000003	0.0	+	37	noun	list	1	11	match	sablier	5	1	y	0.63464
369.7459	0.0	+	37	noun	list	1	12	match	sablier	5	1	y	0.63464
371.74570000000006	0.0	SABLIER	37	noun	list	1	13	match	sablier	5	1	y	0.63464
372.4456	0.0	+	37	noun	list	1	14	match	sablier	5	1	y	0.63464
372.38030000000003	0.0	[response]	37	noun	list	1	15	match	sablier	5	1	y	0.63464
374.14549999999997	0.0	+	38	noun	list	1	1	match	casier	5	1	y	0.7134300000000001
374.69550000000004	0.2	bszch	38	noun	list	1	2	match	casier	5	1	y	0.7134300000000001
374.89549999999997	0.0	+	38	noun	list	1	3	match	casier	5	1	y	0.7134300000000001
375.2954	0.2	lnfq	38	noun	list	1	4	match	casier	5	1	y	0.7134300000000001
375.4954	0.0	+	38	noun	list	1	5	match	casier	5	1	y	0.7134300000000001
375.8954	0.2	qgkm	38	noun	list	1	6	match	casier	5	1	y	0.7134300000000001
376.09540000000004	0.0	+	38	noun	list	1	7	match	casier	5	1	y	0.7134300000000001
376.49530000000004	0.2	nfg	38	noun	list	1	8	match	casier	5	1	y	0.7134300000000001
376.6953	0.0	+	38	noun	list	1	9	match	casier	5	1	y	0.7134300000000001
377.09529999999995	0.2	casier	38	noun	list	1	10	match	casier	5	1	y	0.7134300000000001
377.2953	0.0	+	38	noun	list	1	11	match	casier	5	1	y	0.7134300000000001
377.6952	0.0	+	38	noun	list	1	12	match	casier	5	1	y	0.7134300000000001
379.6951	0.0	CASIER	38	noun	list	1	13	match	casier	5	1	y	0.7134300000000001
380.47839999999997	0.0	+	38	noun	list	1	14	match	casier	5	1	y	0.7134300000000001
380.4085000000001	0.0	[response]	38	noun	list	1	15	match	casier	5	1	y	0.7134300000000001
382.09490000000005	0.0	+	39	verb	list	1	1	match	blanc	5	1	y	1.1689
382.6449	0.2	lvchw	39	verb	list	1	2	match	blanc	5	1	y	1.1689
382.84479999999996	0.0	+	39	verb	list	1	3	match	blanc	5	1	y	1.1689
383.24480000000005	0.2	cnjt	39	verb	list	1	4	match	blanc	5	1	y	1.1689
383.4448	0.0	+	39	verb	list	1	5	match	blanc	5	1	y	1.1689
383.84479999999996	0.2	psl	39	verb	list	1	6	match	blanc	5	1	y	1.1689
384.0448	0.0	+	39	verb	list	1	7	match	blanc	5	1	y	1.1689
384.4447	0.2	zkdrhpq	39	verb	list	1	8	match	blanc	5	1	y	1.1689
384.64470000000006	0.0	+	39	verb	list	1	9	match	blanc	5	1	y	1.1689
385.04470000000003	0.2	blanc	39	verb	list	1	10	match	blanc	5	1	y	1.1689
385.24469999999997	0.0	+	39	verb	list	1	11	match	blanc	5	1	y	1.1689
385.64459999999997	0.0	+	39	verb	list	1	12	match	blanc	5	1	y	1.1689
387.6445	0.0	BLANC	39	verb	list	1	13	match	blanc	5	1	y	1.1689
388.8777	0.0	+	39	verb	list	1	14	match	blanc	5	1	y	1.1689
388.8134	0.0	[response]	39	verb	list	1	15	match	blanc	5	1	y	1.1689
390.0443	0.0	+	40	noun	list	3	1	nomatch	voyager	-1	0	TIMEOUT	-1.0
390.5943	0.2	tdrcnpg	40	noun	list	3	2	nomatch	voyager	-1	0	TIMEOUT	-1.0
390.79419999999993	0.0	+	40	noun	list	3	3	nomatch	voyager	-1	0	TIMEOUT	-1.0
391.1942	0.2	ngcx	40	noun	list	3	4	nomatch	voyager	-1	0	TIMEOUT	-1.0
391.39419999999996	0.0	+	40	noun	list	3	5	nomatch	voyager	-1	0	TIMEOUT	-1.0
391.79419999999993	0.2	doit	40	noun	list	3	6	nomatch	voyager	-1	0	TIMEOUT	-1.0
391.9941	0.0	+	40	noun	list	3	7	nomatch	voyager	-1	0	TIMEOUT	-1.0
392.3941	0.2	grenier	40	noun	list	3	8	nomatch	voyager	-1	0	TIMEOUT	-1.0
392.5941	0.0	+	40	noun	list	3	9	nomatch	voyager	-1	0	TIMEOUT	-1.0
392.9941	0.2	loin	40	noun	list	3	10	nomatch	voyager	-1	0	TIMEOUT	-1.0
393.19409999999993	0.0	+	40	noun	list	3	11	nomatch	voyager	-1	0	TIMEOUT	-1.0
393.59399999999994	0.0	+	40	noun	list	3	12	nomatch	voyager	-1	0	TIMEOUT	-1.0
395.59389999999996	0.0	VOYAGER	40	noun	list	3	13	nomatch	voyager	-1	0	TIMEOUT	-1.0
397.9937	0.0	+	41	verb	phrase	4	1	match	rouler	5	1	y	0.84305
398.5935999999999	0.2	gkpf	41	verb	phrase	4	2	match	rouler	5	1	y	0.84305
398.79359999999997	0.0	+	41	verb	phrase	4	3	match	rouler	5	1	y	0.84305
399.19359999999995	0.2	yves	41	verb	phrase	4	4	match	rouler	5	1	y	0.84305
399.3936	0.0	+	41	verb	phrase	4	5	match	rouler	5	1	y	0.84305
399.7935	0.2	peut	41	verb	phrase	4	6	match	rouler	5	1	y	0.84305
399.9934999999999	0.0	+	41	verb	phrase	4	7	match	rouler	5	1	y	0.84305
400.3935	0.2	plus	41	verb	phrase	4	8	match	rouler	5	1	y	0.84305
400.59349999999995	0.0	+	41	verb	phrase	4	9	match	rouler	5	1	y	0.84305
400.9934999999999	0.2	rouler	41	verb	phrase	4	10	match	rouler	5	1	y	0.84305
401.1934	0.0	+	41	verb	phrase	4	11	match	rouler	5	1	y	0.84305
401.5934	0.0	+	41	verb	phrase	4	12	match	rouler	5	1	y	0.84305
403.5933	0.0	ROULER	41	verb	phrase	4	13	match	rouler	5	1	y	0.84305
404.4932	0.0	+	41	verb	phrase	4	14	match	rouler	5	1	y	0.84305
404.43629999999996	0.0	[response]	41	verb	phrase	4	15	match	rouler	5	1	y	0.84305
413.9924	0.0	+	42	noun	phrase	2	1	match	blanc	5	1	y	0.8416100000000001
414.54239999999993	0.2	qmxbfsv	42	noun	phrase	2	2	match	blanc	5	1	y	0.8416100000000001
414.7424	0.0	+	42	noun	phrase	2	3	match	blanc	5	1	y	0.8416100000000001
415.14239999999995	0.2	xsh	42	noun	phrase	2	4	match	blanc	5	1	y	0.8416100000000001
415.3423	0.0	+	42	noun	phrase	2	5	match	blanc	5	1	y	0.8416100000000001
415.7423	0.2	psl	42	noun	phrase	2	6	match	blanc	5	1	y	0.8416100000000001
415.94229999999993	0.0	+	42	noun	phrase	2	7	match	blanc	5	1	y	0.8416100000000001
416.3423	0.2	cendrier	42	noun	phrase	2	8	match	blanc	5	1	y	0.8416100000000001
416.54229999999995	0.0	+	42	noun	phrase	2	9	match	blanc	5	1	y	0.8416100000000001
416.94219999999996	0.2	blanc	42	noun	phrase	2	10	match	blanc	5	1	y	0.8416100000000001
417.1422	0.0	+	42	noun	phrase	2	11	match	blanc	5	1	y	0.8416100000000001
417.5422	0.0	+	42	noun	phrase	2	12	match	blanc	5	1	y	0.8416100000000001
419.54200000000003	0.0	BLANC	42	noun	phrase	2	13	match	blanc	5	1	y	0.8416100000000001
420.442	0.0	+	42	noun	phrase	2	14	match	blanc	5	1	y	0.8416100000000001
420.3836	0.0	[response]	42	noun	phrase	2	15	match	blanc	5	1	y	0.8416100000000001
429.9412	0.0	+	43	verb	list	3	1	match	voyager	4	1	y	0.8376700000000001
430.49119999999994	0.2	djlgvh	43	verb	list	3	2	match	voyager	4	1	y	0.8376700000000001
430.6912	0.0	+	43	verb	list	3	3	match	voyager	4	1	y	0.8376700000000001
431.0911	0.2	kvlx	43	verb	list	3	4	match	voyager	4	1	y	0.8376700000000001
431.29110000000003	0.0	+	43	verb	list	3	5	match	voyager	4	1	y	0.8376700000000001
431.6911	0.2	mon	43	verb	list	3	6	match	voyager	4	1	y	0.8376700000000001
431.89109999999994	0.0	+	43	verb	list	3	7	match	voyager	4	1	y	0.8376700000000001
432.29099999999994	0.2	voyager	43	verb	list	3	8	match	voyager	4	1	y	0.8376700000000001
432.491	0.0	+	43	verb	list	3	9	match	voyager	4	1	y	0.8376700000000001
432.89099999999996	0.2	noir	43	verb	list	3	10	match	voyager	4	1	y	0.8376700000000001
433.091	0.0	+	43	verb	list	3	11	match	voyager	4	1	y	0.8376700000000001
433.491	0.0	+	43	verb	list	3	12	match	voyager	4	1	y	0.8376700000000001
435.4907999999999	0.0	VOYAGER	43	verb	list	3	13	match	voyager	4	1	y	0.8376700000000001
436.3906999999999	0.0	+	43	verb	list	3	14	match	voyager	4	1	y	0.8376700000000001
436.32849999999996	0.0	[response]	43	verb	list	3	15	match	voyager	4	1	y	0.8376700000000001
437.89059999999995	0.0	+	44	verb	phrase	2	1	match	vite	5	1	y	0.68249
438.4406	0.2	cbzwdg	44	verb	phrase	2	2	match	vite	5	1	y	0.68249
438.64059999999995	0.0	+	44	verb	phrase	2	3	match	vite	5	1	y	0.68249
439.04049999999995	0.2	cnjt	44	verb	phrase	2	4	match	vite	5	1	y	0.68249
439.2405	0.0	+	44	verb	phrase	2	5	match	vite	5	1	y	0.68249
439.6405	0.2	lnfq	44	verb	phrase	2	6	match	vite	5	1	y	0.68249
439.8405	0.0	+	44	verb	phrase	2	7	match	vite	5	1	y	0.68249
440.2404	0.2	nager	44	verb	phrase	2	8	match	vite	5	1	y	0.68249
440.44039999999995	0.0	+	44	verb	phrase	2	9	match	vite	5	1	y	0.68249
440.84039999999993	0.2	vite	44	verb	phrase	2	10	match	vite	5	1	y	0.68249
441.0404	0.0	+	44	verb	phrase	2	11	match	vite	5	1	y	0.68249
441.4403	0.0	+	44	verb	phrase	2	12	match	vite	5	1	y	0.68249
443.4402	0.0	VITE	44	verb	phrase	2	13	match	vite	5	1	y	0.68249
444.19010000000003	0.0	+	44	verb	phrase	2	14	match	vite	5	1	y	0.68249
444.1227	0.0	[response]	44	verb	phrase	2	15	match	vite	5	1	y	0.68249
445.84000000000003	0.0	+	45	noun	phrase	1	1	match	vert	5	1	y	0.86731
446.39	0.2	pcvd	45	noun	phrase	1	2	match	vert	5	1	y	0.86731
446.58989999999994	0.0	+	45	noun	phrase	1	3	match	vert	5	1	y	0.86731
446.98990000000003	0.2	fjcz	45	noun	phrase	1	4	match	vert	5	1	y	0.86731
447.18989999999997	0.0	+	45	noun	phrase	1	5	match	vert	5	1	y	0.86731
447.58989999999994	0.2	psl	45	noun	phrase	1	6	match	vert	5	1	y	0.86731
447.7899	0.0	+	45	noun	phrase	1	7	match	vert	5	1	y	0.86731
448.1898	0.2	vfsdzlm	45	noun	phrase	1	8	match	vert	5	1	y	0.86731
448.3897999999999	0.0	+	45	noun	phrase	1	9	match	vert	5	1	y	0.86731
448.7898	0.2	vert	45	noun	phrase	1	10	match	vert	5	1	y	0.86731
448.98979999999995	0.0	+	45	noun	phrase	1	11	match	vert	5	1	y	0.86731
449.38969999999995	0.0	+	45	noun	phrase	1	12	match	vert	5	1	y	0.86731
451.3896	0.0	VERT	45	noun	phrase	1	13	match	vert	5	1	y	0.86731
452.32280000000003	0.0	+	45	noun	phrase	1	14	match	vert	5	1	y	0.86731
452.2569	0.0	[response]	45	noun	phrase	1	15	match	vert	5	1	y	0.86731
453.7894	0.0	+	46	noun	list	1	1	match	clavier	5	1	y	0.5261100000000001
454.33939999999996	0.2	hjlgbpm	46	noun	list	1	2	match	clavier	5	1	y	0.5261100000000001
454.5393	0.0	+	46	noun	list	1	3	match	clavier	5	1	y	0.5261100000000001
454.9393	0.2	kvlx	46	noun	list	1	4	match	clavier	5	1	y	0.5261100000000001
455.13929999999993	0.0	+	46	noun	list	1	5	match	clavier	5	1	y	0.5261100000000001
455.5393	0.2	mwvt	46	noun	list	1	6	match	clavier	5	1	y	0.5261100000000001
455.7392	0.0	+	46	noun	list	1	7	match	clavier	5	1	y	0.5261100000000001
456.13919999999996	0.2	hrmj	46	noun	list	1	8	match	clavier	5	1	y	0.5261100000000001
456.3392	0.0	+	46	noun	list	1	9	match	clavier	5	1	y	0.5261100000000001
456.7392	0.2	clavier	46	noun	list	1	10	match	clavier	5	1	y	0.5261100000000001
456.9392	0.0	+	46	noun	list	1	11	match	clavier	5	1	y	0.5261100000000001
457.33910000000003	0.0	+	46	noun	list	1	12	match	clavier	5	1	y	0.5261100000000001
459.33899999999994	0.0	CLAVIER	46	noun	list	1	13	match	clavier	5	1	y	0.5261100000000001
459.9222	0.0	+	46	noun	list	1	14	match	clavier	5	1	y	0.5261100000000001
459.8651	0.0	[response]	46	noun	list	1	15	match	clavier	5	1	y	0.5261100000000001
461.73879999999997	0.0	+	47	verb	phrase	4	1	nomatch	cendrier	-1	1	p	0.89613
462.28869999999995	0.2	wvzfrxs	47	verb	phrase	4	2	nomatch	cendrier	-1	1	p	0.89613
462.4887	0.0	+	47	verb	phrase	4	3	nomatch	cendrier	-1	1	p	0.89613
462.8887	0.2	jade	47	verb	phrase	4	4	nomatch	cendrier	-1	1	p	0.89613
463.08889999999997	0.0	+	47	verb	phrase	4	5	nomatch	cendrier	-1	1	p	0.89613
463.4886	0.2	va	47	verb	phrase	4	6	nomatch	cendrier	-1	1	p	0.89613
463.68859999999995	0.0	+	47	verb	phrase	4	7	nomatch	cendrier	-1	1	p	0.89613
464.08859999999993	0.2	patiner	47	verb	phrase	4	8	nomatch	cendrier	-1	1	p	0.89613
464.2886	0.0	+	47	verb	phrase	4	9	nomatch	cendrier	-1	1	p	0.89613
464.68859999999995	0.2	tôt	47	verb	phrase	4	10	nomatch	cendrier	-1	1	p	0.89613
464.8885	0.0	+	47	verb	phrase	4	11	nomatch	cendrier	-1	1	p	0.89613
465.2885	0.0	+	47	verb	phrase	4	12	nomatch	cendrier	-1	1	p	0.89613
467.2884	0.0	CENDRIER	47	verb	phrase	4	13	nomatch	cendrier	-1	1	p	0.89613
468.2549	0.0	+	47	verb	phrase	4	14	nomatch	cendrier	-1	1	p	0.89613
468.18449999999996	0.0	[response]	47	verb	phrase	4	15	nomatch	cendrier	-1	1	p	0.89613
485.6868999999999	0.0	+	48	noun	list	2	1	match	plus	4	1	y	0.90355
486.2369	0.2	njqlbs	48	noun	list	2	2	match	plus	4	1	y	0.90355
486.4368999999999	0.0	+	48	noun	list	2	3	match	plus	4	1	y	0.90355
486.8367999999999	0.2	frjv	48	noun	list	2	4	match	plus	4	1	y	0.90355
487.03679999999997	0.0	+	48	noun	list	2	5	match	plus	4	1	y	0.90355
487.43679999999995	0.2	hkq	48	noun	list	2	6	match	plus	4	1	y	0.90355
487.6368	0.0	+	48	noun	list	2	7	match	plus	4	1	y	0.90355
488.03679999999997	0.2	plus	48	noun	list	2	8	match	plus	4	1	y	0.90355
488.2366999999999	0.0	+	48	noun	list	2	9	match	plus	4	1	y	0.90355
488.6367	0.2	rocher	48	noun	list	2	10	match	plus	4	1	y	0.90355
488.83669999999995	0.0	+	48	noun	list	2	11	match	plus	4	1	y	0.90355
489.2366999999999	0.0	+	48	noun	list	2	12	match	plus	4	1	y	0.90355
491.2365	0.0	PLUS	48	noun	list	2	13	match	plus	4	1	y	0.90355
492.20309999999995	0.0	+	48	noun	list	2	14	match	plus	4	1	y	0.90355
492.14009999999996	0.0	[response]	48	noun	list	2	15	match	plus	4	1	y	0.90355
493.6363	0.0	+	49	verb	list	2	1	match	vieux	4	1	y	0.66641
494.18629999999996	0.2	rcxd	49	verb	list	2	2	match	vieux	4	1	y	0.66641
494.3863	0.0	+	49	verb	list	2	3	match	vieux	4	1	y	0.66641
494.7862	0.2	lnfq	49	verb	list	2	4	match	vieux	4	1	y	0.66641
494.98619999999994	0.0	+	49	verb	list	2	5	match	vieux	4	1	y	0.66641
495.38620000000003	0.2	qgkm	49	verb	list	2	6	match	vieux	4	1	y	0.66641
495.58619999999996	0.0	+	49	verb	list	2	7	match	vieux	4	1	y	0.66641
495.98609999999996	0.2	vieux	49	verb	list	2	8	match	vieux	4	1	y	0.66641
496.1861	0.0	+	49	verb	list	2	9	match	vieux	4	1	y	0.66641
496.5861	0.2	galoper	49	verb	list	2	10	match	vieux	4	1	y	0.66641
496.78610000000003	0.0	+	49	verb	list	2	11	match	vieux	4	1	y	0.66641
497.1859999999999	0.0	+	49	verb	list	2	12	match	vieux	4	1	y	0.66641
499.18589999999995	0.0	VIEUX	49	verb	list	2	13	match	vieux	4	1	y	0.66641
499.91919999999993	0.0	+	49	verb	list	2	14	match	vieux	4	1	y	0.66641
499.8523000000001	0.0	[response]	49	verb	list	2	15	match	vieux	4	1	y	0.66641
501.5857	0.0	+	50	verb	phrase	1	1	match	plonger	5	1	y	0.71818
502.13569999999993	0.2	vdzf	50	verb	phrase	1	2	match	plonger	5	1	y	0.71818
502.3357	0.0	+	50	verb	phrase	1	3	match	plonger	5	1	y	0.71818
502.7356	0.2	cnjt	50	verb	phrase	1	4	match	plonger	5	1	y	0.71818
502.9356	0.0	+	50	verb	phrase	1	5	match	plonger	5	1	y	0.71818
503.3356	0.2	ms	50	verb	phrase	1	6	match	plonger	5	1	y	0.71818
503.53559999999993	0.0	+	50	verb	phrase	1	7	match	plonger	5	1	y	0.71818
503.93549999999993	0.2	qdgrc	50	verb	phrase	1	8	match	plonger	5	1	y	0.71818
504.1355	0.0	+	50	verb	phrase	1	9	match	plonger	5	1	y	0.71818
504.53549999999996	0.2	plonger	50	verb	phrase	1	10	match	plonger	5	1	y	0.71818
504.7355	0.0	+	50	verb	phrase	1	11	match	plonger	5	1	y	0.71818
505.1354	0.0	+	50	verb	phrase	1	12	match	plonger	5	1	y	0.71818
507.13530000000003	0.0	PLONGER	50	verb	phrase	1	13	match	plonger	5	1	y	0.71818
507.91859999999997	0.0	+	50	verb	phrase	1	14	match	plonger	5	1	y	0.71818
507.85349999999994	0.0	[response]	50	verb	phrase	1	15	match	plonger	5	1	y	0.71818
509.53509999999994	0.0	+	51	verb	phrase	1	1	match	plus	5	1	y	0.53423
510.0851	0.2	fprnjvw	51	verb	phrase	1	2	match	plus	5	1	y	0.53423
510.28499999999997	0.0	+	51	verb	phrase	1	3	match	plus	5	1	y	0.53423
510.68499999999995	0.2	frjv	51	verb	phrase	1	4	match	plus	5	1	y	0.53423
510.885	0.0	+	51	verb	phrase	1	5	match	plus	5	1	y	0.53423
511.28499999999997	0.2	lnfq	51	verb	phrase	1	6	match	plus	5	1	y	0.53423
511.4848999999999	0.0	+	51	verb	phrase	1	7	match	plus	5	1	y	0.53423
511.8849	0.2	qlgnfmr	51	verb	phrase	1	8	match	plus	5	1	y	0.53423
512.0849	0.0	+	51	verb	phrase	1	9	match	plus	5	1	y	0.53423
512.4848999999999	0.2	plus	51	verb	phrase	1	10	match	plus	5	1	y	0.53423
512.6849	0.0	+	51	verb	phrase	1	11	match	plus	5	1	y	0.53423
513.0849	0.0	+	51	verb	phrase	1	12	match	plus	5	1	y	0.53423
515.1012999999999	0.0	PLUS	51	verb	phrase	1	13	match	plus	5	1	y	0.53423
515.7013	0.0	+	51	verb	phrase	1	14	match	plus	5	1	y	0.53423
515.6356000000001	0.0	[response]	51	verb	phrase	1	15	match	plus	5	1	y	0.53423
517.5011	0.0	+	52	verb	list	1	1	nomatch	mieux	-1	1	p	0.66385
518.0511	0.2	qnsvp	52	verb	list	1	2	nomatch	mieux	-1	1	p	0.66385
518.2511	0.0	+	52	verb	list	1	3	nomatch	mieux	-1	1	p	0.66385
518.6510999999999	0.2	dtnl	52	verb	list	1	4	nomatch	mieux	-1	1	p	0.66385
518.8511	0.0	+	52	verb	list	1	5	nomatch	mieux	-1	1	p	0.66385
519.251	0.2	ms	52	verb	list	1	6	nomatch	mieux	-1	1	p	0.66385
519.451	0.0	+	52	verb	list	1	7	nomatch	mieux	-1	1	p	0.66385
519.851	0.2	zkdrhpq	52	verb	list	1	8	nomatch	mieux	-1	1	p	0.66385
520.0509999999999	0.0	+	52	verb	list	1	9	nomatch	mieux	-1	1	p	0.66385
520.4508999999999	0.2	nouveau	52	verb	list	1	10	nomatch	mieux	-1	1	p	0.66385
520.6509	0.0	+	52	verb	list	1	11	nomatch	mieux	-1	1	p	0.66385
521.0509	0.0	+	52	verb	list	1	12	nomatch	mieux	-1	1	p	0.66385
523.0507	0.0	MIEUX	52	verb	list	1	13	nomatch	mieux	-1	1	p	0.66385
523.784	0.0	+	52	verb	list	1	14	nomatch	mieux	-1	1	p	0.66385
523.7146	0.0	[response]	52	verb	list	1	15	nomatch	mieux	-1	1	p	0.66385
525.4505	0.0	+	53	noun	list	4	1	nomatch	petit	-1	1	p	0.98118
526.0005	0.2	jhldb	53	noun	list	4	2	nomatch	petit	-1	1	p	0.98118
526.2005	0.0	+	53	noun	list	4	3	nomatch	petit	-1	1	p	0.98118
526.6005	0.2	yves	53	noun	list	4	4	nomatch	petit	-1	1	p	0.98118
526.8004	0.0	+	53	noun	list	4	5	nomatch	petit	-1	1	p	0.98118
527.2004	0.2	leur	53	noun	list	4	6	nomatch	petit	-1	1	p	0.98118
527.4004	0.0	+	53	noun	list	4	7	nomatch	petit	-1	1	p	0.98118
527.8004	0.2	moins	53	noun	list	4	8	nomatch	petit	-1	1	p	0.98118
528.0002999999999	0.0	+	53	noun	list	4	9	nomatch	petit	-1	1	p	0.98118
528.4003	0.2	rocher	53	noun	list	4	10	nomatch	petit	-1	1	p	0.98118
528.6003	0.0	+	53	noun	list	4	11	nomatch	petit	-1	1	p	0.98118
529.0002999999999	0.0	+	53	noun	list	4	12	nomatch	petit	-1	1	p	0.98118
531.0001	0.0	PETIT	53	noun	list	4	13	nomatch	petit	-1	1	p	0.98118
532.05	0.0	+	53	noun	list	4	14	nomatch	petit	-1	1	p	0.98118
531.9813	0.0	[response]	53	noun	list	4	15	nomatch	petit	-1	1	p	0.98118
533.3999	0.0	+	54	verb	list	1	1	match	bleu	5	1	y	0.56382
533.9499	0.2	vgpkft	54	verb	list	1	2	match	bleu	5	1	y	0.56382
534.1499	0.0	+	54	verb	list	1	3	match	bleu	5	1	y	0.56382
534.5498	0.2	kjs	54	verb	list	1	4	match	bleu	5	1	y	0.56382
534.7497999999999	0.0	+	54	verb	list	1	5	match	bleu	5	1	y	0.56382
535.1498	0.2	psl	54	verb	list	1	6	match	bleu	5	1	y	0.56382
535.3498	0.0	+	54	verb	list	1	7	match	bleu	5	1	y	0.56382
535.7497	0.2	cfjvpt	54	verb	list	1	8	match	bleu	5	1	y	0.56382
535.9497	0.0	+	54	verb	list	1	9	match	bleu	5	1	y	0.56382
536.3497	0.2	bleu	54	verb	list	1	10	match	bleu	5	1	y	0.56382
536.5497	0.0	+	54	verb	list	1	11	match	bleu	5	1	y	0.56382
536.9497	0.0	+	54	verb	list	1	12	match	bleu	5	1	y	0.56382
538.9495	0.0	BLEU	54	verb	list	1	13	match	bleu	5	1	y	0.56382
539.5828	0.0	+	54	verb	list	1	14	match	bleu	5	1	y	0.56382
539.5133	0.0	[response]	54	verb	list	1	15	match	bleu	5	1	y	0.56382
541.3493	0.0	+	55	noun	phrase	1	1	nomatch	rouge	-1	1	p	0.67882
541.8992999999999	0.2	jpgmnkq	55	noun	phrase	1	2	nomatch	rouge	-1	1	p	0.67882
542.0993	0.0	+	55	noun	phrase	1	3	nomatch	rouge	-1	1	p	0.67882
542.4992	0.2	xsh	55	noun	phrase	1	4	nomatch	rouge	-1	1	p	0.67882
542.6992	0.0	+	55	noun	phrase	1	5	nomatch	rouge	-1	1	p	0.67882
543.0992	0.2	hkq	55	noun	phrase	1	6	nomatch	rouge	-1	1	p	0.67882
543.2991999999999	0.0	+	55	noun	phrase	1	7	nomatch	rouge	-1	1	p	0.67882
543.6990999999999	0.2	vpnsw	55	noun	phrase	1	8	nomatch	rouge	-1	1	p	0.67882
543.8991	0.0	+	55	noun	phrase	1	9	nomatch	rouge	-1	1	p	0.67882
544.2991	0.2	grenier	55	noun	phrase	1	10	nomatch	rouge	-1	1	p	0.67882
544.4991	0.0	+	55	noun	phrase	1	11	nomatch	rouge	-1	1	p	0.67882
544.899	0.0	+	55	noun	phrase	1	12	nomatch	rouge	-1	1	p	0.67882
546.8989	0.0	ROUGE	55	noun	phrase	1	13	nomatch	rouge	-1	1	p	0.67882
547.6322	0.0	+	55	noun	phrase	1	14	nomatch	rouge	-1	1	p	0.67882
547.5776999999999	0.0	[response]	55	noun	phrase	1	15	nomatch	rouge	-1	1	p	0.67882
549.2986999999999	0.0	+	56	verb	list	2	1	match	beau	4	1	y	0.6137
549.8487	0.2	kcdjbxf	56	verb	list	2	2	match	beau	4	1	y	0.6137
550.0486	0.0	+	56	verb	list	2	3	match	beau	4	1	y	0.6137
550.4485999999999	0.2	fjcz	56	verb	list	2	4	match	beau	4	1	y	0.6137
550.6486	0.0	+	56	verb	list	2	5	match	beau	4	1	y	0.6137
551.0486	0.2	lnfq	56	verb	list	2	6	match	beau	4	1	y	0.6137
551.2486	0.0	+	56	verb	list	2	7	match	beau	4	1	y	0.6137
551.6485	0.2	beau	56	verb	list	2	8	match	beau	4	1	y	0.6137
551.8485	0.0	+	56	verb	list	2	9	match	beau	4	1	y	0.6137
552.2484999999999	0.2	chasser	56	verb	list	2	10	match	beau	4	1	y	0.6137
552.4485	0.0	+	56	verb	list	2	11	match	beau	4	1	y	0.6137
552.8484	0.0	+	56	verb	list	2	12	match	beau	4	1	y	0.6137
554.8483	0.0	BEAU	56	verb	list	2	13	match	beau	4	1	y	0.6137
555.5316	0.0	+	56	verb	list	2	14	match	beau	4	1	y	0.6137
555.462	0.0	[response]	56	verb	list	2	15	match	beau	4	1	y	0.6137
557.2481	0.0	+	57	verb	list	1	1	match	plonger	5	1	y	0.78541
557.7981	0.2	fvprq	57	verb	list	1	2	match	plonger	5	1	y	0.78541
557.9979999999999	0.0	+	57	verb	list	1	3	match	plonger	5	1	y	0.78541
558.398	0.2	cnjt	57	verb	list	1	4	match	plonger	5	1	y	0.78541
558.598	0.0	+	57	verb	list	1	5	match	plonger	5	1	y	0.78541
558.9979999999999	0.2	psl	57	verb	list	1	6	match	plonger	5	1	y	0.78541
559.1979	0.0	+	57	verb	list	1	7	match	plonger	5	1	y	0.78541
559.5979	0.2	qvgx	57	verb	list	1	8	match	plonger	5	1	y	0.78541
559.7979	0.0	+	57	verb	list	1	9	match	plonger	5	1	y	0.78541
560.1979	0.2	plonger	57	verb	list	1	10	match	plonger	5	1	y	0.78541
560.3978999999999	0.0	+	57	verb	list	1	11	match	plonger	5	1	y	0.78541
560.7977999999999	0.0	+	57	verb	list	1	12	match	plonger	5	1	y	0.78541
562.7977	0.0	PLONGER	57	verb	list	1	13	match	plonger	5	1	y	0.78541
563.6476	0.0	+	57	verb	list	1	14	match	plonger	5	1	y	0.78541
563.5831000000001	0.0	[response]	57	verb	list	1	15	match	plonger	5	1	y	0.78541
565.1975	0.0	+	58	verb	phrase	1	1	nomatch	jean	-1	1	p	1.4548000000000003
565.7474	0.2	kztg	58	verb	phrase	1	2	nomatch	jean	-1	1	p	1.4548000000000003
565.9474	0.0	+	58	verb	phrase	1	3	nomatch	jean	-1	1	p	1.4548000000000003
566.3474	0.2	frjv	58	verb	phrase	1	4	nomatch	jean	-1	1	p	1.4548000000000003
566.5473999999999	0.0	+	58	verb	phrase	1	5	nomatch	jean	-1	1	p	1.4548000000000003
566.9472999999999	0.2	qgkm	58	verb	phrase	1	6	nomatch	jean	-1	1	p	1.4548000000000003
567.1473	0.0	+	58	verb	phrase	1	7	nomatch	jean	-1	1	p	1.4548000000000003
567.5473	0.2	ftxvqrb	58	verb	phrase	1	8	nomatch	jean	-1	1	p	1.4548000000000003
567.7473	0.0	+	58	verb	phrase	1	9	nomatch	jean	-1	1	p	1.4548000000000003
568.1473	0.2	ainsi	58	verb	phrase	1	10	nomatch	jean	-1	1	p	1.4548000000000003
568.3471999999999	0.0	+	58	verb	phrase	1	11	nomatch	jean	-1	1	p	1.4548000000000003
568.7472	0.0	+	58	verb	phrase	1	12	nomatch	jean	-1	1	p	1.4548000000000003
570.7470999999999	0.0	JEAN	58	verb	phrase	1	13	nomatch	jean	-1	1	p	1.4548000000000003
572.2636	0.0	+	58	verb	phrase	1	14	nomatch	jean	-1	1	p	1.4548000000000003
572.2017999999999	0.0	[response]	58	verb	phrase	1	15	nomatch	jean	-1	1	p	1.4548000000000003
573.1469	0.0	+	59	verb	list	1	1	nomatch	petit	-1	1	p	0.59939
573.6967999999999	0.2	dqnt	59	verb	list	1	2	nomatch	petit	-1	1	p	0.59939
573.8968	0.0	+	59	verb	list	1	3	nomatch	petit	-1	1	p	0.59939
574.2968	0.2	fhsq	59	verb	list	1	4	nomatch	petit	-1	1	p	0.59939
574.4968	0.0	+	59	verb	list	1	5	nomatch	petit	-1	1	p	0.59939
574.8967	0.2	lnfq	59	verb	list	1	6	nomatch	petit	-1	1	p	0.59939
575.0966999999999	0.0	+	59	verb	list	1	7	nomatch	petit	-1	1	p	0.59939
575.4967	0.2	cfjvpt	59	verb	list	1	8	nomatch	petit	-1	1	p	0.59939
575.6967	0.0	+	59	verb	list	1	9	nomatch	petit	-1	1	p	0.59939
576.0966	0.2	grand	59	verb	list	1	10	nomatch	petit	-1	1	p	0.59939
576.2966	0.0	+	59	verb	list	1	11	nomatch	petit	-1	1	p	0.59939
576.6966	0.0	+	59	verb	list	1	12	nomatch	petit	-1	1	p	0.59939
578.6963999999999	0.0	PETIT	59	verb	list	1	13	nomatch	petit	-1	1	p	0.59939
579.3631	0.0	+	59	verb	list	1	14	nomatch	petit	-1	1	p	0.59939
579.2958	0.0	[response]	59	verb	list	1	15	nomatch	petit	-1	1	p	0.59939
581.0962	0.0	+	60	noun	phrase	1	1	nomatch	grenier	-1	1	p	1.0712
581.6462	0.2	vphwxmj	60	noun	phrase	1	2	nomatch	grenier	-1	1	p	1.0712
581.8462	0.0	+	60	noun	phrase	1	3	nomatch	grenier	-1	1	p	1.0712
582.2461999999999	0.2	dtnl	60	noun	phrase	1	4	nomatch	grenier	-1	1	p	1.0712
582.4462	0.0	+	60	noun	phrase	1	5	nomatch	grenier	-1	1	p	1.0712
582.8461	0.2	mwvt	60	noun	phrase	1	6	nomatch	grenier	-1	1	p	1.0712
583.0461	0.0	+	60	noun	phrase	1	7	nomatch	grenier	-1	1	p	1.0712
583.4461	0.2	brjsw	60	noun	phrase	1	8	nomatch	grenier	-1	1	p	1.0712
583.6460999999999	0.0	+	60	noun	phrase	1	9	nomatch	grenier	-1	1	p	1.0712
584.0459999999999	0.2	boîtier	60	noun	phrase	1	10	nomatch	grenier	-1	1	p	1.0712
584.246	0.0	+	60	noun	phrase	1	11	nomatch	grenier	-1	1	p	1.0712
584.646	0.0	+	60	noun	phrase	1	12	nomatch	grenier	-1	1	p	1.0712
586.6458	0.0	GRENIER	60	noun	phrase	1	13	nomatch	grenier	-1	1	p	1.0712
587.7791	0.0	+	60	noun	phrase	1	14	nomatch	grenier	-1	1	p	1.0712
587.7171	0.0	[response]	60	noun	phrase	1	15	nomatch	grenier	-1	1	p	1.0712
589.0455999999999	0.0	+	61	verb	list	3	1	match	mon	3	1	y	0.65129
589.5956	0.2	trpmbw	61	verb	list	3	2	match	mon	3	1	y	0.65129
589.7955999999999	0.0	+	61	verb	list	3	3	match	mon	3	1	y	0.65129
590.1956	0.2	xfct	61	verb	list	3	4	match	mon	3	1	y	0.65129
590.3955	0.0	+	61	verb	list	3	5	match	mon	3	1	y	0.65129
590.7955	0.2	mon	61	verb	list	3	6	match	mon	3	1	y	0.65129
590.9955	0.0	+	61	verb	list	3	7	match	mon	3	1	y	0.65129
591.3955	0.2	rouler	61	verb	list	3	8	match	mon	3	1	y	0.65129
591.5953999999999	0.0	+	61	verb	list	3	9	match	mon	3	1	y	0.65129
591.9954	0.2	blanc	61	verb	list	3	10	match	mon	3	1	y	0.65129
592.1954	0.0	+	61	verb	list	3	11	match	mon	3	1	y	0.65129
592.5953999999999	0.0	+	61	verb	list	3	12	match	mon	3	1	y	0.65129
594.5952	0.0	MON	61	verb	list	3	13	match	mon	3	1	y	0.65129
595.3118	0.0	+	61	verb	list	3	14	match	mon	3	1	y	0.65129
595.2465000000001	0.0	[response]	61	verb	list	3	15	match	mon	3	1	y	0.65129
596.995	0.0	+	62	noun	list	3	1	match	rocher	4	1	y	0.60293
597.545	0.2	kfnpst	62	noun	list	3	2	match	rocher	4	1	y	0.60293
597.745	0.0	+	62	noun	list	3	3	match	rocher	4	1	y	0.60293
598.1449	0.2	xsh	62	noun	list	3	4	match	rocher	4	1	y	0.60293
598.3448999999999	0.0	+	62	noun	list	3	5	match	rocher	4	1	y	0.60293
598.7449	0.2	peut	62	noun	list	3	6	match	rocher	4	1	y	0.60293
598.9449	0.0	+	62	noun	list	3	7	match	rocher	4	1	y	0.60293
599.3448	0.2	rocher	62	noun	list	3	8	match	rocher	4	1	y	0.60293
599.5448	0.0	+	62	noun	list	3	9	match	rocher	4	1	y	0.60293
599.9448	0.2	tôt	62	noun	list	3	10	match	rocher	4	1	y	0.60293
600.1448	0.0	+	62	noun	list	3	11	match	rocher	4	1	y	0.60293
600.5448	0.0	+	62	noun	list	3	12	match	rocher	4	1	y	0.60293
602.5446	0.0	ROCHER	62	noun	list	3	13	match	rocher	4	1	y	0.60293
603.2112	0.0	+	62	noun	list	3	14	match	rocher	4	1	y	0.60293
603.1474999999999	0.0	[response]	62	noun	list	3	15	match	rocher	4	1	y	0.60293
604.9444	0.0	+	63	verb	list	1	1	match	beau	5	1	y	0.48402
605.4943999999999	0.2	gnc	63	verb	list	1	2	match	beau	5	1	y	0.48402
605.6944	0.0	+	63	verb	list	1	3	match	beau	5	1	y	0.48402
606.0943	0.2	lnfq	63	verb	list	1	4	match	beau	5	1	y	0.48402
606.2943	0.0	+	63	verb	list	1	5	match	beau	5	1	y	0.48402
606.6943	0.2	lnfq	63	verb	list	1	6	match	beau	5	1	y	0.48402
606.8942999999999	0.0	+	63	verb	list	1	7	match	beau	5	1	y	0.48402
607.2941999999999	0.2	fvjzng	63	verb	list	1	8	match	beau	5	1	y	0.48402
607.4942	0.0	+	63	verb	list	1	9	match	beau	5	1	y	0.48402
607.8942	0.2	beau	63	verb	list	1	10	match	beau	5	1	y	0.48402
608.0942	0.0	+	63	verb	list	1	11	match	beau	5	1	y	0.48402
608.4941	0.0	+	63	verb	list	1	12	match	beau	5	1	y	0.48402
610.494	0.0	BEAU	63	verb	list	1	13	match	beau	5	1	y	0.48402
611.0439	0.0	+	63	verb	list	1	14	match	beau	5	1	y	0.48402
610.978	0.0	[response]	63	verb	list	1	15	match	beau	5	1	y	0.48402
620.8932	0.0	+	64	verb	phrase	1	1	match	rouler	5	1	y	0.5194
621.4431	0.2	rtpqgzc	64	verb	phrase	1	2	match	rouler	5	1	y	0.5194
621.6431	0.0	+	64	verb	phrase	1	3	match	rouler	5	1	y	0.5194
622.0431	0.2	kjs	64	verb	phrase	1	4	match	rouler	5	1	y	0.5194
622.2431	0.0	+	64	verb	phrase	1	5	match	rouler	5	1	y	0.5194
622.6431	0.2	ms	64	verb	phrase	1	6	match	rouler	5	1	y	0.5194
622.843	0.0	+	64	verb	phrase	1	7	match	rouler	5	1	y	0.5194
623.2429999999999	0.2	hlrv	64	verb	phrase	1	8	match	rouler	5	1	y	0.5194
623.443	0.0	+	64	verb	phrase	1	9	match	rouler	5	1	y	0.5194
623.843	0.2	rouler	64	verb	phrase	1	10	match	rouler	5	1	y	0.5194
624.0429	0.0	+	64	verb	phrase	1	11	match	rouler	5	1	y	0.5194
624.4429	0.0	+	64	verb	phrase	1	12	match	rouler	5	1	y	0.5194
626.4428	0.0	ROULER	64	verb	phrase	1	13	match	rouler	5	1	y	0.5194
627.026	0.0	+	64	verb	phrase	1	14	match	rouler	5	1	y	0.5194
626.9621999999999	0.0	[response]	64	verb	phrase	1	15	match	rouler	5	1	y	0.5194
628.8426	0.0	+	65	verb	list	4	1	match	mon	3	1	y	1.1418
629.3924999999999	0.2	snwvck	65	verb	list	4	2	match	mon	3	1	y	1.1418
629.5925	0.0	+	65	verb	list	4	3	match	mon	3	1	y	1.1418
629.9925	0.2	luc	65	verb	list	4	4	match	mon	3	1	y	1.1418
630.1925	0.0	+	65	verb	list	4	5	match	mon	3	1	y	1.1418
630.5924	0.2	mon	65	verb	list	4	6	match	mon	3	1	y	1.1418
630.7923999999999	0.0	+	65	verb	list	4	7	match	mon	3	1	y	1.1418
631.1924	0.2	plonger	65	verb	list	4	8	match	mon	3	1	y	1.1418
631.3924	0.0	+	65	verb	list	4	9	match	mon	3	1	y	1.1418
631.7923999999999	0.2	blanc	65	verb	list	4	10	match	mon	3	1	y	1.1418
631.9923	0.0	+	65	verb	list	4	11	match	mon	3	1	y	1.1418
632.3923	0.0	+	65	verb	list	4	12	match	mon	3	1	y	1.1418
634.3921	0.0	MON	65	verb	list	4	13	match	mon	3	1	y	1.1418
635.592	0.0	+	65	verb	list	4	14	match	mon	3	1	y	1.1418
635.534	0.0	[response]	65	verb	list	4	15	match	mon	3	1	y	1.1418
636.792	0.0	+	66	verb	list	3	1	match	doit	3	1	y	0.63425
637.3419	0.2	tcg	66	verb	list	3	2	match	doit	3	1	y	0.63425
637.5418999999999	0.0	+	66	verb	list	3	3	match	doit	3	1	y	0.63425
637.9419	0.2	fhsq	66	verb	list	3	4	match	doit	3	1	y	0.63425
638.1419	0.0	+	66	verb	list	3	5	match	doit	3	1	y	0.63425
638.5418	0.2	doit	66	verb	list	3	6	match	doit	3	1	y	0.63425
638.7418	0.0	+	66	verb	list	3	7	match	doit	3	1	y	0.63425
639.1418	0.2	grand	66	verb	list	3	8	match	doit	3	1	y	0.63425
639.3418	0.0	+	66	verb	list	3	9	match	doit	3	1	y	0.63425
639.7416999999999	0.2	danser	66	verb	list	3	10	match	doit	3	1	y	0.63425
639.9417	0.0	+	66	verb	list	3	11	match	doit	3	1	y	0.63425
640.3417	0.0	+	66	verb	list	3	12	match	doit	3	1	y	0.63425
642.3415	0.0	DOIT	66	verb	list	3	13	match	doit	3	1	y	0.63425
643.0414999999999	0.0	+	66	verb	list	3	14	match	doit	3	1	y	0.63425
642.9757999999999	0.0	[response]	66	verb	list	3	15	match	doit	3	1	y	0.63425
644.7413	0.0	+	67	verb	phrase	3	1	nomatch	galoper	-1	1	p	1.2585
645.2913	0.2	nrxg	67	verb	phrase	3	2	nomatch	galoper	-1	1	p	1.2585
645.4913	0.0	+	67	verb	phrase	3	3	nomatch	galoper	-1	1	p	1.2585
645.8913	0.2	mrzd	67	verb	phrase	3	4	nomatch	galoper	-1	1	p	1.2585
646.0912	0.0	+	67	verb	phrase	3	5	nomatch	galoper	-1	1	p	1.2585
646.4911999999999	0.2	va	67	verb	phrase	3	6	nomatch	galoper	-1	1	p	1.2585
646.6912	0.0	+	67	verb	phrase	3	7	nomatch	galoper	-1	1	p	1.2585
647.0912	0.2	nager	67	verb	phrase	3	8	nomatch	galoper	-1	1	p	1.2585
647.2912	0.0	+	67	verb	phrase	3	9	nomatch	galoper	-1	1	p	1.2585
647.6911	0.2	tard	67	verb	phrase	3	10	nomatch	galoper	-1	1	p	1.2585
647.8910999999999	0.0	+	67	verb	phrase	3	11	nomatch	galoper	-1	1	p	1.2585
648.2911	0.0	+	67	verb	phrase	3	12	nomatch	galoper	-1	1	p	1.2585
650.2909	0.0	GALOPER	67	verb	phrase	3	13	nomatch	galoper	-1	1	p	1.2585
651.6075	0.0	+	67	verb	phrase	3	14	nomatch	galoper	-1	1	p	1.2585
651.5494000000001	0.0	[response]	67	verb	phrase	3	15	nomatch	galoper	-1	1	p	1.2585
652.6907	0.0	+	68	noun	list	2	1	match	tôt	5	1	y	0.86076
653.2407	0.2	clz	68	noun	list	2	2	match	tôt	5	1	y	0.86076
653.4407	0.0	+	68	noun	list	2	3	match	tôt	5	1	y	0.86076
653.8407	0.2	ngcx	68	noun	list	2	4	match	tôt	5	1	y	0.86076
654.0405999999999	0.0	+	68	noun	list	2	5	match	tôt	5	1	y	0.86076
654.4406	0.2	ms	68	noun	list	2	6	match	tôt	5	1	y	0.86076
654.6406	0.0	+	68	noun	list	2	7	match	tôt	5	1	y	0.86076
655.0405999999999	0.2	cendrier	68	noun	list	2	8	match	tôt	5	1	y	0.86076
655.2405	0.0	+	68	noun	list	2	9	match	tôt	5	1	y	0.86076
655.6405	0.2	tôt	68	noun	list	2	10	match	tôt	5	1	y	0.86076
655.8405	0.0	+	68	noun	list	2	11	match	tôt	5	1	y	0.86076
656.2405	0.0	+	68	noun	list	2	12	match	tôt	5	1	y	0.86076
658.2402999999999	0.0	TÔT	68	noun	list	2	13	match	tôt	5	1	y	0.86076
659.1569	0.0	+	68	noun	list	2	14	match	tôt	5	1	y	0.86076
659.1011	0.0	[response]	68	noun	list	2	15	match	tôt	5	1	y	0.86076
660.6401	0.0	+	69	verb	list	3	1	nomatch	vert	-1	1	p	1.0185
661.1901	0.2	hwr	69	verb	list	3	2	nomatch	vert	-1	1	p	1.0185
661.3901	0.0	+	69	verb	list	3	3	nomatch	vert	-1	1	p	1.0185
661.79	0.2	frjv	69	verb	list	3	4	nomatch	vert	-1	1	p	1.0185
661.99	0.0	+	69	verb	list	3	5	nomatch	vert	-1	1	p	1.0185
662.39	0.2	leur	69	verb	list	3	6	nomatch	vert	-1	1	p	1.0185
662.59	0.0	+	69	verb	list	3	7	nomatch	vert	-1	1	p	1.0185
662.9899	0.2	nager	69	verb	list	3	8	nomatch	vert	-1	1	p	1.0185
663.1899	0.0	+	69	verb	list	3	9	nomatch	vert	-1	1	p	1.0185
663.5899	0.2	blanc	69	verb	list	3	10	nomatch	vert	-1	1	p	1.0185
663.7899	0.0	+	69	verb	list	3	11	nomatch	vert	-1	1	p	1.0185
664.1899	0.0	+	69	verb	list	3	12	nomatch	vert	-1	1	p	1.0185
666.1897	0.0	VERT	69	verb	list	3	13	nomatch	vert	-1	1	p	1.0185
667.2728999999999	0.0	+	69	verb	list	3	14	nomatch	vert	-1	1	p	1.0185
667.2082	0.0	[response]	69	verb	list	3	15	nomatch	vert	-1	1	p	1.0185
668.5894999999999	0.0	+	70	noun	list	1	1	match	tablier	5	1	y	0.59912
669.1395	0.2	cbst	70	noun	list	1	2	match	tablier	5	1	y	0.59912
669.3394999999999	0.0	+	70	noun	list	1	3	match	tablier	5	1	y	0.59912
669.7393999999999	0.2	kjs	70	noun	list	1	4	match	tablier	5	1	y	0.59912
669.9394	0.0	+	70	noun	list	1	5	match	tablier	5	1	y	0.59912
670.3394	0.2	hkq	70	noun	list	1	6	match	tablier	5	1	y	0.59912
670.5394	0.0	+	70	noun	list	1	7	match	tablier	5	1	y	0.59912
670.9393	0.2	qdgrc	70	noun	list	1	8	match	tablier	5	1	y	0.59912
671.1392999999999	0.0	+	70	noun	list	1	9	match	tablier	5	1	y	0.59912
671.5393	0.2	tablier	70	noun	list	1	10	match	tablier	5	1	y	0.59912
671.7393	0.0	+	70	noun	list	1	11	match	tablier	5	1	y	0.59912
672.1392	0.0	+	70	noun	list	1	12	match	tablier	5	1	y	0.59912
674.1391	0.0	TABLIER	70	noun	list	1	13	match	tablier	5	1	y	0.59912
674.8057	0.0	+	70	noun	list	1	14	match	tablier	5	1	y	0.59912
674.7382	0.0	[response]	70	noun	list	1	15	match	tablier	5	1	y	0.59912
676.5389	0.0	+	71	verb	phrase	1	1	nomatch	plus	-1	1	p	0.60653
677.0889	0.2	rbjhtc	71	verb	phrase	1	2	nomatch	plus	-1	1	p	0.60653
677.2887999999999	0.0	+	71	verb	phrase	1	3	nomatch	plus	-1	1	p	0.60653
677.6888	0.2	mrzd	71	verb	phrase	1	4	nomatch	plus	-1	1	p	0.60653
677.8888	0.0	+	71	verb	phrase	1	5	nomatch	plus	-1	1	p	0.60653
678.2887999999999	0.2	lnfq	71	verb	phrase	1	6	nomatch	plus	-1	1	p	0.60653
678.4888	0.0	+	71	verb	phrase	1	7	nomatch	plus	-1	1	p	0.60653
678.8887	0.2	ftxvqrb	71	verb	phrase	1	8	nomatch	plus	-1	1	p	0.60653
679.0887	0.0	+	71	verb	phrase	1	9	nomatch	plus	-1	1	p	0.60653
679.4887	0.2	mieux	71	verb	phrase	1	10	nomatch	plus	-1	1	p	0.60653
679.6886999999999	0.0	+	71	verb	phrase	1	11	nomatch	plus	-1	1	p	0.60653
680.0885999999999	0.0	+	71	verb	phrase	1	12	nomatch	plus	-1	1	p	0.60653
682.0885	0.0	PLUS	71	verb	phrase	1	13	nomatch	plus	-1	1	p	0.60653
682.7551	0.0	+	71	verb	phrase	1	14	nomatch	plus	-1	1	p	0.60653
682.6949999999999	0.0	[response]	71	verb	phrase	1	15	nomatch	plus	-1	1	p	0.60653
692.4877	0.0	+	72	verb	list	1	1	nomatch	moins	-1	1	p	0.6763600000000001
693.0376	0.2	gzbs	72	verb	list	1	2	nomatch	moins	-1	1	p	0.6763600000000001
693.2375999999999	0.0	+	72	verb	list	1	3	nomatch	moins	-1	1	p	0.6763600000000001
693.6382	0.2	chdk	72	verb	list	1	4	nomatch	moins	-1	1	p	0.6763600000000001
693.8376	0.0	+	72	verb	list	1	5	nomatch	moins	-1	1	p	0.6763600000000001
694.2375	0.2	ms	72	verb	list	1	6	nomatch	moins	-1	1	p	0.6763600000000001
694.4375	0.0	+	72	verb	list	1	7	nomatch	moins	-1	1	p	0.6763600000000001
694.8375	0.2	cmjwknr	72	verb	list	1	8	nomatch	moins	-1	1	p	0.6763600000000001
695.0375	0.0	+	72	verb	list	1	9	nomatch	moins	-1	1	p	0.6763600000000001
695.4374	0.2	danser	72	verb	list	1	10	nomatch	moins	-1	1	p	0.6763600000000001
695.6374	0.0	+	72	verb	list	1	11	nomatch	moins	-1	1	p	0.6763600000000001
696.0373999999999	0.0	+	72	verb	list	1	12	nomatch	moins	-1	1	p	0.6763600000000001
698.0373	0.0	MOINS	72	verb	list	1	13	nomatch	moins	-1	1	p	0.6763600000000001
698.7705	0.0	+	72	verb	list	1	14	nomatch	moins	-1	1	p	0.6763600000000001
698.7135999999999	0.0	[response]	72	verb	list	1	15	nomatch	moins	-1	1	p	0.6763600000000001
700.4371	0.0	+	73	verb	phrase	3	1	match	beaucoup	4	1	y	0.52112
700.987	0.2	swjhl	73	verb	phrase	3	2	match	beaucoup	4	1	y	0.52112
701.187	0.0	+	73	verb	phrase	3	3	match	beaucoup	4	1	y	0.52112
701.587	0.2	kjs	73	verb	phrase	3	4	match	beaucoup	4	1	y	0.52112
701.787	0.0	+	73	verb	phrase	3	5	match	beaucoup	4	1	y	0.52112
702.1868999999999	0.2	doit	73	verb	phrase	3	6	match	beaucoup	4	1	y	0.52112
702.3869	0.0	+	73	verb	phrase	3	7	match	beaucoup	4	1	y	0.52112
702.7869	0.2	beaucoup	73	verb	phrase	3	8	match	beaucoup	4	1	y	0.52112
702.9869	0.0	+	73	verb	phrase	3	9	match	beaucoup	4	1	y	0.52112
703.3868	0.2	rouler	73	verb	phrase	3	10	match	beaucoup	4	1	y	0.52112
703.5867999999999	0.0	+	73	verb	phrase	3	11	match	beaucoup	4	1	y	0.52112
703.9868	0.0	+	73	verb	phrase	3	12	match	beaucoup	4	1	y	0.52112
705.9866	0.0	BEAUCOUP	73	verb	phrase	3	13	match	beaucoup	4	1	y	0.52112
706.5699	0.0	+	73	verb	phrase	3	14	match	beaucoup	4	1	y	0.52112
706.5078	0.0	[response]	73	verb	phrase	3	15	match	beaucoup	4	1	y	0.52112
708.3864	0.0	+	74	noun	phrase	3	1	match	tablier	5	1	y	0.60714
708.9363999999999	0.2	nqcm	74	noun	phrase	3	2	match	tablier	5	1	y	0.60714
709.1364	0.0	+	74	noun	phrase	3	3	match	tablier	5	1	y	0.60714
709.5364	0.2	dtnl	74	noun	phrase	3	4	match	tablier	5	1	y	0.60714
709.7363	0.0	+	74	noun	phrase	3	5	match	tablier	5	1	y	0.60714
710.1363	0.2	son	74	noun	phrase	3	6	match	tablier	5	1	y	0.60714
710.3362999999999	0.0	+	74	noun	phrase	3	7	match	tablier	5	1	y	0.60714
710.7363	0.2	vieux	74	noun	phrase	3	8	match	tablier	5	1	y	0.60714
710.9363	0.0	+	74	noun	phrase	3	9	match	tablier	5	1	y	0.60714
711.3362	0.2	tablier	74	noun	phrase	3	10	match	tablier	5	1	y	0.60714
711.5362	0.0	+	74	noun	phrase	3	11	match	tablier	5	1	y	0.60714
711.9362	0.0	+	74	noun	phrase	3	12	match	tablier	5	1	y	0.60714
713.9359999999999	0.0	TABLIER	74	noun	phrase	3	13	match	tablier	5	1	y	0.60714
714.6025999999999	0.0	+	74	noun	phrase	3	14	match	tablier	5	1	y	0.60714
714.5432	0.0	[response]	74	noun	phrase	3	15	match	tablier	5	1	y	0.60714
716.3358	0.0	+	75	verb	list	4	1	nomatch	vers	-1	1	p	1.0645
716.8858	0.2	lmhdgwk	75	verb	list	4	2	nomatch	vers	-1	1	p	1.0645
717.0858	0.0	+	75	verb	list	4	3	nomatch	vers	-1	1	p	1.0645
717.4857	0.2	pour	75	verb	list	4	4	nomatch	vers	-1	1	p	1.0645
717.6857	0.0	+	75	verb	list	4	5	nomatch	vers	-1	1	p	1.0645
718.0857	0.2	doit	75	verb	list	4	6	nomatch	vers	-1	1	p	1.0645
718.2857	0.0	+	75	verb	list	4	7	nomatch	vers	-1	1	p	1.0645
718.6857	0.2	petit	75	verb	list	4	8	nomatch	vers	-1	1	p	1.0645
718.8856	0.0	+	75	verb	list	4	9	nomatch	vers	-1	1	p	1.0645
719.2855999999999	0.2	galoper	75	verb	list	4	10	nomatch	vers	-1	1	p	1.0645
719.4856	0.0	+	75	verb	list	4	11	nomatch	vers	-1	1	p	1.0645
719.8856	0.0	+	75	verb	list	4	12	nomatch	vers	-1	1	p	1.0645
721.8854	0.0	VERS	75	verb	list	4	13	nomatch	vers	-1	1	p	1.0645
723.0186	0.0	+	75	verb	list	4	14	nomatch	vers	-1	1	p	1.0645
722.9499	0.0	[response]	75	verb	list	4	15	nomatch	vers	-1	1	p	1.0645
724.2852	0.0	+	76	verb	list	4	1	nomatch	sous	-1	1	p	1.2712
724.8352	0.2	clp	76	verb	list	4	2	nomatch	sous	-1	1	p	1.2712
725.0352	0.0	+	76	verb	list	4	3	nomatch	sous	-1	1	p	1.2712
725.4351	0.2	paul	76	verb	list	4	4	nomatch	sous	-1	1	p	1.2712
725.6351	0.0	+	76	verb	list	4	5	nomatch	sous	-1	1	p	1.2712
726.0350999999999	0.2	son	76	verb	list	4	6	nomatch	sous	-1	1	p	1.2712
726.2351	0.0	+	76	verb	list	4	7	nomatch	sous	-1	1	p	1.2712
726.635	0.2	nager	76	verb	list	4	8	nomatch	sous	-1	1	p	1.2712
726.8349999999999	0.0	+	76	verb	list	4	9	nomatch	sous	-1	1	p	1.2712
727.235	0.2	rouge	76	verb	list	4	10	nomatch	sous	-1	1	p	1.2712
727.435	0.0	+	76	verb	list	4	11	nomatch	sous	-1	1	p	1.2712
727.8349	0.0	+	76	verb	list	4	12	nomatch	sous	-1	1	p	1.2712
729.8515	0.0	SOUS	76	verb	list	4	13	nomatch	sous	-1	1	p	1.2712
731.1847	0.0	+	76	verb	list	4	14	nomatch	sous	-1	1	p	1.2712
731.1226	0.0	[response]	76	verb	list	4	15	nomatch	sous	-1	1	p	1.2712
732.2513	0.0	+	77	verb	phrase	4	1	match	chasser	5	1	y	0.8320300000000002
732.8012	0.2	qxsltjr	77	verb	phrase	4	2	match	chasser	5	1	y	0.8320300000000002
733.0011999999999	0.0	+	77	verb	phrase	4	3	match	chasser	5	1	y	0.8320300000000002
733.4012	0.2	jade	77	verb	phrase	4	4	match	chasser	5	1	y	0.8320300000000002
733.6012	0.0	+	77	verb	phrase	4	5	match	chasser	5	1	y	0.8320300000000002
734.0011	0.2	peut	77	verb	phrase	4	6	match	chasser	5	1	y	0.8320300000000002
734.2011	0.0	+	77	verb	phrase	4	7	match	chasser	5	1	y	0.8320300000000002
734.6011	0.2	plus	77	verb	phrase	4	8	match	chasser	5	1	y	0.8320300000000002
734.8011	0.0	+	77	verb	phrase	4	9	match	chasser	5	1	y	0.8320300000000002
735.2011	0.2	chasser	77	verb	phrase	4	10	match	chasser	5	1	y	0.8320300000000002
735.401	0.0	+	77	verb	phrase	4	11	match	chasser	5	1	y	0.8320300000000002
735.8009999999999	0.0	+	77	verb	phrase	4	12	match	chasser	5	1	y	0.8320300000000002
737.8009	0.0	CHASSER	77	verb	phrase	4	13	match	chasser	5	1	y	0.8320300000000002
738.7008	0.0	+	77	verb	phrase	4	14	match	chasser	5	1	y	0.8320300000000002
738.6329	0.0	[response]	77	verb	phrase	4	15	match	chasser	5	1	y	0.8320300000000002
740.2007	0.0	+	78	verb	list	2	1	nomatch	son	-1	1	p	0.7848400000000001
740.7506	0.2	cvpmk	78	verb	list	2	2	nomatch	son	-1	1	p	0.7848400000000001
740.9506	0.0	+	78	verb	list	2	3	nomatch	son	-1	1	p	0.7848400000000001
741.3506	0.2	jkvt	78	verb	list	2	4	nomatch	son	-1	1	p	0.7848400000000001
741.5506	0.0	+	78	verb	list	2	5	nomatch	son	-1	1	p	0.7848400000000001
741.9505	0.2	psl	78	verb	list	2	6	nomatch	son	-1	1	p	0.7848400000000001
742.1505	0.0	+	78	verb	list	2	7	nomatch	son	-1	1	p	0.7848400000000001
742.5509999999999	0.2	galoper	78	verb	list	2	8	nomatch	son	-1	1	p	0.7848400000000001
742.7505	0.0	+	78	verb	list	2	9	nomatch	son	-1	1	p	0.7848400000000001
743.1504	0.2	blanc	78	verb	list	2	10	nomatch	son	-1	1	p	0.7848400000000001
743.3503999999999	0.0	+	78	verb	list	2	11	nomatch	son	-1	1	p	0.7848400000000001
743.7504	0.0	+	78	verb	list	2	12	nomatch	son	-1	1	p	0.7848400000000001
745.7502	0.0	SON	78	verb	list	2	13	nomatch	son	-1	1	p	0.7848400000000001
746.6002	0.0	+	78	verb	list	2	14	nomatch	son	-1	1	p	0.7848400000000001
746.5350999999999	0.0	[response]	78	verb	list	2	15	nomatch	son	-1	1	p	0.7848400000000001
748.15	0.0	+	79	verb	list	1	1	match	chasser	5	1	y	0.7275
748.6999999999999	0.2	mqtzvp	79	verb	list	1	2	match	chasser	5	1	y	0.7275
748.9	0.0	+	79	verb	list	1	3	match	chasser	5	1	y	0.7275
749.3	0.2	chdk	79	verb	list	1	4	match	chasser	5	1	y	0.7275
749.4999	0.0	+	79	verb	list	1	5	match	chasser	5	1	y	0.7275
749.8999	0.2	lnfq	79	verb	list	1	6	match	chasser	5	1	y	0.7275
750.0998999999999	0.0	+	79	verb	list	1	7	match	chasser	5	1	y	0.7275
750.4999	0.2	gbnx	79	verb	list	1	8	match	chasser	5	1	y	0.7275
750.6999	0.0	+	79	verb	list	1	9	match	chasser	5	1	y	0.7275
751.0998	0.2	chasser	79	verb	list	1	10	match	chasser	5	1	y	0.7275
751.2998	0.0	+	79	verb	list	1	11	match	chasser	5	1	y	0.7275
751.6998	0.0	+	79	verb	list	1	12	match	chasser	5	1	y	0.7275
753.6996	0.0	CHASSER	79	verb	list	1	13	match	chasser	5	1	y	0.7275
754.4829	0.0	+	79	verb	list	1	14	match	chasser	5	1	y	0.7275
754.4271	0.0	[response]	79	verb	list	1	15	match	chasser	5	1	y	0.7275
756.0994	0.0	+	80	verb	list	4	1	nomatch	son	-1	1	p	1.3614
756.6494	0.2	lcb	80	verb	list	4	2	nomatch	son	-1	1	p	1.3614
756.8494	0.0	+	80	verb	list	4	3	nomatch	son	-1	1	p	1.3614
757.2493999999999	0.2	marc	80	verb	list	4	4	nomatch	son	-1	1	p	1.3614
757.4493	0.0	+	80	verb	list	4	5	nomatch	son	-1	1	p	1.3614
757.8493	0.2	mon	80	verb	list	4	6	nomatch	son	-1	1	p	1.3614
758.0493	0.0	+	80	verb	list	4	7	nomatch	son	-1	1	p	1.3614
758.4493	0.2	voyager	80	verb	list	4	8	nomatch	son	-1	1	p	1.3614
758.6492	0.0	+	80	verb	list	4	9	nomatch	son	-1	1	p	1.3614
759.0491999999999	0.2	bleu	80	verb	list	4	10	nomatch	son	-1	1	p	1.3614
759.2492	0.0	+	80	verb	list	4	11	nomatch	son	-1	1	p	1.3614
759.6492	0.0	+	80	verb	list	4	12	nomatch	son	-1	1	p	1.3614
761.649	0.0	SON	80	verb	list	4	13	nomatch	son	-1	1	p	1.3614
763.0656	0.0	+	80	verb	list	4	14	nomatch	son	-1	1	p	1.3614
764.0488	0.0	+	80	verb	list	4	15	nomatch	son	-1	1	p	1.3614
765.0154	0.0	+	80	verb	list	4	16	nomatch	son	-1	1	p	1.3614
765.1154	0.0	+	80	verb	list	4	17	nomatch	son	-1	1	p	1.3614
766.482	0.0	+	80	verb	list	4	18	nomatch	son	-1	1	p	1.3614
766.582	0.0	+	80	verb	list	4	19	nomatch	son	-1	1	p	1.3614
767.9984999999999	0.0	+	80	verb	list	4	20	nomatch	son	-1	1	p	1.3614
768.0985	0.0	+	80	verb	list	4	21	nomatch	son	-1	1	p	1.3614
769.5151	0.0	+	80	verb	list	4	22	nomatch	son	-1	1	p	1.3614
769.6151	0.0	+	80	verb	list	4	23	nomatch	son	-1	1	p	1.3614
771.0149	0.0	+	80	verb	list	4	24	nomatch	son	-1	1	p	1.3614
771.1149	0.0	+	80	verb	list	4	25	nomatch	son	-1	1	p	1.3614
772.5147999999999	0.0	+	80	verb	list	4	26	nomatch	son	-1	1	p	1.3614
772.6148	0.0	+	80	verb	list	4	27	nomatch	son	-1	1	p	1.3614
774.0147	0.0	+	80	verb	list	4	28	nomatch	son	-1	1	p	1.3614
774.1147	0.0	+	80	verb	list	4	29	nomatch	son	-1	1	p	1.3614
775.5146	0.0	+	80	verb	list	4	30	nomatch	son	-1	1	p	1.3614
775.6146	0.0	+	80	verb	list	4	31	nomatch	son	-1	1	p	1.3614
777.0145	0.0	+	80	verb	list	4	32	nomatch	son	-1	1	p	1.3614
777.1145	0.0	+	80	verb	list	4	33	nomatch	son	-1	1	p	1.3614
778.5144	0.0	+	80	verb	list	4	34	nomatch	son	-1	1	p	1.3614
778.6143999999999	0.0	+	80	verb	list	4	35	nomatch	son	-1	1	p	1.3614
781.5975	0.0	+	80	verb	list	4	36	nomatch	son	-1	1	p	1.3614
763.0104000000001	0.0	[response]	80	verb	list	4	37	nomatch	son	-1	1	p	1.3614
