onset	duration	stim	trial_number	trial_type	trial_structure	trial_length	sequential_position	probe_type	probe	probe_position	response_correct	response_key	response_time
0.056800000000002626	0.0	+	1	noun	list	3	1	nomatch	trop	-1	1	y	1.0351
0.5399000000000029	0.2	klvfgc	1	noun	list	3	2	nomatch	trop	-1	1	y	1.0351
0.7398000000000025	0.0	+	1	noun	list	3	3	nomatch	trop	-1	1	y	1.0351
1.1396000000000015	0.2	ztfk	1	noun	list	3	4	nomatch	trop	-1	1	y	1.0351
1.3398000000000039	0.0	+	1	noun	list	3	5	nomatch	trop	-1	1	y	1.0351
1.7394000000000034	0.2	son	1	noun	list	3	6	nomatch	trop	-1	1	y	1.0351
1.939300000000003	0.0	+	1	noun	list	3	7	nomatch	trop	-1	1	y	1.0351
2.339100000000002	0.2	mieux	1	noun	list	3	8	nomatch	trop	-1	1	y	1.0351
2.5390000000000015	0.0	+	1	noun	list	3	9	nomatch	trop	-1	1	y	1.0351
2.9388000000000005	0.2	sablier	1	noun	list	3	10	nomatch	trop	-1	1	y	1.0351
3.1387	0.0	+	1	noun	list	3	11	nomatch	trop	-1	1	y	1.0351
3.5386000000000024	0.0	+	1	noun	list	3	12	nomatch	trop	-1	1	y	1.0351
5.555	0.0	TROP	1	noun	list	3	13	nomatch	trop	-1	1	y	1.0351
6.653800000000004	0.0	+	1	noun	list	3	14	nomatch	trop	-1	1	y	1.0351
6.59020000000001	0.0	[response]	1	noun	list	3	15	nomatch	trop	-1	1	y	1.0351
7.9365999999999985	0.0	+	2	noun	phrase	1	1	nomatch	danser	-1	0	p	0.76582
8.4863	0.2	jdclrpn	2	noun	phrase	1	2	nomatch	danser	-1	0	p	0.76582
8.686300000000003	0.0	+	2	noun	phrase	1	3	nomatch	danser	-1	0	p	0.76582
9.086100000000002	0.2	fcvw	2	noun	phrase	1	4	nomatch	danser	-1	0	p	0.76582
9.286000000000001	0.0	+	2	noun	phrase	1	5	nomatch	danser	-1	0	p	0.76582
9.702800000000003	0.2	fbd	2	noun	phrase	1	6	nomatch	danser	-1	0	p	0.76582
9.885800000000003	0.0	+	2	noun	phrase	1	7	nomatch	danser	-1	0	p	0.76582
10.285499999999999	0.2	xvlg	2	noun	phrase	1	8	nomatch	danser	-1	0	p	0.76582
10.485399999999998	0.0	+	2	noun	phrase	1	9	nomatch	danser	-1	0	p	0.76582
10.902100000000004	0.2	boîtier	2	noun	phrase	1	10	nomatch	danser	-1	0	p	0.76582
11.085800000000006	0.0	+	2	noun	phrase	1	11	nomatch	danser	-1	0	p	0.76582
11.485399999999998	0.0	+	2	noun	phrase	1	12	nomatch	danser	-1	0	p	0.76582
13.484800000000007	0.0	DANSER	2	noun	phrase	1	13	nomatch	danser	-1	0	p	0.76582
14.317000000000007	0.0	+	2	noun	phrase	1	14	nomatch	danser	-1	0	p	0.76582
14.250600000000006	0.0	[response]	2	noun	phrase	1	15	nomatch	danser	-1	0	p	0.76582
15.899699999999996	0.0	+	3	noun	phrase	3	1	nomatch	son	-1	1	y	0.57076
16.449399999999997	0.2	bcthm	3	noun	phrase	3	2	nomatch	son	-1	1	y	0.57076
16.649299999999997	0.0	+	3	noun	phrase	3	3	nomatch	son	-1	1	y	0.57076
17.0492	0.2	tdmv	3	noun	phrase	3	4	nomatch	son	-1	1	y	0.57076
17.2491	0.0	+	3	noun	phrase	3	5	nomatch	son	-1	1	y	0.57076
17.648899999999998	0.2	leur	3	noun	phrase	3	6	nomatch	son	-1	1	y	0.57076
17.849100000000007	0.0	+	3	noun	phrase	3	7	nomatch	son	-1	1	y	0.57076
18.2487	0.2	cendrier	3	noun	phrase	3	8	nomatch	son	-1	1	y	0.57076
18.4486	0.0	+	3	noun	phrase	3	9	nomatch	son	-1	1	y	0.57076
18.8489	0.2	rouge	3	noun	phrase	3	10	nomatch	son	-1	1	y	0.57076
19.0655	0.0	+	3	noun	phrase	3	11	nomatch	son	-1	1	y	0.57076
19.448099999999997	0.0	+	3	noun	phrase	3	12	nomatch	son	-1	1	y	0.57076
21.447199999999995	0.0	SON	3	noun	phrase	3	13	nomatch	son	-1	1	y	0.57076
22.080200000000005	0.0	+	3	noun	phrase	3	14	nomatch	son	-1	1	y	0.57076
22.017899999999997	0.0	[response]	3	noun	phrase	3	15	nomatch	son	-1	1	y	0.57076
23.846100000000007	0.0	+	4	noun	list	3	1	nomatch	vite	-1	1	y	0.91547
24.395899999999997	0.2	lgmntp	4	noun	list	3	2	nomatch	vite	-1	1	y	0.91547
24.595799999999997	0.0	+	4	noun	list	3	3	nomatch	vite	-1	1	y	0.91547
24.995599999999996	0.2	xpd	4	noun	list	3	4	nomatch	vite	-1	1	y	0.91547
25.195499999999996	0.0	+	4	noun	list	3	5	nomatch	vite	-1	1	y	0.91547
25.612400000000008	0.2	doit	4	noun	list	3	6	nomatch	vite	-1	1	y	0.91547
25.795500000000004	0.0	+	4	noun	list	3	7	nomatch	vite	-1	1	y	0.91547
26.195000000000007	0.2	panier	4	noun	list	3	8	nomatch	vite	-1	1	y	0.91547
26.4122	0.0	+	4	noun	list	3	9	nomatch	vite	-1	1	y	0.91547
26.811700000000002	0.2	ainsi	4	noun	list	3	10	nomatch	vite	-1	1	y	0.91547
26.994699999999995	0.0	+	4	noun	list	3	11	nomatch	vite	-1	1	y	0.91547
27.394500000000008	0.0	+	4	noun	list	3	12	nomatch	vite	-1	1	y	0.91547
29.394000000000005	0.0	VITE	4	noun	list	3	13	nomatch	vite	-1	1	y	0.91547
30.409800000000004	0.0	+	4	noun	list	3	14	nomatch	vite	-1	1	y	0.91547
30.3095	0.0	[response]	4	noun	list	3	15	nomatch	vite	-1	1	y	0.91547
31.792500000000004	0.0	+	5	noun	phrase	1	1	nomatch	bleu	-1	1	y	0.69228
32.342299999999994	0.2	jfrb	5	noun	phrase	1	2	nomatch	bleu	-1	1	y	0.69228
32.5423	0.0	+	5	noun	phrase	1	3	nomatch	bleu	-1	1	y	0.69228
32.9426	0.2	tdmv	5	noun	phrase	1	4	nomatch	bleu	-1	1	y	0.69228
33.142300000000006	0.0	+	5	noun	phrase	1	5	nomatch	bleu	-1	1	y	0.69228
33.541799999999995	0.2	fzjl	5	noun	phrase	1	6	nomatch	bleu	-1	1	y	0.69228
33.759100000000004	0.0	+	5	noun	phrase	1	7	nomatch	bleu	-1	1	y	0.69228
34.14150000000001	0.2	lrwcdknm	5	noun	phrase	1	8	nomatch	bleu	-1	1	y	0.69228
34.34140000000001	0.0	+	5	noun	phrase	1	9	nomatch	bleu	-1	1	y	0.69228
34.741200000000006	0.2	vert	5	noun	phrase	1	10	nomatch	bleu	-1	1	y	0.69228
34.941100000000006	0.0	+	5	noun	phrase	1	11	nomatch	bleu	-1	1	y	0.69228
35.340900000000005	0.0	+	5	noun	phrase	1	12	nomatch	bleu	-1	1	y	0.69228
37.34	0.0	BLEU	5	noun	phrase	1	13	nomatch	bleu	-1	1	y	0.69228
38.08970000000001	0.0	+	5	noun	phrase	1	14	nomatch	bleu	-1	1	y	0.69228
38.032300000000006	0.0	[response]	5	noun	phrase	1	15	nomatch	bleu	-1	1	y	0.69228
39.7389	0.0	+	6	noun	list	1	1	match	panier	5	1	p	0.55003
40.2894	0.2	fngjmdq	6	noun	list	1	2	match	panier	5	1	p	0.55003
40.4892	0.0	+	6	noun	list	1	3	match	panier	5	1	p	0.55003
40.8887	0.2	ztfk	6	noun	list	1	4	match	panier	5	1	p	0.55003
41.088300000000004	0.0	+	6	noun	list	1	5	match	panier	5	1	p	0.55003
41.488200000000006	0.2	ncb	6	noun	list	1	6	match	panier	5	1	p	0.55003
41.6883	0.0	+	6	noun	list	1	7	match	panier	5	1	p	0.55003
42.087900000000005	0.2	nqsb	6	noun	list	1	8	match	panier	5	1	p	0.55003
42.287800000000004	0.0	+	6	noun	list	1	9	match	panier	5	1	p	0.55003
42.6876	0.2	panier	6	noun	list	1	10	match	panier	5	1	p	0.55003
42.8875	0.0	+	6	noun	list	1	11	match	panier	5	1	p	0.55003
43.288	0.0	+	6	noun	list	1	12	match	panier	5	1	p	0.55003
45.2864	0.0	PANIER	6	noun	list	1	13	match	panier	5	1	p	0.55003
45.9028	0.0	+	6	noun	list	1	14	match	panier	5	1	p	0.55003
45.8365	0.0	[response]	6	noun	list	1	15	match	panier	5	1	p	0.55003
47.6854	0.0	+	7	noun	phrase	1	1	match	beau	5	1	p	0.5891
48.2351	0.2	dmv	7	noun	phrase	1	2	match	beau	5	1	p	0.5891
48.435	0.0	+	7	noun	phrase	1	3	match	beau	5	1	p	0.5891
48.835499999999996	0.2	gmcl	7	noun	phrase	1	4	match	beau	5	1	p	0.5891
49.03530000000001	0.0	+	7	noun	phrase	1	5	match	beau	5	1	p	0.5891
49.435	0.2	fbd	7	noun	phrase	1	6	match	beau	5	1	p	0.5891
49.6345	0.0	+	7	noun	phrase	1	7	match	beau	5	1	p	0.5891
50.0346	0.2	tdjwhlg	7	noun	phrase	1	8	match	beau	5	1	p	0.5891
50.2342	0.0	+	7	noun	phrase	1	9	match	beau	5	1	p	0.5891
50.634	0.2	beau	7	noun	phrase	1	10	match	beau	5	1	p	0.5891
50.834	0.0	+	7	noun	phrase	1	11	match	beau	5	1	p	0.5891
51.2338	0.0	+	7	noun	phrase	1	12	match	beau	5	1	p	0.5891
53.2495	0.0	BEAU	7	noun	phrase	1	13	match	beau	5	1	p	0.5891
53.9828	0.0	+	7	noun	phrase	1	14	match	beau	5	1	p	0.5891
53.8386	0.0	[response]	7	noun	phrase	1	15	match	beau	5	1	p	0.5891
55.6485	0.0	+	8	noun	list	3	1	nomatch	jongler	-1	1	y	0.7059100000000001
56.1982	0.2	xnw	8	noun	list	3	2	nomatch	jongler	-1	1	y	0.7059100000000001
56.3981	0.0	+	8	noun	list	3	3	nomatch	jongler	-1	1	y	0.7059100000000001
56.798199999999994	0.2	sxpw	8	noun	list	3	4	nomatch	jongler	-1	1	y	0.7059100000000001
56.99850000000001	0.0	+	8	noun	list	3	5	nomatch	jongler	-1	1	y	0.7059100000000001
57.398300000000006	0.2	leur	8	noun	list	3	6	nomatch	jongler	-1	1	y	0.7059100000000001
57.6148	0.0	+	8	noun	list	3	7	nomatch	jongler	-1	1	y	0.7059100000000001
57.9974	0.2	moins	8	noun	list	3	8	nomatch	jongler	-1	1	y	0.7059100000000001
58.1973	0.0	+	8	noun	list	3	9	nomatch	jongler	-1	1	y	0.7059100000000001
58.5971	0.2	cendrier	8	noun	list	3	10	nomatch	jongler	-1	1	y	0.7059100000000001
58.797	0.0	+	8	noun	list	3	11	nomatch	jongler	-1	1	y	0.7059100000000001
59.1969	0.0	+	8	noun	list	3	12	nomatch	jongler	-1	1	y	0.7059100000000001
61.195899999999995	0.0	JONGLER	8	noun	list	3	13	nomatch	jongler	-1	1	y	0.7059100000000001
61.9623	0.0	+	8	noun	list	3	14	nomatch	jongler	-1	1	y	0.7059100000000001
61.901799999999994	0.0	[response]	8	noun	list	3	15	nomatch	jongler	-1	1	y	0.7059100000000001
71.7085	0.0	+	9	verb	phrase	2	1	match	patiner	5	1	p	0.91798
72.141	0.2	lrng	9	verb	phrase	2	2	match	patiner	5	1	p	0.91798
72.34100000000001	0.0	+	9	verb	phrase	2	3	match	patiner	5	1	p	0.91798
72.74080000000001	0.2	ckf	9	verb	phrase	2	4	match	patiner	5	1	p	0.91798
72.9407	0.0	+	9	verb	phrase	2	5	match	patiner	5	1	p	0.91798
73.3405	0.2	zhcb	9	verb	phrase	2	6	match	patiner	5	1	p	0.91798
73.5404	0.0	+	9	verb	phrase	2	7	match	patiner	5	1	p	0.91798
73.9402	0.2	mieux	9	verb	phrase	2	8	match	patiner	5	1	p	0.91798
74.1407	0.0	+	9	verb	phrase	2	9	match	patiner	5	1	p	0.91798
74.5405	0.2	patiner	9	verb	phrase	2	10	match	patiner	5	1	p	0.91798
74.7405	0.0	+	9	verb	phrase	2	11	match	patiner	5	1	p	0.91798
75.14030000000001	0.0	+	9	verb	phrase	2	12	match	patiner	5	1	p	0.91798
77.13879999999999	0.0	PATINER	9	verb	phrase	2	13	match	patiner	5	1	p	0.91798
78.1552	0.0	+	9	verb	phrase	2	14	match	patiner	5	1	p	0.91798
78.0568	0.0	[response]	9	verb	phrase	2	15	match	patiner	5	1	p	0.91798
79.53770000000002	0.0	+	10	noun	list	1	1	match	sablier	5	1	p	0.68128
80.08749999999999	0.2	xpwzmb	10	noun	list	1	2	match	sablier	5	1	p	0.68128
80.2874	0.0	+	10	noun	list	1	3	match	sablier	5	1	p	0.68128
80.68730000000001	0.2	sxpw	10	noun	list	1	4	match	sablier	5	1	p	0.68128
80.88709999999999	0.0	+	10	noun	list	1	5	match	sablier	5	1	p	0.68128
81.28689999999999	0.2	fbd	10	noun	list	1	6	match	sablier	5	1	p	0.68128
81.4868	0.0	+	10	noun	list	1	7	match	sablier	5	1	p	0.68128
81.88719999999999	0.2	rgdfpcxv	10	noun	list	1	8	match	sablier	5	1	p	0.68128
82.08730000000001	0.0	+	10	noun	list	1	9	match	sablier	5	1	p	0.68128
82.4869	0.2	sablier	10	noun	list	1	10	match	sablier	5	1	p	0.68128
82.68660000000001	0.0	+	10	noun	list	1	11	match	sablier	5	1	p	0.68128
83.0868	0.0	+	10	noun	list	1	12	match	sablier	5	1	p	0.68128
85.0852	0.0	SABLIER	10	noun	list	1	13	match	sablier	5	1	p	0.68128
85.8182	0.0	+	10	noun	list	1	14	match	sablier	5	1	p	0.68128
85.7665	0.0	[response]	10	noun	list	1	15	match	sablier	5	1	p	0.68128
87.4841	0.0	+	11	noun	phrase	1	1	match	tablier	5	1	p	0.83428
88.0339	0.2	pzw	11	noun	phrase	1	2	match	tablier	5	1	p	0.83428
88.23379999999999	0.0	+	11	noun	phrase	1	3	match	tablier	5	1	p	0.83428
88.63440000000001	0.2	gfws	11	noun	phrase	1	4	match	tablier	5	1	p	0.83428
88.85020000000002	0.0	+	11	noun	phrase	1	5	match	tablier	5	1	p	0.83428
89.25000000000001	0.2	ncb	11	noun	phrase	1	6	match	tablier	5	1	p	0.83428
89.4499	0.0	+	11	noun	phrase	1	7	match	tablier	5	1	p	0.83428
89.8838	0.2	zxmqw	11	noun	phrase	1	8	match	tablier	5	1	p	0.83428
90.04960000000001	0.0	+	11	noun	phrase	1	9	match	tablier	5	1	p	0.83428
90.4499	0.2	tablier	11	noun	phrase	1	10	match	tablier	5	1	p	0.83428
90.64980000000001	0.0	+	11	noun	phrase	1	11	match	tablier	5	1	p	0.83428
91.0492	0.0	+	11	noun	phrase	1	12	match	tablier	5	1	p	0.83428
93.04870000000001	0.0	TABLIER	11	noun	phrase	1	13	match	tablier	5	1	p	0.83428
94.0482	0.0	+	11	noun	phrase	1	14	match	tablier	5	1	p	0.83428
93.883	0.0	[response]	11	noun	phrase	1	15	match	tablier	5	1	p	0.83428
95.4472	0.0	+	12	noun	list	3	1	match	plus	4	1	p	1.0174
95.997	0.2	jxp	12	noun	list	3	2	match	plus	4	1	p	1.0174
96.19690000000001	0.0	+	12	noun	list	3	3	match	plus	4	1	p	1.0174
96.5972	0.2	qskv	12	noun	list	3	4	match	plus	4	1	p	1.0174
96.8136	0.0	+	12	noun	list	3	5	match	plus	4	1	p	1.0174
97.1966	0.2	son	12	noun	list	3	6	match	plus	4	1	p	1.0174
97.397	0.0	+	12	noun	list	3	7	match	plus	4	1	p	1.0174
97.7967	0.2	plus	12	noun	list	3	8	match	plus	4	1	p	1.0174
97.9961	0.0	+	12	noun	list	3	9	match	plus	4	1	p	1.0174
98.3959	0.2	casier	12	noun	list	3	10	match	plus	4	1	p	1.0174
98.59580000000001	0.0	+	12	noun	list	3	11	match	plus	4	1	p	1.0174
98.99560000000001	0.0	+	12	noun	list	3	12	match	plus	4	1	p	1.0174
100.99470000000001	0.0	PLUS	12	noun	list	3	13	match	plus	4	1	p	1.0174
102.0776	0.0	+	12	noun	list	3	14	match	plus	4	1	p	1.0174
102.01219999999999	0.0	[response]	12	noun	list	3	15	match	plus	4	1	p	1.0174
103.39370000000001	0.0	+	13	verb	phrase	3	1	match	va	3	1	p	0.63881
103.94340000000001	0.2	bks	13	verb	phrase	3	2	match	va	3	1	p	0.63881
104.1433	0.0	+	13	verb	phrase	3	3	match	va	3	1	p	0.63881
104.5433	0.2	sxpw	13	verb	phrase	3	4	match	va	3	1	p	0.63881
104.74300000000001	0.0	+	13	verb	phrase	3	5	match	va	3	1	p	0.63881
105.14290000000001	0.2	va	13	verb	phrase	3	6	match	va	3	1	p	0.63881
105.3428	0.0	+	13	verb	phrase	3	7	match	va	3	1	p	0.63881
105.7426	0.2	beaucoup	13	verb	phrase	3	8	match	va	3	1	p	0.63881
105.94250000000001	0.0	+	13	verb	phrase	3	9	match	va	3	1	p	0.63881
106.34230000000001	0.2	chasser	13	verb	phrase	3	10	match	va	3	1	p	0.63881
106.5422	0.0	+	13	verb	phrase	3	11	match	va	3	1	p	0.63881
106.9421	0.0	+	13	verb	phrase	3	12	match	va	3	1	p	0.63881
108.94109999999999	0.0	VA	13	verb	phrase	3	13	match	va	3	1	p	0.63881
109.6408	0.0	+	13	verb	phrase	3	14	match	va	3	1	p	0.63881
109.58	0.0	[response]	13	verb	phrase	3	15	match	va	3	1	p	0.63881
119.33650000000002	0.0	+	14	noun	list	4	1	nomatch	vieux	-1	1	y	0.64906
119.903	0.2	gsdcbn	14	noun	list	4	2	nomatch	vieux	-1	1	y	0.64906
120.10289999999999	0.0	+	14	noun	list	4	3	nomatch	vieux	-1	1	y	0.64906
120.48639999999999	0.2	pour	14	noun	list	4	4	nomatch	vieux	-1	1	y	0.64906
120.70280000000001	0.0	+	14	noun	list	4	5	nomatch	vieux	-1	1	y	0.64906
121.10289999999999	0.2	peut	14	noun	list	4	6	nomatch	vieux	-1	1	y	0.64906
121.2856	0.0	+	14	noun	list	4	7	nomatch	vieux	-1	1	y	0.64906
121.6854	0.2	casier	14	noun	list	4	8	nomatch	vieux	-1	1	y	0.64906
121.88530000000002	0.0	+	14	noun	list	4	9	nomatch	vieux	-1	1	y	0.64906
122.28510000000001	0.2	loin	14	noun	list	4	10	nomatch	vieux	-1	1	y	0.64906
122.4851	0.0	+	14	noun	list	4	11	nomatch	vieux	-1	1	y	0.64906
122.8849	0.0	+	14	noun	list	4	12	nomatch	vieux	-1	1	y	0.64906
124.8841	0.0	VIEUX	14	noun	list	4	13	nomatch	vieux	-1	1	y	0.64906
125.73389999999999	0.0	+	14	noun	list	4	14	nomatch	vieux	-1	1	y	0.64906
125.53320000000001	0.0	[response]	14	noun	list	4	15	nomatch	vieux	-1	1	y	0.64906
127.39980000000001	0.0	+	15	noun	list	4	1	nomatch	boîtier	-1	1	y	0.70648
127.84930000000001	0.2	rhbdw	15	noun	list	4	2	nomatch	boîtier	-1	1	y	0.70648
128.04950000000002	0.0	+	15	noun	list	4	3	nomatch	boîtier	-1	1	y	0.70648
128.449	0.2	marc	15	noun	list	4	4	nomatch	boîtier	-1	1	y	0.70648
128.64890000000003	0.0	+	15	noun	list	4	5	nomatch	boîtier	-1	1	y	0.70648
129.04880000000003	0.2	leur	15	noun	list	4	6	nomatch	boîtier	-1	1	y	0.70648
129.24869999999999	0.0	+	15	noun	list	4	7	nomatch	boîtier	-1	1	y	0.70648
129.6485	0.2	plus	15	noun	list	4	8	nomatch	boîtier	-1	1	y	0.70648
129.84910000000002	0.0	+	15	noun	list	4	9	nomatch	boîtier	-1	1	y	0.70648
130.2482	0.2	grenier	15	noun	list	4	10	nomatch	boîtier	-1	1	y	0.70648
130.4481	0.0	+	15	noun	list	4	11	nomatch	boîtier	-1	1	y	0.70648
130.848	0.0	+	15	noun	list	4	12	nomatch	boîtier	-1	1	y	0.70648
132.8476	0.0	BOÎTIER	15	noun	list	4	13	nomatch	boîtier	-1	1	y	0.70648
133.6134	0.0	+	15	noun	list	4	14	nomatch	boîtier	-1	1	y	0.70648
133.55400000000003	0.0	[response]	15	noun	list	4	15	nomatch	boîtier	-1	1	y	0.70648
135.24599999999998	0.0	+	16	noun	list	2	1	match	ainsi	5	1	p	0.84813
135.7957	0.2	dtkhxp	16	noun	list	2	2	match	ainsi	5	1	p	0.84813
135.99560000000002	0.0	+	16	noun	list	2	3	match	ainsi	5	1	p	0.84813
136.39550000000003	0.2	gfws	16	noun	list	2	4	match	ainsi	5	1	p	0.84813
136.5958	0.0	+	16	noun	list	2	5	match	ainsi	5	1	p	0.84813
136.9957	0.2	ns	16	noun	list	2	6	match	ainsi	5	1	p	0.84813
137.19510000000002	0.0	+	16	noun	list	2	7	match	ainsi	5	1	p	0.84813
137.5953	0.2	panier	16	noun	list	2	8	match	ainsi	5	1	p	0.84813
137.81220000000002	0.0	+	16	noun	list	2	9	match	ainsi	5	1	p	0.84813
138.1947	0.2	ainsi	16	noun	list	2	10	match	ainsi	5	1	p	0.84813
138.39460000000003	0.0	+	16	noun	list	2	11	match	ainsi	5	1	p	0.84813
138.7944	0.0	+	16	noun	list	2	12	match	ainsi	5	1	p	0.84813
140.8107	0.0	AINSI	16	noun	list	2	13	match	ainsi	5	1	p	0.84813
141.7264	0.0	+	16	noun	list	2	14	match	ainsi	5	1	p	0.84813
141.65890000000002	0.0	[response]	16	noun	list	2	15	match	ainsi	5	1	p	0.84813
143.19240000000002	0.0	+	17	verb	list	1	1	match	vert	5	1	p	0.42367000000000005
143.74220000000003	0.2	vxfk	17	verb	list	1	2	match	vert	5	1	p	0.42367000000000005
143.94209999999998	0.0	+	17	verb	list	1	3	match	vert	5	1	p	0.42367000000000005
144.34210000000002	0.2	wcxg	17	verb	list	1	4	match	vert	5	1	p	0.42367000000000005
144.54219999999998	0.0	+	17	verb	list	1	5	match	vert	5	1	p	0.42367000000000005
144.9423	0.2	ncb	17	verb	list	1	6	match	vert	5	1	p	0.42367000000000005
145.1415	0.0	+	17	verb	list	1	7	match	vert	5	1	p	0.42367000000000005
145.54129999999998	0.2	vjwsmzp	17	verb	list	1	8	match	vert	5	1	p	0.42367000000000005
145.7586	0.0	+	17	verb	list	1	9	match	vert	5	1	p	0.42367000000000005
146.14139999999998	0.2	vert	17	verb	list	1	10	match	vert	5	1	p	0.42367000000000005
146.35790000000003	0.0	+	17	verb	list	1	11	match	vert	5	1	p	0.42367000000000005
146.7582	0.0	+	17	verb	list	1	12	match	vert	5	1	p	0.42367000000000005
148.74060000000003	0.0	VERT	17	verb	list	1	13	match	vert	5	1	p	0.42367000000000005
149.2563	0.0	+	17	verb	list	1	14	match	vert	5	1	p	0.42367000000000005
149.16430000000003	0.0	[response]	17	verb	list	1	15	match	vert	5	1	p	0.42367000000000005
151.1388	0.0	+	18	noun	phrase	4	1	nomatch	loin	-1	1	y	0.7009700000000001
151.6886	0.2	mvr	18	noun	phrase	4	2	nomatch	loin	-1	1	y	0.7009700000000001
151.88850000000002	0.0	+	18	noun	phrase	4	3	nomatch	loin	-1	1	y	0.7009700000000001
152.2883	0.2	sur	18	noun	phrase	4	4	nomatch	loin	-1	1	y	0.7009700000000001
152.4882	0.0	+	18	noun	phrase	4	5	nomatch	loin	-1	1	y	0.7009700000000001
152.88819999999998	0.2	leur	18	noun	phrase	4	6	nomatch	loin	-1	1	y	0.7009700000000001
153.1053	0.0	+	18	noun	phrase	4	7	nomatch	loin	-1	1	y	0.7009700000000001
153.48829999999998	0.2	petit	18	noun	phrase	4	8	nomatch	loin	-1	1	y	0.7009700000000001
153.688	0.0	+	18	noun	phrase	4	9	nomatch	loin	-1	1	y	0.7009700000000001
154.08820000000003	0.2	cendrier	18	noun	phrase	4	10	nomatch	loin	-1	1	y	0.7009700000000001
154.2874	0.0	+	18	noun	phrase	4	11	nomatch	loin	-1	1	y	0.7009700000000001
154.68720000000002	0.0	+	18	noun	phrase	4	12	nomatch	loin	-1	1	y	0.7009700000000001
156.68630000000002	0.0	LOIN	18	noun	phrase	4	13	nomatch	loin	-1	1	y	0.7009700000000001
157.45260000000002	0.0	+	18	noun	phrase	4	14	nomatch	loin	-1	1	y	0.7009700000000001
157.38729999999998	0.0	[response]	18	noun	phrase	4	15	nomatch	loin	-1	1	y	0.7009700000000001
159.08530000000002	0.0	+	19	noun	list	1	1	match	beaucoup	5	1	p	0.41359
159.635	0.2	lcqbzk	19	noun	list	1	2	match	beaucoup	5	1	p	0.41359
159.8349	0.0	+	19	noun	list	1	3	match	beaucoup	5	1	p	0.41359
160.23469999999998	0.2	qskv	19	noun	list	1	4	match	beaucoup	5	1	p	0.41359
160.4346	0.0	+	19	noun	list	1	5	match	beaucoup	5	1	p	0.41359
160.85180000000003	0.2	fzjl	19	noun	list	1	6	match	beaucoup	5	1	p	0.41359
161.0351	0.0	+	19	noun	list	1	7	match	beaucoup	5	1	p	0.41359
161.43490000000003	0.2	srpmjfb	19	noun	list	1	8	match	beaucoup	5	1	p	0.41359
161.63479999999998	0.0	+	19	noun	list	1	9	match	beaucoup	5	1	p	0.41359
162.03390000000002	0.2	beaucoup	19	noun	list	1	10	match	beaucoup	5	1	p	0.41359
162.23379999999997	0.0	+	19	noun	list	1	11	match	beaucoup	5	1	p	0.41359
162.63369999999998	0.0	+	19	noun	list	1	12	match	beaucoup	5	1	p	0.41359
164.6494	0.0	BEAUCOUP	19	noun	list	1	13	match	beaucoup	5	1	p	0.41359
165.216	0.0	+	19	noun	list	1	14	match	beaucoup	5	1	p	0.41359
165.063	0.0	[response]	19	noun	list	1	15	match	beaucoup	5	1	p	0.41359
167.04829999999998	0.0	+	20	noun	phrase	1	1	match	petit	5	1	p	0.91406
167.5987	0.2	svhqzw	20	noun	phrase	1	2	match	petit	5	1	p	0.91406
167.79840000000002	0.0	+	20	noun	phrase	1	3	match	petit	5	1	p	0.91406
168.1984	0.2	lwsf	20	noun	phrase	1	4	match	petit	5	1	p	0.91406
168.39839999999998	0.0	+	20	noun	phrase	1	5	match	petit	5	1	p	0.91406
168.79790000000003	0.2	fbd	20	noun	phrase	1	6	match	petit	5	1	p	0.91406
168.9975	0.0	+	20	noun	phrase	1	7	match	petit	5	1	p	0.91406
169.39729999999997	0.2	pnwmvrq	20	noun	phrase	1	8	match	petit	5	1	p	0.91406
169.5972	0.0	+	20	noun	phrase	1	9	match	petit	5	1	p	0.91406
169.997	0.2	petit	20	noun	phrase	1	10	match	petit	5	1	p	0.91406
170.19690000000003	0.0	+	20	noun	phrase	1	11	match	petit	5	1	p	0.91406
170.5967	0.0	+	20	noun	phrase	1	12	match	petit	5	1	p	0.91406
172.5958	0.0	PETIT	20	noun	phrase	1	13	match	petit	5	1	p	0.91406
173.5621	0.0	+	20	noun	phrase	1	14	match	petit	5	1	p	0.91406
173.50990000000002	0.0	[response]	20	noun	phrase	1	15	match	petit	5	1	p	0.91406
174.9948	0.0	+	21	noun	phrase	1	1	nomatch	dans	-1	1	y	0.59821
175.54450000000003	0.2	cqz	21	noun	phrase	1	2	nomatch	dans	-1	1	y	0.59821
175.74439999999998	0.0	+	21	noun	phrase	1	3	nomatch	dans	-1	1	y	0.59821
176.1443	0.2	fcvw	21	noun	phrase	1	4	nomatch	dans	-1	1	y	0.59821
176.34410000000003	0.0	+	21	noun	phrase	1	5	nomatch	dans	-1	1	y	0.59821
176.7443	0.2	ncb	21	noun	phrase	1	6	nomatch	dans	-1	1	y	0.59821
176.94459999999998	0.0	+	21	noun	phrase	1	7	nomatch	dans	-1	1	y	0.59821
177.3607	0.2	ndvsxp	21	noun	phrase	1	8	nomatch	dans	-1	1	y	0.59821
177.5605	0.0	+	21	noun	phrase	1	9	nomatch	dans	-1	1	y	0.59821
177.9441	0.2	vert	21	noun	phrase	1	10	nomatch	dans	-1	1	y	0.59821
178.14339999999999	0.0	+	21	noun	phrase	1	11	nomatch	dans	-1	1	y	0.59821
178.5432	0.0	+	21	noun	phrase	1	12	nomatch	dans	-1	1	y	0.59821
180.5423	0.0	DANS	21	noun	phrase	1	13	nomatch	dans	-1	1	y	0.59821
181.192	0.0	+	21	noun	phrase	1	14	nomatch	dans	-1	1	y	0.59821
181.14050000000003	0.0	[response]	21	noun	phrase	1	15	nomatch	dans	-1	1	y	0.59821
190.97140000000002	0.0	+	22	verb	phrase	3	1	nomatch	jade	-1	1	y	0.64442
191.4878	0.2	gxjmq	22	verb	phrase	3	2	nomatch	jade	-1	1	y	0.64442
191.7043	0.0	+	22	verb	phrase	3	3	nomatch	jade	-1	1	y	0.64442
192.08730000000003	0.2	qskv	22	verb	phrase	3	4	nomatch	jade	-1	1	y	0.64442
192.28699999999998	0.0	+	22	verb	phrase	3	5	nomatch	jade	-1	1	y	0.64442
192.6868	0.2	va	22	verb	phrase	3	6	nomatch	jade	-1	1	y	0.64442
192.88670000000002	0.0	+	22	verb	phrase	3	7	nomatch	jade	-1	1	y	0.64442
193.2865	0.2	jongler	22	verb	phrase	3	8	nomatch	jade	-1	1	y	0.64442
193.4864	0.0	+	22	verb	phrase	3	9	nomatch	jade	-1	1	y	0.64442
193.8863	0.2	loin	22	verb	phrase	3	10	nomatch	jade	-1	1	y	0.64442
194.08620000000002	0.0	+	22	verb	phrase	3	11	nomatch	jade	-1	1	y	0.64442
194.486	0.0	+	22	verb	phrase	3	12	nomatch	jade	-1	1	y	0.64442
196.4855	0.0	JADE	22	verb	phrase	3	13	nomatch	jade	-1	1	y	0.64442
197.1848	0.0	+	22	verb	phrase	3	14	nomatch	jade	-1	1	y	0.64442
197.12990000000002	0.0	[response]	22	verb	phrase	3	15	nomatch	jade	-1	1	y	0.64442
198.88400000000001	0.0	+	23	noun	phrase	1	1	match	bleu	5	1	p	0.6565
199.43380000000002	0.2	kbwr	23	noun	phrase	1	2	match	bleu	5	1	p	0.6565
199.63369999999998	0.0	+	23	noun	phrase	1	3	match	bleu	5	1	p	0.6565
200.05020000000002	0.2	xpd	23	noun	phrase	1	4	match	bleu	5	1	p	0.6565
200.25009999999997	0.0	+	23	noun	phrase	1	5	match	bleu	5	1	p	0.6565
200.66719999999998	0.2	fbd	23	noun	phrase	1	6	match	bleu	5	1	p	0.6565
200.8501	0.0	+	23	noun	phrase	1	7	match	bleu	5	1	p	0.6565
201.26659999999998	0.2	wbgzkc	23	noun	phrase	1	8	match	bleu	5	1	p	0.6565
201.4502	0.0	+	23	noun	phrase	1	9	match	bleu	5	1	p	0.6565
201.85000000000002	0.2	bleu	23	noun	phrase	1	10	match	bleu	5	1	p	0.6565
202.04919999999998	0.0	+	23	noun	phrase	1	11	match	bleu	5	1	p	0.6565
202.4491	0.0	+	23	noun	phrase	1	12	match	bleu	5	1	p	0.6565
204.44850000000002	0.0	BLEU	23	noun	phrase	1	13	match	bleu	5	1	p	0.6565
205.16450000000003	0.0	+	23	noun	phrase	1	14	match	bleu	5	1	p	0.6565
205.10500000000002	0.0	[response]	23	noun	phrase	1	15	match	bleu	5	1	p	0.6565
206.8471	0.0	+	24	noun	list	2	1	nomatch	sous	-1	1	y	0.8952000000000001
207.39690000000002	0.2	nlhsw	24	noun	list	2	2	nomatch	sous	-1	1	y	0.8952000000000001
207.59680000000003	0.0	+	24	noun	list	2	3	nomatch	sous	-1	1	y	0.8952000000000001
207.9966	0.2	qskv	24	noun	list	2	4	nomatch	sous	-1	1	y	0.8952000000000001
208.19650000000001	0.0	+	24	noun	list	2	5	nomatch	sous	-1	1	y	0.8952000000000001
208.6135	0.2	ncb	24	noun	list	2	6	nomatch	sous	-1	1	y	0.8952000000000001
208.79650000000004	0.0	+	24	noun	list	2	7	nomatch	sous	-1	1	y	0.8952000000000001
209.19600000000003	0.2	plus	24	noun	list	2	8	nomatch	sous	-1	1	y	0.8952000000000001
209.39590000000004	0.0	+	24	noun	list	2	9	nomatch	sous	-1	1	y	0.8952000000000001
209.79580000000004	0.2	casier	24	noun	list	2	10	nomatch	sous	-1	1	y	0.8952000000000001
209.9957	0.0	+	24	noun	list	2	11	nomatch	sous	-1	1	y	0.8952000000000001
210.39550000000003	0.0	+	24	noun	list	2	12	nomatch	sous	-1	1	y	0.8952000000000001
212.39460000000003	0.0	SOUS	24	noun	list	2	13	nomatch	sous	-1	1	y	0.8952000000000001
213.3442	0.0	+	24	noun	list	2	14	nomatch	sous	-1	1	y	0.8952000000000001
213.2898	0.0	[response]	24	noun	list	2	15	nomatch	sous	-1	1	y	0.8952000000000001
214.7935	0.0	+	25	noun	list	2	1	nomatch	leur	-1	1	y	1.0159
215.3433	0.2	mkwdx	25	noun	list	2	2	nomatch	leur	-1	1	y	1.0159
215.5432	0.0	+	25	noun	list	2	3	nomatch	leur	-1	1	y	1.0159
215.94300000000004	0.2	ckf	25	noun	list	2	4	nomatch	leur	-1	1	y	1.0159
216.1429	0.0	+	25	noun	list	2	5	nomatch	leur	-1	1	y	1.0159
216.54270000000002	0.2	fbd	25	noun	list	2	6	nomatch	leur	-1	1	y	1.0159
216.74260000000004	0.0	+	25	noun	list	2	7	nomatch	leur	-1	1	y	1.0159
217.14250000000004	0.2	mieux	25	noun	list	2	8	nomatch	leur	-1	1	y	1.0159
217.3424	0.0	+	25	noun	list	2	9	nomatch	leur	-1	1	y	1.0159
217.7428	0.2	rocher	25	noun	list	2	10	nomatch	leur	-1	1	y	1.0159
217.9427	0.0	+	25	noun	list	2	11	nomatch	leur	-1	1	y	1.0159
218.3419	0.0	+	25	noun	list	2	12	nomatch	leur	-1	1	y	1.0159
220.341	0.0	LEUR	25	noun	list	2	13	nomatch	leur	-1	1	y	1.0159
221.4239	0.0	+	25	noun	list	2	14	nomatch	leur	-1	1	y	1.0159
221.35700000000003	0.0	[response]	25	noun	list	2	15	nomatch	leur	-1	1	y	1.0159
222.73990000000003	0.0	+	26	verb	phrase	1	1	match	nager	5	1	p	0.62138
223.28970000000004	0.2	lpjcwg	26	verb	phrase	1	2	match	nager	5	1	p	0.62138
223.4896	0.0	+	26	verb	phrase	1	3	match	nager	5	1	p	0.62138
223.88940000000002	0.2	bgmp	26	verb	phrase	1	4	match	nager	5	1	p	0.62138
224.08930000000004	0.0	+	26	verb	phrase	1	5	match	nager	5	1	p	0.62138
224.48920000000004	0.2	bmjh	26	verb	phrase	1	6	match	nager	5	1	p	0.62138
224.6893	0.0	+	26	verb	phrase	1	7	match	nager	5	1	p	0.62138
225.08910000000003	0.2	hrjx	26	verb	phrase	1	8	match	nager	5	1	p	0.62138
225.28950000000003	0.0	+	26	verb	phrase	1	9	match	nager	5	1	p	0.62138
225.68920000000003	0.2	nager	26	verb	phrase	1	10	match	nager	5	1	p	0.62138
225.88850000000002	0.0	+	26	verb	phrase	1	11	match	nager	5	1	p	0.62138
226.2883	0.0	+	26	verb	phrase	1	12	match	nager	5	1	p	0.62138
228.3041	0.0	NAGER	26	verb	phrase	1	13	match	nager	5	1	p	0.62138
229.05420000000004	0.0	+	26	verb	phrase	1	14	match	nager	5	1	p	0.62138
228.9255	0.0	[response]	26	verb	phrase	1	15	match	nager	5	1	p	0.62138
238.733	0.0	+	27	verb	phrase	1	1	nomatch	sous	-1	1	y	0.60154
239.24920000000003	0.2	bcmhs	27	verb	phrase	1	2	nomatch	sous	-1	1	y	0.60154
239.4491	0.0	+	27	verb	phrase	1	3	nomatch	sous	-1	1	y	0.60154
239.84890000000001	0.2	wcxg	27	verb	phrase	1	4	nomatch	sous	-1	1	y	0.60154
240.04880000000003	0.0	+	27	verb	phrase	1	5	nomatch	sous	-1	1	y	0.60154
240.4486	0.2	zhcb	27	verb	phrase	1	6	nomatch	sous	-1	1	y	0.60154
240.6486	0.0	+	27	verb	phrase	1	7	nomatch	sous	-1	1	y	0.60154
241.04840000000002	0.2	bnhlw	27	verb	phrase	1	8	nomatch	sous	-1	1	y	0.60154
241.24830000000003	0.0	+	27	verb	phrase	1	9	nomatch	sous	-1	1	y	0.60154
241.6481	0.2	plus	27	verb	phrase	1	10	nomatch	sous	-1	1	y	0.60154
241.848	0.0	+	27	verb	phrase	1	11	nomatch	sous	-1	1	y	0.60154
242.24780000000004	0.0	+	27	verb	phrase	1	12	nomatch	sous	-1	1	y	0.60154
244.24690000000004	0.0	SOUS	27	verb	phrase	1	13	nomatch	sous	-1	1	y	0.60154
244.9133	0.0	+	27	verb	phrase	1	14	nomatch	sous	-1	1	y	0.60154
244.8485	0.0	[response]	27	verb	phrase	1	15	nomatch	sous	-1	1	y	0.60154
246.64590000000004	0.0	+	28	noun	list	1	1	match	grenier	5	1	p	0.64156
247.1956	0.2	qckpsh	28	noun	list	1	2	match	grenier	5	1	p	0.64156
247.39550000000003	0.0	+	28	noun	list	1	3	match	grenier	5	1	p	0.64156
247.79560000000004	0.2	lwsf	28	noun	list	1	4	match	grenier	5	1	p	0.64156
247.99540000000002	0.0	+	28	noun	list	1	5	match	grenier	5	1	p	0.64156
248.41230000000002	0.2	ns	28	noun	list	1	6	match	grenier	5	1	p	0.64156
248.6121	0.0	+	28	noun	list	1	7	match	grenier	5	1	p	0.64156
249.0116	0.2	hrjx	28	noun	list	1	8	match	grenier	5	1	p	0.64156
249.1947	0.0	+	28	noun	list	1	9	match	grenier	5	1	p	0.64156
249.59450000000004	0.2	grenier	28	noun	list	1	10	match	grenier	5	1	p	0.64156
249.7944	0.0	+	28	noun	list	1	11	match	grenier	5	1	p	0.64156
250.1943	0.0	+	28	noun	list	1	12	match	grenier	5	1	p	0.64156
252.1934	0.0	GRENIER	28	noun	list	1	13	match	grenier	5	1	p	0.64156
252.993	0.0	+	28	noun	list	1	14	match	grenier	5	1	p	0.64156
252.8349	0.0	[response]	28	noun	list	1	15	match	grenier	5	1	p	0.64156
254.59230000000002	0.0	+	29	noun	phrase	4	1	nomatch	petit	-1	1	y	0.67967
255.142	0.2	brtkvw	29	noun	phrase	4	2	nomatch	petit	-1	1	y	0.67967
255.3419	0.0	+	29	noun	phrase	4	3	nomatch	petit	-1	1	y	0.67967
255.7418	0.2	avec	29	noun	phrase	4	4	nomatch	petit	-1	1	y	0.67967
255.94170000000003	0.0	+	29	noun	phrase	4	5	nomatch	petit	-1	1	y	0.67967
256.3415	0.2	mon	29	noun	phrase	4	6	nomatch	petit	-1	1	y	0.67967
256.5414	0.0	+	29	noun	phrase	4	7	nomatch	petit	-1	1	y	0.67967
256.9585	0.2	grand	29	noun	phrase	4	8	nomatch	petit	-1	1	y	0.67967
257.1415	0.0	+	29	noun	phrase	4	9	nomatch	petit	-1	1	y	0.67967
257.54110000000003	0.2	casier	29	noun	phrase	4	10	nomatch	petit	-1	1	y	0.67967
257.7414	0.0	+	29	noun	phrase	4	11	nomatch	petit	-1	1	y	0.67967
258.15770000000003	0.0	+	29	noun	phrase	4	12	nomatch	petit	-1	1	y	0.67967
260.13980000000004	0.0	PETIT	29	noun	phrase	4	13	nomatch	petit	-1	1	y	0.67967
260.87280000000004	0.0	+	29	noun	phrase	4	14	nomatch	petit	-1	1	y	0.67967
260.8195	0.0	[response]	29	noun	phrase	4	15	nomatch	petit	-1	1	y	0.67967
262.5387	0.0	+	30	verb	list	3	1	match	parader	4	1	p	0.6286800000000001
263.0885	0.2	hsgbp	30	verb	list	3	2	match	parader	4	1	p	0.6286800000000001
263.2891	0.0	+	30	verb	list	3	3	match	parader	4	1	p	0.6286800000000001
263.7053	0.2	wxqn	30	verb	list	3	4	match	parader	4	1	p	0.6286800000000001
263.8881	0.0	+	30	verb	list	3	5	match	parader	4	1	p	0.6286800000000001
264.28790000000004	0.2	son	30	verb	list	3	6	match	parader	4	1	p	0.6286800000000001
264.4878	0.0	+	30	verb	list	3	7	match	parader	4	1	p	0.6286800000000001
264.8877	0.2	parader	30	verb	list	3	8	match	parader	4	1	p	0.6286800000000001
265.0876	0.0	+	30	verb	list	3	9	match	parader	4	1	p	0.6286800000000001
265.48740000000004	0.2	bleu	30	verb	list	3	10	match	parader	4	1	p	0.6286800000000001
265.6873	0.0	+	30	verb	list	3	11	match	parader	4	1	p	0.6286800000000001
266.0873	0.0	+	30	verb	list	3	12	match	parader	4	1	p	0.6286800000000001
268.0862	0.0	PARADER	30	verb	list	3	13	match	parader	4	1	p	0.6286800000000001
268.7692	0.0	+	30	verb	list	3	14	match	parader	4	1	p	0.6286800000000001
268.7149	0.0	[response]	30	verb	list	3	15	match	parader	4	1	p	0.6286800000000001
270.4851	0.0	+	31	noun	list	2	1	nomatch	vite	-1	1	y	0.71116
271.0349	0.2	lzdrjhx	31	noun	list	2	2	nomatch	vite	-1	1	y	0.71116
271.2348	0.0	+	31	noun	list	2	3	nomatch	vite	-1	1	y	0.71116
271.63460000000003	0.2	xpd	31	noun	list	2	4	nomatch	vite	-1	1	y	0.71116
271.8345	0.0	+	31	noun	list	2	5	nomatch	vite	-1	1	y	0.71116
272.2344	0.2	bmjh	31	noun	list	2	6	nomatch	vite	-1	1	y	0.71116
272.43440000000004	0.0	+	31	noun	list	2	7	nomatch	vite	-1	1	y	0.71116
272.8514	0.2	grenier	31	noun	list	2	8	nomatch	vite	-1	1	y	0.71116
273.034	0.0	+	31	noun	list	2	9	nomatch	vite	-1	1	y	0.71116
273.4338	0.2	loin	31	noun	list	2	10	nomatch	vite	-1	1	y	0.71116
273.63370000000003	0.0	+	31	noun	list	2	11	nomatch	vite	-1	1	y	0.71116
274.03360000000004	0.0	+	31	noun	list	2	12	nomatch	vite	-1	1	y	0.71116
276.0493	0.0	VITE	31	noun	list	2	13	nomatch	vite	-1	1	y	0.71116
276.8156	0.0	+	31	noun	list	2	14	nomatch	vite	-1	1	y	0.71116
276.76050000000004	0.0	[response]	31	noun	list	2	15	nomatch	vite	-1	1	y	0.71116
278.44820000000004	0.0	+	32	noun	phrase	3	1	match	vert	5	1	p	0.69727
278.998	0.2	khv	32	noun	phrase	3	2	match	vert	5	1	p	0.69727
279.1979	0.0	+	32	noun	phrase	3	3	match	vert	5	1	p	0.69727
279.5982	0.2	gmcl	32	noun	phrase	3	4	match	vert	5	1	p	0.69727
279.8147	0.0	+	32	noun	phrase	3	5	match	vert	5	1	p	0.69727
280.1974	0.2	son	32	noun	phrase	3	6	match	vert	5	1	p	0.69727
280.3974	0.0	+	32	noun	phrase	3	7	match	vert	5	1	p	0.69727
280.79720000000003	0.2	panier	32	noun	phrase	3	8	match	vert	5	1	p	0.69727
280.9971	0.0	+	32	noun	phrase	3	9	match	vert	5	1	p	0.69727
281.3969	0.2	vert	32	noun	phrase	3	10	match	vert	5	1	p	0.69727
281.59680000000003	0.0	+	32	noun	phrase	3	11	match	vert	5	1	p	0.69727
281.9966	0.0	+	32	noun	phrase	3	12	match	vert	5	1	p	0.69727
283.9964	0.0	VERT	32	noun	phrase	3	13	match	vert	5	1	p	0.69727
284.8458	0.0	+	32	noun	phrase	3	14	match	vert	5	1	p	0.69727
284.69370000000004	0.0	[response]	32	noun	phrase	3	15	match	vert	5	1	p	0.69727
286.3947	0.0	+	33	verb	phrase	1	1	match	voyager	5	1	p	0.55523
286.94440000000003	0.2	kbhx	33	verb	phrase	1	2	match	voyager	5	1	p	0.55523
287.14480000000003	0.0	+	33	verb	phrase	1	3	match	voyager	5	1	p	0.55523
287.5443	0.2	ztfk	33	verb	phrase	1	4	match	voyager	5	1	p	0.55523
287.7447	0.0	+	33	verb	phrase	1	5	match	voyager	5	1	p	0.55523
288.14390000000003	0.2	zhcb	33	verb	phrase	1	6	match	voyager	5	1	p	0.55523
288.3438	0.0	+	33	verb	phrase	1	7	match	voyager	5	1	p	0.55523
288.7436	0.2	hkrm	33	verb	phrase	1	8	match	voyager	5	1	p	0.55523
288.94350000000003	0.0	+	33	verb	phrase	1	9	match	voyager	5	1	p	0.55523
289.3433	0.2	voyager	33	verb	phrase	1	10	match	voyager	5	1	p	0.55523
289.5432	0.0	+	33	verb	phrase	1	11	match	voyager	5	1	p	0.55523
289.9604	0.0	+	33	verb	phrase	1	12	match	voyager	5	1	p	0.55523
291.94210000000004	0.0	VOYAGER	33	verb	phrase	1	13	match	voyager	5	1	p	0.55523
292.55850000000004	0.0	+	33	verb	phrase	1	14	match	voyager	5	1	p	0.55523
292.4974	0.0	[response]	33	verb	phrase	1	15	match	voyager	5	1	p	0.55523
294.34110000000004	0.0	+	34	noun	list	4	1	nomatch	sans	-1	1	y	0.67604
294.8908	0.2	lmvpcsf	34	noun	list	4	2	nomatch	sans	-1	1	y	0.67604
295.0907	0.0	+	34	noun	list	4	3	nomatch	sans	-1	1	y	0.67604
295.49060000000003	0.2	paul	34	noun	list	4	4	nomatch	sans	-1	1	y	0.67604
295.69050000000004	0.0	+	34	noun	list	4	5	nomatch	sans	-1	1	y	0.67604
296.0903	0.2	leur	34	noun	list	4	6	nomatch	sans	-1	1	y	0.67604
296.2902	0.0	+	34	noun	list	4	7	nomatch	sans	-1	1	y	0.67604
296.7072	0.2	trop	34	noun	list	4	8	nomatch	sans	-1	1	y	0.67604
296.8902	0.0	+	34	noun	list	4	9	nomatch	sans	-1	1	y	0.67604
297.28970000000004	0.2	cendrier	34	noun	list	4	10	nomatch	sans	-1	1	y	0.67604
297.4897	0.0	+	34	noun	list	4	11	nomatch	sans	-1	1	y	0.67604
297.8895	0.0	+	34	noun	list	4	12	nomatch	sans	-1	1	y	0.67604
299.88910000000004	0.0	SANS	34	noun	list	4	13	nomatch	sans	-1	1	y	0.67604
300.6216	0.0	+	34	noun	list	4	14	nomatch	sans	-1	1	y	0.67604
300.56510000000003	0.0	[response]	34	noun	list	4	15	nomatch	sans	-1	1	y	0.67604
302.2875	0.0	+	35	verb	phrase	4	1	nomatch	chasser	-1	1	y	0.86284
302.8373	0.2	lgvrf	35	verb	phrase	4	2	nomatch	chasser	-1	1	y	0.86284
303.03720000000004	0.0	+	35	verb	phrase	4	3	nomatch	chasser	-1	1	y	0.86284
303.4373	0.2	luc	35	verb	phrase	4	4	nomatch	chasser	-1	1	y	0.86284
303.6537	0.0	+	35	verb	phrase	4	5	nomatch	chasser	-1	1	y	0.86284
304.0367	0.2	doit	35	verb	phrase	4	6	nomatch	chasser	-1	1	y	0.86284
304.2366	0.0	+	35	verb	phrase	4	7	nomatch	chasser	-1	1	y	0.86284
304.63640000000004	0.2	nager	35	verb	phrase	4	8	nomatch	chasser	-1	1	y	0.86284
304.8364	0.0	+	35	verb	phrase	4	9	nomatch	chasser	-1	1	y	0.86284
305.2362	0.2	ainsi	35	verb	phrase	4	10	nomatch	chasser	-1	1	y	0.86284
305.4361	0.0	+	35	verb	phrase	4	11	nomatch	chasser	-1	1	y	0.86284
305.83590000000004	0.0	+	35	verb	phrase	4	12	nomatch	chasser	-1	1	y	0.86284
307.83500000000004	0.0	CHASSER	35	verb	phrase	4	13	nomatch	chasser	-1	1	y	0.86284
308.7513	0.0	+	35	verb	phrase	4	14	nomatch	chasser	-1	1	y	0.86284
308.6979	0.0	[response]	35	verb	phrase	4	15	nomatch	chasser	-1	1	y	0.86284
310.2339	0.0	+	36	noun	phrase	1	1	nomatch	cendrier	-1	1	y	1.0509
310.78380000000004	0.2	dmbc	36	noun	phrase	1	2	nomatch	cendrier	-1	1	y	1.0509
310.9836	0.0	+	36	noun	phrase	1	3	nomatch	cendrier	-1	1	y	1.0509
311.4001	0.2	xpd	36	noun	phrase	1	4	nomatch	cendrier	-1	1	y	1.0509
311.6	0.0	+	36	noun	phrase	1	5	nomatch	cendrier	-1	1	y	1.0509
312.00010000000003	0.2	ncb	36	noun	phrase	1	6	nomatch	cendrier	-1	1	y	1.0509
312.2003	0.0	+	36	noun	phrase	1	7	nomatch	cendrier	-1	1	y	1.0509
312.6001	0.2	jtnhl	36	noun	phrase	1	8	nomatch	cendrier	-1	1	y	1.0509
312.8166	0.0	+	36	noun	phrase	1	9	nomatch	cendrier	-1	1	y	1.0509
313.1993	0.2	rocher	36	noun	phrase	1	10	nomatch	cendrier	-1	1	y	1.0509
313.3992	0.0	+	36	noun	phrase	1	11	nomatch	cendrier	-1	1	y	1.0509
313.79900000000004	0.0	+	36	noun	phrase	1	12	nomatch	cendrier	-1	1	y	1.0509
315.79810000000003	0.0	CENDRIER	36	noun	phrase	1	13	nomatch	cendrier	-1	1	y	1.0509
317.0312	0.0	+	36	noun	phrase	1	14	nomatch	cendrier	-1	1	y	1.0509
316.84900000000005	0.0	[response]	36	noun	phrase	1	15	nomatch	cendrier	-1	1	y	1.0509
326.24350000000004	0.0	+	37	verb	list	2	1	match	beau	4	1	p	0.61136
326.74350000000004	0.2	dfk	37	verb	list	2	2	match	beau	4	1	p	0.61136
326.94370000000004	0.0	+	37	verb	list	2	3	match	beau	4	1	p	0.61136
327.34290000000004	0.2	gmcl	37	verb	list	2	4	match	beau	4	1	p	0.61136
327.5428	0.0	+	37	verb	list	2	5	match	beau	4	1	p	0.61136
327.9426	0.2	ns	37	verb	list	2	6	match	beau	4	1	p	0.61136
328.14250000000004	0.0	+	37	verb	list	2	7	match	beau	4	1	p	0.61136
328.5423	0.2	beau	37	verb	list	2	8	match	beau	4	1	p	0.61136
328.7423	0.0	+	37	verb	list	2	9	match	beau	4	1	p	0.61136
329.1421	0.2	nager	37	verb	list	2	10	match	beau	4	1	p	0.61136
329.34200000000004	0.0	+	37	verb	list	2	11	match	beau	4	1	p	0.61136
329.7418	0.0	+	37	verb	list	2	12	match	beau	4	1	p	0.61136
331.7416	0.0	BEAU	37	verb	list	2	13	match	beau	4	1	p	0.61136
332.4073	0.0	+	37	verb	list	2	14	match	beau	4	1	p	0.61136
332.35290000000003	0.0	[response]	37	verb	list	2	15	match	beau	4	1	p	0.61136
350.14930000000004	0.0	+	38	noun	list	1	1	match	tablier	5	1	p	0.57577
350.6991	0.2	ljqnmx	38	noun	list	1	2	match	tablier	5	1	p	0.57577
350.899	0.0	+	38	noun	list	1	3	match	tablier	5	1	p	0.57577
351.2988	0.2	qskv	38	noun	list	1	4	match	tablier	5	1	p	0.57577
351.49870000000004	0.0	+	38	noun	list	1	5	match	tablier	5	1	p	0.57577
351.91540000000003	0.2	fzjl	38	noun	list	1	6	match	tablier	5	1	p	0.57577
352.099	0.0	+	38	noun	list	1	7	match	tablier	5	1	p	0.57577
352.5152	0.2	ghpj	38	noun	list	1	8	match	tablier	5	1	p	0.57577
352.69820000000004	0.0	+	38	noun	list	1	9	match	tablier	5	1	p	0.57577
353.09860000000003	0.2	tablier	38	noun	list	1	10	match	tablier	5	1	p	0.57577
353.2979	0.0	+	38	noun	list	1	11	match	tablier	5	1	p	0.57577
353.6977	0.0	+	38	noun	list	1	12	match	tablier	5	1	p	0.57577
355.6968	0.0	TABLIER	38	noun	list	1	13	match	tablier	5	1	p	0.57577
356.32980000000003	0.0	+	38	noun	list	1	14	match	tablier	5	1	p	0.57577
356.2726	0.0	[response]	38	noun	list	1	15	match	tablier	5	1	p	0.57577
358.0957	0.0	+	39	verb	list	2	1	nomatch	noir	-1	1	y	0.66937
358.6455	0.2	crbsqf	39	verb	list	2	2	nomatch	noir	-1	1	y	0.66937
358.84540000000004	0.0	+	39	verb	list	2	3	nomatch	noir	-1	1	y	0.66937
359.2452	0.2	ckf	39	verb	list	2	4	nomatch	noir	-1	1	y	0.66937
359.4451	0.0	+	39	verb	list	2	5	nomatch	noir	-1	1	y	0.66937
359.862	0.2	ncb	39	verb	list	2	6	nomatch	noir	-1	1	y	0.66937
360.0453	0.0	+	39	verb	list	2	7	nomatch	noir	-1	1	y	0.66937
360.4454	0.2	patiner	39	verb	list	2	8	nomatch	noir	-1	1	y	0.66937
360.6451	0.0	+	39	verb	list	2	9	nomatch	noir	-1	1	y	0.66937
361.0444	0.2	blanc	39	verb	list	2	10	nomatch	noir	-1	1	y	0.66937
361.2443	0.0	+	39	verb	list	2	11	nomatch	noir	-1	1	y	0.66937
361.64410000000004	0.0	+	39	verb	list	2	12	nomatch	noir	-1	1	y	0.66937
363.6438	0.0	NOIR	39	verb	list	2	13	nomatch	noir	-1	1	y	0.66937
364.4262	0.0	+	39	verb	list	2	14	nomatch	noir	-1	1	y	0.66937
364.3132	0.0	[response]	39	verb	list	2	15	nomatch	noir	-1	1	y	0.66937
366.0421	0.0	+	40	verb	list	3	1	nomatch	nager	-1	0	p	0.7791100000000001
366.5922	0.2	xbv	40	verb	list	3	2	nomatch	nager	-1	0	p	0.7791100000000001
366.7919	0.0	+	40	verb	list	3	3	nomatch	nager	-1	0	p	0.7791100000000001
367.2089	0.2	tdmv	40	verb	list	3	4	nomatch	nager	-1	0	p	0.7791100000000001
367.3919	0.0	+	40	verb	list	3	5	nomatch	nager	-1	0	p	0.7791100000000001
367.79200000000003	0.2	doit	40	verb	list	3	6	nomatch	nager	-1	0	p	0.7791100000000001
367.9913	0.0	+	40	verb	list	3	7	nomatch	nager	-1	0	p	0.7791100000000001
368.3911	0.2	petit	40	verb	list	3	8	nomatch	nager	-1	0	p	0.7791100000000001
368.591	0.0	+	40	verb	list	3	9	nomatch	nager	-1	0	p	0.7791100000000001
368.9916	0.2	rouler	40	verb	list	3	10	nomatch	nager	-1	0	p	0.7791100000000001
369.1907	0.0	+	40	verb	list	3	11	nomatch	nager	-1	0	p	0.7791100000000001
369.5906	0.0	+	40	verb	list	3	12	nomatch	nager	-1	0	p	0.7791100000000001
371.5897	0.0	NAGER	40	verb	list	3	13	nomatch	nager	-1	0	p	0.7791100000000001
372.4226	0.0	+	40	verb	list	3	14	nomatch	nager	-1	0	p	0.7791100000000001
372.3688	0.0	[response]	40	verb	list	3	15	nomatch	nager	-1	0	p	0.7791100000000001
381.985	0.0	+	41	noun	phrase	4	1	match	son	3	1	p	1.1899
382.53470000000004	0.2	klsc	41	noun	phrase	4	2	match	son	3	1	p	1.1899
382.7517	0.0	+	41	noun	phrase	4	3	match	son	3	1	p	1.1899
383.1512	0.2	dans	41	noun	phrase	4	4	match	son	3	1	p	1.1899
383.33500000000004	0.0	+	41	noun	phrase	4	5	match	son	3	1	p	1.1899
383.7345	0.2	son	41	noun	phrase	4	6	match	son	3	1	p	1.1899
383.93420000000003	0.0	+	41	noun	phrase	4	7	match	son	3	1	p	1.1899
384.3339	0.2	beau	41	noun	phrase	4	8	match	son	3	1	p	1.1899
384.53380000000004	0.0	+	41	noun	phrase	4	9	match	son	3	1	p	1.1899
384.9341	0.2	grenier	41	noun	phrase	4	10	match	son	3	1	p	1.1899
385.1338	0.0	+	41	noun	phrase	4	11	match	son	3	1	p	1.1899
385.5505	0.0	+	41	noun	phrase	4	12	match	son	3	1	p	1.1899
387.5491	0.0	SON	41	noun	phrase	4	13	match	son	3	1	p	1.1899
388.7986	0.0	+	41	noun	phrase	4	14	match	son	3	1	p	1.1899
388.73900000000003	0.0	[response]	41	noun	phrase	4	15	match	son	3	1	p	1.1899
397.9445	0.0	+	42	verb	phrase	3	1	nomatch	trop	-1	1	y	0.79013
398.49420000000003	0.2	qdhpv	42	verb	phrase	3	2	nomatch	trop	-1	1	y	0.79013
398.6941	0.0	+	42	verb	phrase	3	3	nomatch	trop	-1	1	y	0.79013
399.09430000000003	0.2	bgmp	42	verb	phrase	3	4	nomatch	trop	-1	1	y	0.79013
399.29400000000004	0.0	+	42	verb	phrase	3	5	nomatch	trop	-1	1	y	0.79013
399.6943	0.2	doit	42	verb	phrase	3	6	nomatch	trop	-1	1	y	0.79013
399.9109	0.0	+	42	verb	phrase	3	7	nomatch	trop	-1	1	y	0.79013
400.2934	0.2	patiner	42	verb	phrase	3	8	nomatch	trop	-1	1	y	0.79013
400.49330000000003	0.0	+	42	verb	phrase	3	9	nomatch	trop	-1	1	y	0.79013
400.8931	0.2	vite	42	verb	phrase	3	10	nomatch	trop	-1	1	y	0.79013
401.093	0.0	+	42	verb	phrase	3	11	nomatch	trop	-1	1	y	0.79013
401.4929	0.0	+	42	verb	phrase	3	12	nomatch	trop	-1	1	y	0.79013
403.492	0.0	TROP	42	verb	phrase	3	13	nomatch	trop	-1	1	y	0.79013
404.40860000000004	0.0	+	42	verb	phrase	3	14	nomatch	trop	-1	1	y	0.79013
404.2821	0.0	[response]	42	verb	phrase	3	15	nomatch	trop	-1	1	y	0.79013
405.8909	0.0	+	43	verb	list	1	1	match	bleu	5	1	p	0.70061
406.4406	0.2	mwgpvfd	43	verb	list	1	2	match	bleu	5	1	p	0.70061
406.64050000000003	0.0	+	43	verb	list	1	3	match	bleu	5	1	p	0.70061
407.04040000000003	0.2	wxqn	43	verb	list	1	4	match	bleu	5	1	p	0.70061
407.2403	0.0	+	43	verb	list	1	5	match	bleu	5	1	p	0.70061
407.6401	0.2	fzjl	43	verb	list	1	6	match	bleu	5	1	p	0.70061
407.84000000000003	0.0	+	43	verb	list	1	7	match	bleu	5	1	p	0.70061
408.2398	0.2	pgmxrls	43	verb	list	1	8	match	bleu	5	1	p	0.70061
408.4397	0.0	+	43	verb	list	1	9	match	bleu	5	1	p	0.70061
408.8397	0.2	bleu	43	verb	list	1	10	match	bleu	5	1	p	0.70061
409.0402	0.0	+	43	verb	list	1	11	match	bleu	5	1	p	0.70061
409.45660000000004	0.0	+	43	verb	list	1	12	match	bleu	5	1	p	0.70061
411.4388	0.0	BLEU	43	verb	list	1	13	match	bleu	5	1	p	0.70061
412.2214	0.0	+	43	verb	list	1	14	match	bleu	5	1	p	0.70061
412.1394	0.0	[response]	43	verb	list	1	15	match	bleu	5	1	p	0.70061
421.85040000000004	0.0	+	44	noun	list	1	1	nomatch	doit	-1	1	y	0.89239
422.4001	0.2	qdr	44	noun	list	1	2	nomatch	doit	-1	1	y	0.89239
422.6	0.0	+	44	noun	list	1	3	nomatch	doit	-1	1	y	0.89239
423.0004	0.2	qskv	44	noun	list	1	4	nomatch	doit	-1	1	y	0.89239
423.2004	0.0	+	44	noun	list	1	5	nomatch	doit	-1	1	y	0.89239
423.60020000000003	0.2	fbd	44	noun	list	1	6	nomatch	doit	-1	1	y	0.89239
423.8	0.0	+	44	noun	list	1	7	nomatch	doit	-1	1	y	0.89239
424.1993	0.2	pnwmvrq	44	noun	list	1	8	nomatch	doit	-1	1	y	0.89239
424.3992	0.0	+	44	noun	list	1	9	nomatch	doit	-1	1	y	0.89239
424.79900000000004	0.2	plus	44	noun	list	1	10	nomatch	doit	-1	1	y	0.89239
424.999	0.0	+	44	noun	list	1	11	nomatch	doit	-1	1	y	0.89239
425.3988	0.0	+	44	noun	list	1	12	nomatch	doit	-1	1	y	0.89239
427.3979	0.0	DOIT	44	noun	list	1	13	nomatch	doit	-1	1	y	0.89239
428.43100000000004	0.0	+	44	noun	list	1	14	nomatch	doit	-1	1	y	0.89239
428.2903	0.0	[response]	44	noun	list	1	15	nomatch	doit	-1	1	y	0.89239
429.7968	0.0	+	45	verb	list	3	1	nomatch	jean	-1	1	y	0.80473
430.3473	0.2	bmslpx	45	verb	list	3	2	nomatch	jean	-1	1	y	0.80473
430.5468	0.0	+	45	verb	list	3	3	nomatch	jean	-1	1	y	0.80473
430.9463	0.2	gmcl	45	verb	list	3	4	nomatch	jean	-1	1	y	0.80473
431.14680000000004	0.0	+	45	verb	list	3	5	nomatch	jean	-1	1	y	0.80473
431.546	0.2	va	45	verb	list	3	6	nomatch	jean	-1	1	y	0.80473
431.7459	0.0	+	45	verb	list	3	7	nomatch	jean	-1	1	y	0.80473
432.14570000000003	0.2	vieux	45	verb	list	3	8	nomatch	jean	-1	1	y	0.80473
432.3457	0.0	+	45	verb	list	3	9	nomatch	jean	-1	1	y	0.80473
432.7455	0.2	patiner	45	verb	list	3	10	nomatch	jean	-1	1	y	0.80473
432.9454	0.0	+	45	verb	list	3	11	nomatch	jean	-1	1	y	0.80473
433.34520000000003	0.0	+	45	verb	list	3	12	nomatch	jean	-1	1	y	0.80473
435.3447	0.0	JEAN	45	verb	list	3	13	nomatch	jean	-1	1	y	0.80473
436.2106	0.0	+	45	verb	list	3	14	nomatch	jean	-1	1	y	0.80473
436.14940000000007	0.0	[response]	45	verb	list	3	15	nomatch	jean	-1	1	y	0.80473
437.7432	0.0	+	46	noun	phrase	2	1	nomatch	cendrier	-1	1	y	0.8794400000000001
438.293	0.2	pktsdc	46	noun	phrase	2	2	nomatch	cendrier	-1	1	y	0.8794400000000001
438.4929	0.0	+	46	noun	phrase	2	3	nomatch	cendrier	-1	1	y	0.8794400000000001
438.8927	0.2	fcvw	46	noun	phrase	2	4	nomatch	cendrier	-1	1	y	0.8794400000000001
439.0926	0.0	+	46	noun	phrase	2	5	nomatch	cendrier	-1	1	y	0.8794400000000001
439.49240000000003	0.2	ncb	46	noun	phrase	2	6	nomatch	cendrier	-1	1	y	0.8794400000000001
439.7096	0.0	+	46	noun	phrase	2	7	nomatch	cendrier	-1	1	y	0.8794400000000001
440.09290000000004	0.2	rocher	46	noun	phrase	2	8	nomatch	cendrier	-1	1	y	0.8794400000000001
440.2928	0.0	+	46	noun	phrase	2	9	nomatch	cendrier	-1	1	y	0.8794400000000001
440.6925	0.2	vert	46	noun	phrase	2	10	nomatch	cendrier	-1	1	y	0.8794400000000001
440.8922	0.0	+	46	noun	phrase	2	11	nomatch	cendrier	-1	1	y	0.8794400000000001
441.2916	0.0	+	46	noun	phrase	2	12	nomatch	cendrier	-1	1	y	0.8794400000000001
443.2907	0.0	CENDRIER	46	noun	phrase	2	13	nomatch	cendrier	-1	1	y	0.8794400000000001
444.22360000000003	0.0	+	46	noun	phrase	2	14	nomatch	cendrier	-1	1	y	0.8794400000000001
444.1702	0.0	[response]	46	noun	phrase	2	15	nomatch	cendrier	-1	1	y	0.8794400000000001
445.68960000000004	0.0	+	47	verb	phrase	1	1	nomatch	leur	-1	1	y	0.99447
446.2394	0.2	plgbv	47	verb	phrase	1	2	nomatch	leur	-1	1	y	0.99447
446.4393	0.0	+	47	verb	phrase	1	3	nomatch	leur	-1	1	y	0.99447
446.83910000000003	0.2	sxpw	47	verb	phrase	1	4	nomatch	leur	-1	1	y	0.99447
447.039	0.0	+	47	verb	phrase	1	5	nomatch	leur	-1	1	y	0.99447
447.4389	0.2	ns	47	verb	phrase	1	6	nomatch	leur	-1	1	y	0.99447
447.6388	0.0	+	47	verb	phrase	1	7	nomatch	leur	-1	1	y	0.99447
448.03860000000003	0.2	mdjqzgp	47	verb	phrase	1	8	nomatch	leur	-1	1	y	0.99447
448.23900000000003	0.0	+	47	verb	phrase	1	9	nomatch	leur	-1	1	y	0.99447
448.6385	0.2	tard	47	verb	phrase	1	10	nomatch	leur	-1	1	y	0.99447
448.83820000000003	0.0	+	47	verb	phrase	1	11	nomatch	leur	-1	1	y	0.99447
449.23810000000003	0.0	+	47	verb	phrase	1	12	nomatch	leur	-1	1	y	0.99447
451.23760000000004	0.0	LEUR	47	verb	phrase	1	13	nomatch	leur	-1	1	y	0.99447
452.32	0.0	+	47	verb	phrase	1	14	nomatch	leur	-1	1	y	0.99447
452.2321	0.0	[response]	47	verb	phrase	1	15	nomatch	leur	-1	1	y	0.99447
453.6361	0.0	+	48	noun	list	1	1	nomatch	sablier	-1	1	y	1.0049
454.18580000000003	0.2	twxj	48	noun	list	1	2	nomatch	sablier	-1	1	y	1.0049
454.38570000000004	0.0	+	48	noun	list	1	3	nomatch	sablier	-1	1	y	1.0049
454.7856	0.2	pcms	48	noun	list	1	4	nomatch	sablier	-1	1	y	1.0049
454.9855	0.0	+	48	noun	list	1	5	nomatch	sablier	-1	1	y	1.0049
455.38530000000003	0.2	bmjh	48	noun	list	1	6	nomatch	sablier	-1	1	y	1.0049
455.58520000000004	0.0	+	48	noun	list	1	7	nomatch	sablier	-1	1	y	1.0049
455.9855	0.2	kzvg	48	noun	list	1	8	nomatch	sablier	-1	1	y	1.0049
456.1849	0.0	+	48	noun	list	1	9	nomatch	sablier	-1	1	y	1.0049
456.5854	0.2	panier	48	noun	list	1	10	nomatch	sablier	-1	1	y	1.0049
456.8019	0.0	+	48	noun	list	1	11	nomatch	sablier	-1	1	y	1.0049
457.2018	0.0	+	48	noun	list	1	12	nomatch	sablier	-1	1	y	1.0049
459.2002	0.0	SABLIER	48	noun	list	1	13	nomatch	sablier	-1	1	y	1.0049
460.2664	0.0	+	48	noun	list	1	14	nomatch	sablier	-1	1	y	1.0049
460.2052	0.0	[response]	48	noun	list	1	15	nomatch	sablier	-1	1	y	1.0049
461.5991	0.0	+	49	verb	list	1	1	nomatch	chasser	-1	1	y	0.77234
462.1489	0.2	hxg	49	verb	list	1	2	nomatch	chasser	-1	1	y	0.77234
462.3488	0.0	+	49	verb	list	1	3	nomatch	chasser	-1	1	y	0.77234
462.7486	0.2	wxqn	49	verb	list	1	4	nomatch	chasser	-1	1	y	0.77234
462.94860000000006	0.0	+	49	verb	list	1	5	nomatch	chasser	-1	1	y	0.77234
463.34839999999997	0.2	ncb	49	verb	list	1	6	nomatch	chasser	-1	1	y	0.77234
463.54830000000004	0.0	+	49	verb	list	1	7	nomatch	chasser	-1	1	y	0.77234
463.94810000000007	0.2	jskf	49	verb	list	1	8	nomatch	chasser	-1	1	y	0.77234
464.148	0.0	+	49	verb	list	1	9	nomatch	chasser	-1	1	y	0.77234
464.5479	0.2	danser	49	verb	list	1	10	nomatch	chasser	-1	1	y	0.77234
464.74840000000006	0.0	+	49	verb	list	1	11	nomatch	chasser	-1	1	y	0.77234
465.1476	0.0	+	49	verb	list	1	12	nomatch	chasser	-1	1	y	0.77234
467.1473	0.0	CHASSER	49	verb	list	1	13	nomatch	chasser	-1	1	y	0.77234
467.9796	0.0	+	49	verb	list	1	14	nomatch	chasser	-1	1	y	0.77234
467.91960000000006	0.0	[response]	49	verb	list	1	15	nomatch	chasser	-1	1	y	0.77234
469.54560000000004	0.0	+	50	verb	phrase	1	1	match	loin	5	1	p	0.82836
470.09580000000005	0.2	nlfm	50	verb	phrase	1	2	match	loin	5	1	p	0.82836
470.31230000000005	0.0	+	50	verb	phrase	1	3	match	loin	5	1	p	0.82836
470.6957	0.2	qskv	50	verb	phrase	1	4	match	loin	5	1	p	0.82836
470.89570000000003	0.0	+	50	verb	phrase	1	5	match	loin	5	1	p	0.82836
471.2948	0.2	ns	50	verb	phrase	1	6	match	loin	5	1	p	0.82836
471.49469999999997	0.0	+	50	verb	phrase	1	7	match	loin	5	1	p	0.82836
471.8945	0.2	gzchqw	50	verb	phrase	1	8	match	loin	5	1	p	0.82836
472.09440000000006	0.0	+	50	verb	phrase	1	9	match	loin	5	1	p	0.82836
472.49430000000007	0.2	loin	50	verb	phrase	1	10	match	loin	5	1	p	0.82836
472.6942	0.0	+	50	verb	phrase	1	11	match	loin	5	1	p	0.82836
473.0941	0.0	+	50	verb	phrase	1	12	match	loin	5	1	p	0.82836
475.09310000000005	0.0	LOIN	50	verb	phrase	1	13	match	loin	5	1	p	0.82836
476.0762	0.0	+	50	verb	phrase	1	14	match	loin	5	1	p	0.82836
475.92150000000004	0.0	[response]	50	verb	phrase	1	15	match	loin	5	1	p	0.82836
477.49199999999996	0.0	+	51	noun	phrase	2	1	nomatch	va	-1	1	y	0.9531800000000001
478.04179999999997	0.2	zvnsbrh	51	noun	phrase	2	2	nomatch	va	-1	1	y	0.9531800000000001
478.24170000000004	0.0	+	51	noun	phrase	2	3	nomatch	va	-1	1	y	0.9531800000000001
478.64150000000006	0.2	xpd	51	noun	phrase	2	4	nomatch	va	-1	1	y	0.9531800000000001
478.8414	0.0	+	51	noun	phrase	2	5	nomatch	va	-1	1	y	0.9531800000000001
479.24120000000005	0.2	fzjl	51	noun	phrase	2	6	nomatch	va	-1	1	y	0.9531800000000001
479.4411	0.0	+	51	noun	phrase	2	7	nomatch	va	-1	1	y	0.9531800000000001
479.8412000000001	0.2	boîtier	51	noun	phrase	2	8	nomatch	va	-1	1	y	0.9531800000000001
480.04089999999997	0.0	+	51	noun	phrase	2	9	nomatch	va	-1	1	y	0.9531800000000001
480.4411	0.2	vert	51	noun	phrase	2	10	nomatch	va	-1	1	y	0.9531800000000001
480.6409	0.0	+	51	noun	phrase	2	11	nomatch	va	-1	1	y	0.9531800000000001
481.0404	0.0	+	51	noun	phrase	2	12	nomatch	va	-1	1	y	0.9531800000000001
483.0395	0.0	VA	51	noun	phrase	2	13	nomatch	va	-1	1	y	0.9531800000000001
484.0557	0.0	+	51	noun	phrase	2	14	nomatch	va	-1	1	y	0.9531800000000001
483.9927	0.0	[response]	51	noun	phrase	2	15	nomatch	va	-1	1	y	0.9531800000000001
485.4384	0.0	+	52	verb	phrase	1	1	nomatch	sablier	-1	1	y	0.8735
485.9882	0.2	twqpn	52	verb	phrase	1	2	nomatch	sablier	-1	1	y	0.8735
486.18809999999996	0.0	+	52	verb	phrase	1	3	nomatch	sablier	-1	1	y	0.8735
486.5879	0.2	wcxg	52	verb	phrase	1	4	nomatch	sablier	-1	1	y	0.8735
486.78780000000006	0.0	+	52	verb	phrase	1	5	nomatch	sablier	-1	1	y	0.8735
487.1876	0.2	bmjh	52	verb	phrase	1	6	nomatch	sablier	-1	1	y	0.8735
487.3876	0.0	+	52	verb	phrase	1	7	nomatch	sablier	-1	1	y	0.8735
487.788	0.2	gzchqw	52	verb	phrase	1	8	nomatch	sablier	-1	1	y	0.8735
487.9878	0.0	+	52	verb	phrase	1	9	nomatch	sablier	-1	1	y	0.8735
488.3872	0.2	trop	52	verb	phrase	1	10	nomatch	sablier	-1	1	y	0.8735
488.587	0.0	+	52	verb	phrase	1	11	nomatch	sablier	-1	1	y	0.8735
488.9868	0.0	+	52	verb	phrase	1	12	nomatch	sablier	-1	1	y	0.8735
491.00300000000004	0.0	SABLIER	52	verb	phrase	1	13	nomatch	sablier	-1	1	y	0.8735
492.00260000000003	0.0	+	52	verb	phrase	1	14	nomatch	sablier	-1	1	y	0.8735
491.8765000000001	0.0	[response]	52	verb	phrase	1	15	nomatch	sablier	-1	1	y	0.8735
493.3849	0.0	+	53	verb	phrase	4	1	nomatch	rocher	-1	1	y	0.79062
493.93460000000005	0.2	kgxw	53	verb	phrase	4	2	nomatch	rocher	-1	1	y	0.79062
494.1345	0.0	+	53	verb	phrase	4	3	nomatch	rocher	-1	1	y	0.79062
494.5345	0.2	marc	53	verb	phrase	4	4	nomatch	rocher	-1	1	y	0.79062
494.7346	0.0	+	53	verb	phrase	4	5	nomatch	rocher	-1	1	y	0.79062
495.1341	0.2	peut	53	verb	phrase	4	6	nomatch	rocher	-1	1	y	0.79062
495.33439999999996	0.0	+	53	verb	phrase	4	7	nomatch	rocher	-1	1	y	0.79062
495.7341	0.2	patiner	53	verb	phrase	4	8	nomatch	rocher	-1	1	y	0.79062
495.93370000000004	0.0	+	53	verb	phrase	4	9	nomatch	rocher	-1	1	y	0.79062
496.3502	0.2	tôt	53	verb	phrase	4	10	nomatch	rocher	-1	1	y	0.79062
496.55010000000004	0.0	+	53	verb	phrase	4	11	nomatch	rocher	-1	1	y	0.79062
496.94990000000007	0.0	+	53	verb	phrase	4	12	nomatch	rocher	-1	1	y	0.79062
498.94910000000004	0.0	ROCHER	53	verb	phrase	4	13	nomatch	rocher	-1	1	y	0.79062
499.79859999999996	0.0	+	53	verb	phrase	4	14	nomatch	rocher	-1	1	y	0.79062
499.73980000000006	0.0	[response]	53	verb	phrase	4	15	nomatch	rocher	-1	1	y	0.79062
501.3479	0.0	+	54	noun	list	4	1	match	luc	2	1	p	0.82872
501.89840000000004	0.2	zcsljt	54	noun	list	4	2	match	luc	2	1	p	0.82872
502.0983	0.0	+	54	noun	list	4	3	match	luc	2	1	p	0.82872
502.49760000000003	0.2	luc	54	noun	list	4	4	match	luc	2	1	p	0.82872
502.6974	0.0	+	54	noun	list	4	5	match	luc	2	1	p	0.82872
503.09720000000004	0.2	son	54	noun	list	4	6	match	luc	2	1	p	0.82872
503.2971	0.0	+	54	noun	list	4	7	match	luc	2	1	p	0.82872
503.6969	0.2	moins	54	noun	list	4	8	match	luc	2	1	p	0.82872
503.8968	0.0	+	54	noun	list	4	9	match	luc	2	1	p	0.82872
504.2966	0.2	panier	54	noun	list	4	10	match	luc	2	1	p	0.82872
504.49649999999997	0.0	+	54	noun	list	4	11	match	luc	2	1	p	0.82872
504.8963	0.0	+	54	noun	list	4	12	match	luc	2	1	p	0.82872
506.8954	0.0	LUC	54	noun	list	4	13	match	luc	2	1	p	0.82872
507.77840000000003	0.0	+	54	noun	list	4	14	match	luc	2	1	p	0.82872
507.7242	0.0	[response]	54	noun	list	4	15	match	luc	2	1	p	0.82872
509.2944	0.0	+	55	noun	phrase	2	1	match	grand	4	1	p	0.86736
509.84479999999996	0.2	gdpjswf	55	noun	phrase	2	2	match	grand	4	1	p	0.86736
510.044	0.0	+	55	noun	phrase	2	3	match	grand	4	1	p	0.86736
510.4438	0.2	tdmv	55	noun	phrase	2	4	match	grand	4	1	p	0.86736
510.64380000000006	0.0	+	55	noun	phrase	2	5	match	grand	4	1	p	0.86736
511.0443	0.2	fzjl	55	noun	phrase	2	6	match	grand	4	1	p	0.86736
511.24350000000004	0.0	+	55	noun	phrase	2	7	match	grand	4	1	p	0.86736
511.64380000000006	0.2	grand	55	noun	phrase	2	8	match	grand	4	1	p	0.86736
511.84389999999996	0.0	+	55	noun	phrase	2	9	match	grand	4	1	p	0.86736
512.243	0.2	tablier	55	noun	phrase	2	10	match	grand	4	1	p	0.86736
512.4429	0.0	+	55	noun	phrase	2	11	match	grand	4	1	p	0.86736
512.8428	0.0	+	55	noun	phrase	2	12	match	grand	4	1	p	0.86736
514.8419	0.0	GRAND	55	noun	phrase	2	13	match	grand	4	1	p	0.86736
515.8421	0.0	+	55	noun	phrase	2	14	match	grand	4	1	p	0.86736
515.7092	0.0	[response]	55	noun	phrase	2	15	match	grand	4	1	p	0.86736
517.2408	0.0	+	56	verb	phrase	4	1	nomatch	yves	-1	1	y	0.79079
517.7905000000001	0.2	mwvnx	56	verb	phrase	4	2	nomatch	yves	-1	1	y	0.79079
517.9904	0.0	+	56	verb	phrase	4	3	nomatch	yves	-1	1	y	0.79079
518.3903	0.2	marc	56	verb	phrase	4	4	nomatch	yves	-1	1	y	0.79079
518.5902	0.0	+	56	verb	phrase	4	5	nomatch	yves	-1	1	y	0.79079
518.99	0.2	peut	56	verb	phrase	4	6	nomatch	yves	-1	1	y	0.79079
519.1899	0.0	+	56	verb	phrase	4	7	nomatch	yves	-1	1	y	0.79079
519.5897	0.2	danser	56	verb	phrase	4	8	nomatch	yves	-1	1	y	0.79079
519.7896000000001	0.0	+	56	verb	phrase	4	9	nomatch	yves	-1	1	y	0.79079
520.1899	0.2	vite	56	verb	phrase	4	10	nomatch	yves	-1	1	y	0.79079
520.3896	0.0	+	56	verb	phrase	4	11	nomatch	yves	-1	1	y	0.79079
520.806	0.0	+	56	verb	phrase	4	12	nomatch	yves	-1	1	y	0.79079
522.7883	0.0	YVES	56	verb	phrase	4	13	nomatch	yves	-1	1	y	0.79079
523.6379000000001	0.0	+	56	verb	phrase	4	14	nomatch	yves	-1	1	y	0.79079
523.5791	0.0	[response]	56	verb	phrase	4	15	nomatch	yves	-1	1	y	0.79079
525.1872	0.0	+	57	verb	phrase	2	1	match	moins	4	1	p	0.58517
525.737	0.2	tkdsbw	57	verb	phrase	2	2	match	moins	4	1	p	0.58517
525.9369	0.0	+	57	verb	phrase	2	3	match	moins	4	1	p	0.58517
526.3367000000001	0.2	wxqn	57	verb	phrase	2	4	match	moins	4	1	p	0.58517
526.5366	0.0	+	57	verb	phrase	2	5	match	moins	4	1	p	0.58517
526.9364	0.2	bmjh	57	verb	phrase	2	6	match	moins	4	1	p	0.58517
527.1363	0.0	+	57	verb	phrase	2	7	match	moins	4	1	p	0.58517
527.5534	0.2	moins	57	verb	phrase	2	8	match	moins	4	1	p	0.58517
527.7365	0.0	+	57	verb	phrase	2	9	match	moins	4	1	p	0.58517
528.1359	0.2	chasser	57	verb	phrase	2	10	match	moins	4	1	p	0.58517
528.3365	0.0	+	57	verb	phrase	2	11	match	moins	4	1	p	0.58517
528.736	0.0	+	57	verb	phrase	2	12	match	moins	4	1	p	0.58517
530.7347	0.0	MOINS	57	verb	phrase	2	13	match	moins	4	1	p	0.58517
531.4513000000001	0.0	+	57	verb	phrase	2	14	match	moins	4	1	p	0.58517
531.3199	0.0	[response]	57	verb	phrase	2	15	match	moins	4	1	p	0.58517
533.1336	0.0	+	58	verb	phrase	2	1	nomatch	loin	-1	1	y	0.8238800000000001
533.7	0.2	hxpgljf	58	verb	phrase	2	2	nomatch	loin	-1	1	y	0.8238800000000001
533.9005	0.0	+	58	verb	phrase	2	3	nomatch	loin	-1	1	y	0.8238800000000001
534.3003	0.2	ztfk	58	verb	phrase	2	4	nomatch	loin	-1	1	y	0.8238800000000001
534.5001	0.0	+	58	verb	phrase	2	5	nomatch	loin	-1	1	y	0.8238800000000001
534.8995	0.2	ns	58	verb	phrase	2	6	nomatch	loin	-1	1	y	0.8238800000000001
535.1	0.0	+	58	verb	phrase	2	7	nomatch	loin	-1	1	y	0.8238800000000001
535.4993000000001	0.2	rouler	58	verb	phrase	2	8	nomatch	loin	-1	1	y	0.8238800000000001
535.6991	0.0	+	58	verb	phrase	2	9	nomatch	loin	-1	1	y	0.8238800000000001
536.099	0.2	tôt	58	verb	phrase	2	10	nomatch	loin	-1	1	y	0.8238800000000001
536.2989	0.0	+	58	verb	phrase	2	11	nomatch	loin	-1	1	y	0.8238800000000001
536.6987	0.0	+	58	verb	phrase	2	12	nomatch	loin	-1	1	y	0.8238800000000001
538.6978	0.0	LOIN	58	verb	phrase	2	13	nomatch	loin	-1	1	y	0.8238800000000001
539.6648	0.0	+	58	verb	phrase	2	14	nomatch	loin	-1	1	y	0.8238800000000001
539.5217	0.0	[response]	58	verb	phrase	2	15	nomatch	loin	-1	1	y	0.8238800000000001
541.0968	0.0	+	59	verb	list	4	1	nomatch	jade	-1	1	y	0.7752600000000001
541.6465000000001	0.2	wbr	59	verb	list	4	2	nomatch	jade	-1	1	y	0.7752600000000001
541.8464	0.0	+	59	verb	list	4	3	nomatch	jade	-1	1	y	0.7752600000000001
542.2462	0.2	paul	59	verb	list	4	4	nomatch	jade	-1	1	y	0.7752600000000001
542.4461	0.0	+	59	verb	list	4	5	nomatch	jade	-1	1	y	0.7752600000000001
542.8459	0.2	son	59	verb	list	4	6	nomatch	jade	-1	1	y	0.7752600000000001
543.0459	0.0	+	59	verb	list	4	7	nomatch	jade	-1	1	y	0.7752600000000001
543.4457	0.2	voyager	59	verb	list	4	8	nomatch	jade	-1	1	y	0.7752600000000001
543.6456000000001	0.0	+	59	verb	list	4	9	nomatch	jade	-1	1	y	0.7752600000000001
544.0454	0.2	blanc	59	verb	list	4	10	nomatch	jade	-1	1	y	0.7752600000000001
544.2454	0.0	+	59	verb	list	4	11	nomatch	jade	-1	1	y	0.7752600000000001
544.6457	0.0	+	59	verb	list	4	12	nomatch	jade	-1	1	y	0.7752600000000001
546.6442000000001	0.0	JADE	59	verb	list	4	13	nomatch	jade	-1	1	y	0.7752600000000001
547.4772	0.0	+	59	verb	list	4	14	nomatch	jade	-1	1	y	0.7752600000000001
547.4195000000001	0.0	[response]	59	verb	list	4	15	nomatch	jade	-1	1	y	0.7752600000000001
557.0396000000001	0.0	+	60	verb	phrase	1	1	match	parader	5	1	p	0.6774200000000001
557.5893	0.2	bhwdxnj	60	verb	phrase	1	2	match	parader	5	1	p	0.6774200000000001
557.7892	0.0	+	60	verb	phrase	1	3	match	parader	5	1	p	0.6774200000000001
558.189	0.2	ckf	60	verb	phrase	1	4	match	parader	5	1	p	0.6774200000000001
558.3889	0.0	+	60	verb	phrase	1	5	match	parader	5	1	p	0.6774200000000001
558.7894	0.2	bmjh	60	verb	phrase	1	6	match	parader	5	1	p	0.6774200000000001
558.989	0.0	+	60	verb	phrase	1	7	match	parader	5	1	p	0.6774200000000001
559.3887	0.2	rgdfpcxv	60	verb	phrase	1	8	match	parader	5	1	p	0.6774200000000001
559.5889	0.0	+	60	verb	phrase	1	9	match	parader	5	1	p	0.6774200000000001
559.9882	0.2	parader	60	verb	phrase	1	10	match	parader	5	1	p	0.6774200000000001
560.1881	0.0	+	60	verb	phrase	1	11	match	parader	5	1	p	0.6774200000000001
560.5879	0.0	+	60	verb	phrase	1	12	match	parader	5	1	p	0.6774200000000001
562.5874	0.0	PARADER	60	verb	phrase	1	13	match	parader	5	1	p	0.6774200000000001
563.3707	0.0	+	60	verb	phrase	1	14	match	parader	5	1	p	0.6774200000000001
563.2648	0.0	[response]	60	verb	phrase	1	15	match	parader	5	1	p	0.6774200000000001
564.986	0.0	+	61	verb	phrase	4	1	match	jongler	4	1	p	0.74623
565.5363	0.2	nhkcq	61	verb	phrase	4	2	match	jongler	4	1	p	0.74623
565.7363	0.0	+	61	verb	phrase	4	3	match	jongler	4	1	p	0.74623
566.1358	0.2	paul	61	verb	phrase	4	4	match	jongler	4	1	p	0.74623
566.3361	0.0	+	61	verb	phrase	4	5	match	jongler	4	1	p	0.74623
566.7354	0.2	va	61	verb	phrase	4	6	match	jongler	4	1	p	0.74623
566.9351	0.0	+	61	verb	phrase	4	7	match	jongler	4	1	p	0.74623
567.3349000000001	0.2	jongler	61	verb	phrase	4	8	match	jongler	4	1	p	0.74623
567.5348	0.0	+	61	verb	phrase	4	9	match	jongler	4	1	p	0.74623
567.9347	0.2	ainsi	61	verb	phrase	4	10	match	jongler	4	1	p	0.74623
568.1346	0.0	+	61	verb	phrase	4	11	match	jongler	4	1	p	0.74623
568.5344	0.0	+	61	verb	phrase	4	12	match	jongler	4	1	p	0.74623
570.5501	0.0	JONGLER	61	verb	phrase	4	13	match	jongler	4	1	p	0.74623
571.3498	0.0	+	61	verb	phrase	4	14	match	jongler	4	1	p	0.74623
571.2964000000001	0.0	[response]	61	verb	phrase	4	15	match	jongler	4	1	p	0.74623
572.9491	0.0	+	62	noun	phrase	4	1	match	sablier	4	1	p	1.1084
573.4988	0.2	dnpw	62	noun	phrase	4	2	match	sablier	4	1	p	1.1084
573.6987	0.0	+	62	noun	phrase	4	3	match	sablier	4	1	p	1.1084
574.0985000000001	0.2	sur	62	noun	phrase	4	4	match	sablier	4	1	p	1.1084
574.2985	0.0	+	62	noun	phrase	4	5	match	sablier	4	1	p	1.1084
574.6983	0.2	leur	62	noun	phrase	4	6	match	sablier	4	1	p	1.1084
574.8982	0.0	+	62	noun	phrase	4	7	match	sablier	4	1	p	1.1084
575.298	0.2	sablier	62	noun	phrase	4	8	match	sablier	4	1	p	1.1084
575.4981	0.0	+	62	noun	phrase	4	9	match	sablier	4	1	p	1.1084
575.8984	0.2	rouge	62	noun	phrase	4	10	match	sablier	4	1	p	1.1084
576.0976	0.0	+	62	noun	phrase	4	11	match	sablier	4	1	p	1.1084
576.4975000000001	0.0	+	62	noun	phrase	4	12	match	sablier	4	1	p	1.1084
578.4966000000001	0.0	SABLIER	62	noun	phrase	4	13	match	sablier	4	1	p	1.1084
579.6627	0.0	+	62	noun	phrase	4	14	match	sablier	4	1	p	1.1084
579.605	0.0	[response]	62	noun	phrase	4	15	match	sablier	4	1	p	1.1084
580.8955	0.0	+	63	verb	list	1	1	nomatch	petit	-1	1	y	0.79777
581.4452	0.2	cdphqbj	63	verb	list	1	2	nomatch	petit	-1	1	y	0.79777
581.6451000000001	0.0	+	63	verb	list	1	3	nomatch	petit	-1	1	y	0.79777
582.045	0.2	bgmp	63	verb	list	1	4	nomatch	petit	-1	1	y	0.79777
582.2449	0.0	+	63	verb	list	1	5	nomatch	petit	-1	1	y	0.79777
582.6447000000001	0.2	fzjl	63	verb	list	1	6	nomatch	petit	-1	1	y	0.79777
582.8446	0.0	+	63	verb	list	1	7	nomatch	petit	-1	1	y	0.79777
583.2445	0.2	cgzksdn	63	verb	list	1	8	nomatch	petit	-1	1	y	0.79777
583.445	0.0	+	63	verb	list	1	9	nomatch	petit	-1	1	y	0.79777
583.8442	0.2	bleu	63	verb	list	1	10	nomatch	petit	-1	1	y	0.79777
584.0441000000001	0.0	+	63	verb	list	1	11	nomatch	petit	-1	1	y	0.79777
584.4439	0.0	+	63	verb	list	1	12	nomatch	petit	-1	1	y	0.79777
586.4436000000001	0.0	PETIT	63	verb	list	1	13	nomatch	petit	-1	1	y	0.79777
587.3426000000001	0.0	+	63	verb	list	1	14	nomatch	petit	-1	1	y	0.79777
587.2414	0.0	[response]	63	verb	list	1	15	nomatch	petit	-1	1	y	0.79777
588.8419	0.0	+	64	verb	list	4	1	match	voyager	5	1	p	0.87279
589.3917	0.2	rnqtbxs	64	verb	list	4	2	match	voyager	5	1	p	0.87279
589.5916	0.0	+	64	verb	list	4	3	match	voyager	5	1	p	0.87279
589.9914	0.2	avec	64	verb	list	4	4	match	voyager	5	1	p	0.87279
590.1913000000001	0.0	+	64	verb	list	4	5	match	voyager	5	1	p	0.87279
590.5911	0.2	va	64	verb	list	4	6	match	voyager	5	1	p	0.87279
590.791	0.0	+	64	verb	list	4	7	match	voyager	5	1	p	0.87279
591.2081000000001	0.2	grand	64	verb	list	4	8	match	voyager	5	1	p	0.87279
591.3911	0.0	+	64	verb	list	4	9	match	voyager	5	1	p	0.87279
591.7906	0.2	voyager	64	verb	list	4	10	match	voyager	5	1	p	0.87279
592.0078	0.0	+	64	verb	list	4	11	match	voyager	5	1	p	0.87279
592.3903	0.0	+	64	verb	list	4	12	match	voyager	5	1	p	0.87279
594.3894	0.0	VOYAGER	64	verb	list	4	13	match	voyager	5	1	p	0.87279
595.3223	0.0	+	64	verb	list	4	14	match	voyager	5	1	p	0.87279
595.2622	0.0	[response]	64	verb	list	4	15	match	voyager	5	1	p	0.87279
596.7883	0.0	+	65	noun	phrase	3	1	nomatch	mon	-1	1	y	1.099
597.3381	0.2	vmfgnpx	65	noun	phrase	3	2	nomatch	mon	-1	1	y	1.099
597.538	0.0	+	65	noun	phrase	3	3	nomatch	mon	-1	1	y	1.099
597.9378	0.2	gmcl	65	noun	phrase	3	4	nomatch	mon	-1	1	y	1.099
598.1377	0.0	+	65	noun	phrase	3	5	nomatch	mon	-1	1	y	1.099
598.5375	0.2	leur	65	noun	phrase	3	6	nomatch	mon	-1	1	y	1.099
598.7377	0.0	+	65	noun	phrase	3	7	nomatch	mon	-1	1	y	1.099
599.1375	0.2	vieux	65	noun	phrase	3	8	nomatch	mon	-1	1	y	1.099
599.3373	0.0	+	65	noun	phrase	3	9	nomatch	mon	-1	1	y	1.099
599.7542	0.2	casier	65	noun	phrase	3	10	nomatch	mon	-1	1	y	1.099
599.9372	0.0	+	65	noun	phrase	3	11	nomatch	mon	-1	1	y	1.099
600.3367000000001	0.0	+	65	noun	phrase	3	12	nomatch	mon	-1	1	y	1.099
602.3365	0.0	MON	65	noun	phrase	3	13	nomatch	mon	-1	1	y	1.099
603.5020000000001	0.0	+	65	noun	phrase	3	14	nomatch	mon	-1	1	y	1.099
603.4356	0.0	[response]	65	noun	phrase	3	15	nomatch	mon	-1	1	y	1.099
604.7348000000001	0.0	+	66	verb	list	1	1	match	grand	5	1	p	0.66406
605.2845	0.2	zqjwvk	66	verb	list	1	2	match	grand	5	1	p	0.66406
605.4844	0.0	+	66	verb	list	1	3	match	grand	5	1	p	0.66406
605.8842	0.2	lwsf	66	verb	list	1	4	match	grand	5	1	p	0.66406
606.0841	0.0	+	66	verb	list	1	5	match	grand	5	1	p	0.66406
606.501	0.2	ns	66	verb	list	1	6	match	grand	5	1	p	0.66406
606.7007	0.0	+	66	verb	list	1	7	match	grand	5	1	p	0.66406
607.0837	0.2	vjwsmzp	66	verb	list	1	8	match	grand	5	1	p	0.66406
607.2836	0.0	+	66	verb	list	1	9	match	grand	5	1	p	0.66406
607.7001	0.2	grand	66	verb	list	1	10	match	grand	5	1	p	0.66406
607.9	0.0	+	66	verb	list	1	11	match	grand	5	1	p	0.66406
608.2998	0.0	+	66	verb	list	1	12	match	grand	5	1	p	0.66406
610.2989	0.0	GRAND	66	verb	list	1	13	match	grand	5	1	p	0.66406
611.0153	0.0	+	66	verb	list	1	14	match	grand	5	1	p	0.66406
610.9630000000001	0.0	[response]	66	verb	list	1	15	match	grand	5	1	p	0.66406
620.6942	0.0	+	67	verb	phrase	1	1	match	danser	5	1	p	1.0575
621.244	0.2	qwlnm	67	verb	phrase	1	2	match	danser	5	1	p	1.0575
621.4439	0.0	+	67	verb	phrase	1	3	match	danser	5	1	p	1.0575
621.8437	0.2	qskv	67	verb	phrase	1	4	match	danser	5	1	p	1.0575
622.0436	0.0	+	67	verb	phrase	1	5	match	danser	5	1	p	1.0575
622.4435	0.2	bmjh	67	verb	phrase	1	6	match	danser	5	1	p	1.0575
622.6438	0.0	+	67	verb	phrase	1	7	match	danser	5	1	p	1.0575
623.0601	0.2	vtwbl	67	verb	phrase	1	8	match	danser	5	1	p	1.0575
623.2435	0.0	+	67	verb	phrase	1	9	match	danser	5	1	p	1.0575
623.6434	0.2	danser	67	verb	phrase	1	10	match	danser	5	1	p	1.0575
623.8428	0.0	+	67	verb	phrase	1	11	match	danser	5	1	p	1.0575
624.2426	0.0	+	67	verb	phrase	1	12	match	danser	5	1	p	1.0575
626.2424	0.0	DANSER	67	verb	phrase	1	13	match	danser	5	1	p	1.0575
627.4079	0.0	+	67	verb	phrase	1	14	match	danser	5	1	p	1.0575
627.2999	0.0	[response]	67	verb	phrase	1	15	match	danser	5	1	p	1.0575
628.6407	0.0	+	68	verb	list	4	1	match	bleu	5	1	p	1.2416000000000003
629.1904000000001	0.2	hzs	68	verb	list	4	2	match	bleu	5	1	p	1.2416000000000003
629.3903	0.0	+	68	verb	list	4	3	match	bleu	5	1	p	1.2416000000000003
629.7901	0.2	jean	68	verb	list	4	4	match	bleu	5	1	p	1.2416000000000003
629.9907000000001	0.0	+	68	verb	list	4	5	match	bleu	5	1	p	1.2416000000000003
630.3905	0.2	leur	68	verb	list	4	6	match	bleu	5	1	p	1.2416000000000003
630.6066000000001	0.0	+	68	verb	list	4	7	match	bleu	5	1	p	1.2416000000000003
630.9896	0.2	nager	68	verb	list	4	8	match	bleu	5	1	p	1.2416000000000003
631.1895000000001	0.0	+	68	verb	list	4	9	match	bleu	5	1	p	1.2416000000000003
631.5893	0.2	bleu	68	verb	list	4	10	match	bleu	5	1	p	1.2416000000000003
631.7893	0.0	+	68	verb	list	4	11	match	bleu	5	1	p	1.2416000000000003
632.1891	0.0	+	68	verb	list	4	12	match	bleu	5	1	p	1.2416000000000003
634.1883	0.0	BLEU	68	verb	list	4	13	match	bleu	5	1	p	1.2416000000000003
635.4876	0.0	+	68	verb	list	4	14	match	bleu	5	1	p	1.2416000000000003
635.4299	0.0	[response]	68	verb	list	4	15	match	bleu	5	1	p	1.2416000000000003
636.5871	0.0	+	69	verb	list	3	1	match	chasser	5	1	p	0.74076
637.1368	0.2	sbtc	69	verb	list	3	2	match	chasser	5	1	p	0.74076
637.3368	0.0	+	69	verb	list	3	3	match	chasser	5	1	p	0.74076
637.7366000000001	0.2	xpd	69	verb	list	3	4	match	chasser	5	1	p	0.74076
637.9365	0.0	+	69	verb	list	3	5	match	chasser	5	1	p	0.74076
638.3363	0.2	va	69	verb	list	3	6	match	chasser	5	1	p	0.74076
638.5362	0.0	+	69	verb	list	3	7	match	chasser	5	1	p	0.74076
638.936	0.2	petit	69	verb	list	3	8	match	chasser	5	1	p	0.74076
639.136	0.0	+	69	verb	list	3	9	match	chasser	5	1	p	0.74076
639.553	0.2	chasser	69	verb	list	3	10	match	chasser	5	1	p	0.74076
639.7359	0.0	+	69	verb	list	3	11	match	chasser	5	1	p	0.74076
640.1355	0.0	+	69	verb	list	3	12	match	chasser	5	1	p	0.74076
642.1351	0.0	CHASSER	69	verb	list	3	13	match	chasser	5	1	p	0.74076
642.9342	0.0	+	69	verb	list	3	14	match	chasser	5	1	p	0.74076
642.8759	0.0	[response]	69	verb	list	3	15	match	chasser	5	1	p	0.74076
644.5502	0.0	+	70	verb	list	1	1	match	vert	5	1	p	0.83926
645.0999	0.2	cdtn	70	verb	list	1	2	match	vert	5	1	p	0.83926
645.2998	0.0	+	70	verb	list	1	3	match	vert	5	1	p	0.83926
645.6998	0.2	bgmp	70	verb	list	1	4	match	vert	5	1	p	0.83926
645.8997	0.0	+	70	verb	list	1	5	match	vert	5	1	p	0.83926
646.2997	0.2	ncb	70	verb	list	1	6	match	vert	5	1	p	0.83926
646.5	0.0	+	70	verb	list	1	7	match	vert	5	1	p	0.83926
646.8997	0.2	hkmwrl	70	verb	list	1	8	match	vert	5	1	p	0.83926
647.099	0.0	+	70	verb	list	1	9	match	vert	5	1	p	0.83926
647.4989	0.2	vert	70	verb	list	1	10	match	vert	5	1	p	0.83926
647.6988	0.0	+	70	verb	list	1	11	match	vert	5	1	p	0.83926
648.0986	0.0	+	70	verb	list	1	12	match	vert	5	1	p	0.83926
650.0977	0.0	VERT	70	verb	list	1	13	match	vert	5	1	p	0.83926
651.0643	0.0	+	70	verb	list	1	14	match	vert	5	1	p	0.83926
650.9369	0.0	[response]	70	verb	list	1	15	match	vert	5	1	p	0.83926
652.4966000000001	0.0	+	71	verb	list	1	1	match	petit	5	1	p	0.55778
653.0464000000001	0.2	qjgwftb	71	verb	list	1	2	match	petit	5	1	p	0.55778
653.2463	0.0	+	71	verb	list	1	3	match	petit	5	1	p	0.55778
653.6461	0.2	fcvw	71	verb	list	1	4	match	petit	5	1	p	0.55778
653.846	0.0	+	71	verb	list	1	5	match	petit	5	1	p	0.55778
654.2458	0.2	zhcb	71	verb	list	1	6	match	petit	5	1	p	0.55778
654.4457	0.0	+	71	verb	list	1	7	match	petit	5	1	p	0.55778
654.846	0.2	czhwnbm	71	verb	list	1	8	match	petit	5	1	p	0.55778
655.0457	0.0	+	71	verb	list	1	9	match	petit	5	1	p	0.55778
655.4622	0.2	petit	71	verb	list	1	10	match	petit	5	1	p	0.55778
655.6457	0.0	+	71	verb	list	1	11	match	petit	5	1	p	0.55778
656.0457	0.0	+	71	verb	list	1	12	match	petit	5	1	p	0.55778
658.0441000000001	0.0	PETIT	71	verb	list	1	13	match	petit	5	1	p	0.55778
658.6605000000001	0.0	+	71	verb	list	1	14	match	petit	5	1	p	0.55778
658.6019	0.0	[response]	71	verb	list	1	15	match	petit	5	1	p	0.55778
660.443	0.0	+	72	noun	phrase	2	1	match	grand	4	1	p	0.94199
660.9928	0.2	whmpvln	72	noun	phrase	2	2	match	grand	4	1	p	0.94199
661.1927000000001	0.0	+	72	noun	phrase	2	3	match	grand	4	1	p	0.94199
661.5925	0.2	lwsf	72	noun	phrase	2	4	match	grand	4	1	p	0.94199
661.7924	0.0	+	72	noun	phrase	2	5	match	grand	4	1	p	0.94199
662.1922000000001	0.2	ncb	72	noun	phrase	2	6	match	grand	4	1	p	0.94199
662.3922	0.0	+	72	noun	phrase	2	7	match	grand	4	1	p	0.94199
662.7927	0.2	grand	72	noun	phrase	2	8	match	grand	4	1	p	0.94199
663.0091	0.0	+	72	noun	phrase	2	9	match	grand	4	1	p	0.94199
663.4088	0.2	rocher	72	noun	phrase	2	10	match	grand	4	1	p	0.94199
663.5919	0.0	+	72	noun	phrase	2	11	match	grand	4	1	p	0.94199
663.9914	0.0	+	72	noun	phrase	2	12	match	grand	4	1	p	0.94199
665.9905	0.0	GRAND	72	noun	phrase	2	13	match	grand	4	1	p	0.94199
666.9901	0.0	+	72	noun	phrase	2	14	match	grand	4	1	p	0.94199
666.9325	0.0	[response]	72	noun	phrase	2	15	match	grand	4	1	p	0.94199
668.3895	0.0	+	73	verb	list	2	1	match	danser	5	1	p	0.66127
668.9392	0.2	qwh	73	verb	list	2	2	match	danser	5	1	p	0.66127
669.1394	0.0	+	73	verb	list	2	3	match	danser	5	1	p	0.66127
669.5396000000001	0.2	fcvw	73	verb	list	2	4	match	danser	5	1	p	0.66127
669.7561000000001	0.0	+	73	verb	list	2	5	match	danser	5	1	p	0.66127
670.1389	0.2	ns	73	verb	list	2	6	match	danser	5	1	p	0.66127
670.3386	0.0	+	73	verb	list	2	7	match	danser	5	1	p	0.66127
670.7384000000001	0.2	nouveau	73	verb	list	2	8	match	danser	5	1	p	0.66127
670.9383	0.0	+	73	verb	list	2	9	match	danser	5	1	p	0.66127
671.3381	0.2	danser	73	verb	list	2	10	match	danser	5	1	p	0.66127
671.538	0.0	+	73	verb	list	2	11	match	danser	5	1	p	0.66127
671.9379	0.0	+	73	verb	list	2	12	match	danser	5	1	p	0.66127
673.9373	0.0	DANSER	73	verb	list	2	13	match	danser	5	1	p	0.66127
674.7203000000001	0.0	+	73	verb	list	2	14	match	danser	5	1	p	0.66127
674.5985000000001	0.0	[response]	73	verb	list	2	15	match	danser	5	1	p	0.66127
692.3454	0.0	+	74	verb	list	1	1	nomatch	grand	-1	1	y	0.78974
692.8956000000001	0.2	vsp	74	verb	list	1	2	nomatch	grand	-1	1	y	0.78974
693.0954	0.0	+	74	verb	list	1	3	nomatch	grand	-1	1	y	0.78974
693.4949	0.2	bgmp	74	verb	list	1	4	nomatch	grand	-1	1	y	0.78974
693.6954000000001	0.0	+	74	verb	list	1	5	nomatch	grand	-1	1	y	0.78974
694.0949	0.2	ncb	74	verb	list	1	6	nomatch	grand	-1	1	y	0.78974
694.2945	0.0	+	74	verb	list	1	7	nomatch	grand	-1	1	y	0.78974
694.6943	0.2	qmkf	74	verb	list	1	8	nomatch	grand	-1	1	y	0.78974
694.8942000000001	0.0	+	74	verb	list	1	9	nomatch	grand	-1	1	y	0.78974
695.294	0.2	patiner	74	verb	list	1	10	nomatch	grand	-1	1	y	0.78974
695.4939	0.0	+	74	verb	list	1	11	nomatch	grand	-1	1	y	0.78974
695.8937	0.0	+	74	verb	list	1	12	nomatch	grand	-1	1	y	0.78974
697.8933000000001	0.0	GRAND	74	verb	list	1	13	nomatch	grand	-1	1	y	0.78974
698.7926	0.0	+	74	verb	list	1	14	nomatch	grand	-1	1	y	0.78974
698.683	0.0	[response]	74	verb	list	1	15	nomatch	grand	-1	1	y	0.78974
708.2882	0.0	+	75	noun	list	1	1	match	casier	5	1	p	0.7128200000000001
708.8379	0.2	vnzfrw	75	noun	list	1	2	match	casier	5	1	p	0.7128200000000001
709.0378000000001	0.0	+	75	noun	list	1	3	match	casier	5	1	p	0.7128200000000001
709.4377000000001	0.2	wxqn	75	noun	list	1	4	match	casier	5	1	p	0.7128200000000001
709.6376	0.0	+	75	noun	list	1	5	match	casier	5	1	p	0.7128200000000001
710.0374	0.2	fzjl	75	noun	list	1	6	match	casier	5	1	p	0.7128200000000001
710.2373	0.0	+	75	noun	list	1	7	match	casier	5	1	p	0.7128200000000001
710.6371	0.2	nqsb	75	noun	list	1	8	match	casier	5	1	p	0.7128200000000001
710.837	0.0	+	75	noun	list	1	9	match	casier	5	1	p	0.7128200000000001
711.2368	0.2	casier	75	noun	list	1	10	match	casier	5	1	p	0.7128200000000001
711.4367	0.0	+	75	noun	list	1	11	match	casier	5	1	p	0.7128200000000001
711.8366	0.0	+	75	noun	list	1	12	match	casier	5	1	p	0.7128200000000001
713.8357	0.0	CASIER	75	noun	list	1	13	match	casier	5	1	p	0.7128200000000001
714.602	0.0	+	75	noun	list	1	14	match	casier	5	1	p	0.7128200000000001
714.5485	0.0	[response]	75	noun	list	1	15	match	casier	5	1	p	0.7128200000000001
716.2346	0.0	+	76	noun	phrase	3	1	nomatch	petit	-1	1	y	0.59668
716.7843	0.2	lnhpj	76	noun	phrase	3	2	nomatch	petit	-1	1	y	0.59668
716.9842	0.0	+	76	noun	phrase	3	3	nomatch	petit	-1	1	y	0.59668
717.3841	0.2	xpd	76	noun	phrase	3	4	nomatch	petit	-1	1	y	0.59668
717.5840000000001	0.0	+	76	noun	phrase	3	5	nomatch	petit	-1	1	y	0.59668
717.9838	0.2	son	76	noun	phrase	3	6	nomatch	petit	-1	1	y	0.59668
718.1839	0.0	+	76	noun	phrase	3	7	nomatch	petit	-1	1	y	0.59668
718.5842	0.2	grand	76	noun	phrase	3	8	nomatch	petit	-1	1	y	0.59668
718.8001	0.0	+	76	noun	phrase	3	9	nomatch	petit	-1	1	y	0.59668
719.1999000000001	0.2	cendrier	76	noun	phrase	3	10	nomatch	petit	-1	1	y	0.59668
719.3998	0.0	+	76	noun	phrase	3	11	nomatch	petit	-1	1	y	0.59668
719.7997	0.0	+	76	noun	phrase	3	12	nomatch	petit	-1	1	y	0.59668
721.8159	0.0	PETIT	76	noun	phrase	3	13	nomatch	petit	-1	1	y	0.59668
722.4651	0.0	+	76	noun	phrase	3	14	nomatch	petit	-1	1	y	0.59668
722.4126	0.0	[response]	76	noun	phrase	3	15	nomatch	petit	-1	1	y	0.59668
732.1941	0.0	+	77	verb	list	2	1	match	vieux	4	1	p	0.84423
732.7438	0.2	frhtc	77	verb	list	2	2	match	vieux	4	1	p	0.84423
732.9437	0.0	+	77	verb	list	2	3	match	vieux	4	1	p	0.84423
733.3436	0.2	tdmv	77	verb	list	2	4	match	vieux	4	1	p	0.84423
733.5435	0.0	+	77	verb	list	2	5	match	vieux	4	1	p	0.84423
733.9433	0.2	zhcb	77	verb	list	2	6	match	vieux	4	1	p	0.84423
734.1432	0.0	+	77	verb	list	2	7	match	vieux	4	1	p	0.84423
734.543	0.2	vieux	77	verb	list	2	8	match	vieux	4	1	p	0.84423
734.7429	0.0	+	77	verb	list	2	9	match	vieux	4	1	p	0.84423
735.1428	0.2	chasser	77	verb	list	2	10	match	vieux	4	1	p	0.84423
735.3427	0.0	+	77	verb	list	2	11	match	vieux	4	1	p	0.84423
735.7432	0.0	+	77	verb	list	2	12	match	vieux	4	1	p	0.84423
737.7416000000001	0.0	VIEUX	77	verb	list	2	13	match	vieux	4	1	p	0.84423
738.6917	0.0	+	77	verb	list	2	14	match	vieux	4	1	p	0.84423
738.5858000000001	0.0	[response]	77	verb	list	2	15	match	vieux	4	1	p	0.84423
740.1405	0.0	+	78	verb	phrase	2	1	nomatch	petit	-1	1	y	0.71381
740.6903	0.2	wlpkf	78	verb	phrase	2	2	nomatch	petit	-1	1	y	0.71381
740.8902	0.0	+	78	verb	phrase	2	3	nomatch	petit	-1	1	y	0.71381
741.29	0.2	qskv	78	verb	phrase	2	4	nomatch	petit	-1	1	y	0.71381
741.4899	0.0	+	78	verb	phrase	2	5	nomatch	petit	-1	1	y	0.71381
741.8897000000001	0.2	ns	78	verb	phrase	2	6	nomatch	petit	-1	1	y	0.71381
742.0896	0.0	+	78	verb	phrase	2	7	nomatch	petit	-1	1	y	0.71381
742.4894	0.2	plus	78	verb	phrase	2	8	nomatch	petit	-1	1	y	0.71381
742.6898	0.0	+	78	verb	phrase	2	9	nomatch	petit	-1	1	y	0.71381
743.0893	0.2	nager	78	verb	phrase	2	10	nomatch	petit	-1	1	y	0.71381
743.2898	0.0	+	78	verb	phrase	2	11	nomatch	petit	-1	1	y	0.71381
743.6893	0.0	+	78	verb	phrase	2	12	nomatch	petit	-1	1	y	0.71381
745.6883	0.0	PETIT	78	verb	phrase	2	13	nomatch	petit	-1	1	y	0.71381
746.4543	0.0	+	78	verb	phrase	2	14	nomatch	petit	-1	1	y	0.71381
746.4021	0.0	[response]	78	verb	phrase	2	15	nomatch	petit	-1	1	y	0.71381
748.0869	0.0	+	79	verb	phrase	3	1	match	voyager	5	1	p	0.93773
748.6367	0.2	msrkhzn	79	verb	phrase	3	2	match	voyager	5	1	p	0.93773
748.8366	0.0	+	79	verb	phrase	3	3	match	voyager	5	1	p	0.93773
749.2364	0.2	ckf	79	verb	phrase	3	4	match	voyager	5	1	p	0.93773
749.4363	0.0	+	79	verb	phrase	3	5	match	voyager	5	1	p	0.93773
749.8365	0.2	doit	79	verb	phrase	3	6	match	voyager	5	1	p	0.93773
750.0533	0.0	+	79	verb	phrase	3	7	match	voyager	5	1	p	0.93773
750.4528	0.2	mieux	79	verb	phrase	3	8	match	voyager	5	1	p	0.93773
750.6526	0.0	+	79	verb	phrase	3	9	match	voyager	5	1	p	0.93773
751.0362	0.2	voyager	79	verb	phrase	3	10	match	voyager	5	1	p	0.93773
751.2355	0.0	+	79	verb	phrase	3	11	match	voyager	5	1	p	0.93773
751.6353	0.0	+	79	verb	phrase	3	12	match	voyager	5	1	p	0.93773
753.6344	0.0	VOYAGER	79	verb	phrase	3	13	match	voyager	5	1	p	0.93773
754.634	0.0	+	79	verb	phrase	3	14	match	voyager	5	1	p	0.93773
754.5722000000001	0.0	[response]	79	verb	phrase	3	15	match	voyager	5	1	p	0.93773
756.0500000000001	0.0	+	80	verb	list	4	1	match	beau	4	1	p	0.85355
756.5998	0.2	hxwdgpm	80	verb	list	4	2	match	beau	4	1	p	0.85355
756.7997	0.0	+	80	verb	list	4	3	match	beau	4	1	p	0.85355
757.1995000000001	0.2	dans	80	verb	list	4	4	match	beau	4	1	p	0.85355
757.3994	0.0	+	80	verb	list	4	5	match	beau	4	1	p	0.85355
757.7997	0.2	peut	80	verb	list	4	6	match	beau	4	1	p	0.85355
757.9994	0.0	+	80	verb	list	4	7	match	beau	4	1	p	0.85355
758.3995	0.2	beau	80	verb	list	4	8	match	beau	4	1	p	0.85355
758.5994000000001	0.0	+	80	verb	list	4	9	match	beau	4	1	p	0.85355
758.9987	0.2	rouler	80	verb	list	4	10	match	beau	4	1	p	0.85355
759.1986	0.0	+	80	verb	list	4	11	match	beau	4	1	p	0.85355
759.5984	0.0	+	80	verb	list	4	12	match	beau	4	1	p	0.85355
761.5980000000001	0.0	BEAU	80	verb	list	4	13	match	beau	4	1	p	0.85355
762.5138000000001	0.0	+	80	verb	list	4	14	match	beau	4	1	p	0.85355
763.9964	0.0	+	80	verb	list	4	15	match	beau	4	1	p	0.85355
765.0295	0.0	+	80	verb	list	4	16	match	beau	4	1	p	0.85355
765.1298	0.0	+	80	verb	list	4	17	match	beau	4	1	p	0.85355
766.5120000000001	0.0	+	80	verb	list	4	18	match	beau	4	1	p	0.85355
766.6119	0.0	+	80	verb	list	4	19	match	beau	4	1	p	0.85355
768.0113	0.0	+	80	verb	list	4	20	match	beau	4	1	p	0.85355
768.1113	0.0	+	80	verb	list	4	21	match	beau	4	1	p	0.85355
769.5106000000001	0.0	+	80	verb	list	4	22	match	beau	4	1	p	0.85355
769.6106	0.0	+	80	verb	list	4	23	match	beau	4	1	p	0.85355
771.0099	0.0	+	80	verb	list	4	24	match	beau	4	1	p	0.85355
771.1099	0.0	+	80	verb	list	4	25	match	beau	4	1	p	0.85355
772.5093	0.0	+	80	verb	list	4	26	match	beau	4	1	p	0.85355
772.6092	0.0	+	80	verb	list	4	27	match	beau	4	1	p	0.85355
774.0086	0.0	+	80	verb	list	4	28	match	beau	4	1	p	0.85355
774.109	0.0	+	80	verb	list	4	29	match	beau	4	1	p	0.85355
775.5079000000001	0.0	+	80	verb	list	4	30	match	beau	4	1	p	0.85355
775.6079	0.0	+	80	verb	list	4	31	match	beau	4	1	p	0.85355
777.0073	0.0	+	80	verb	list	4	32	match	beau	4	1	p	0.85355
777.1072	0.0	+	80	verb	list	4	33	match	beau	4	1	p	0.85355
778.5066	0.0	+	80	verb	list	4	34	match	beau	4	1	p	0.85355
778.6065	0.0	+	80	verb	list	4	35	match	beau	4	1	p	0.85355
782.5214	0.0	+	80	verb	list	4	36	match	beau	4	1	p	0.85355
762.4516	0.0	[response]	80	verb	list	4	37	match	beau	4	1	p	0.85355
