onset	duration	stim	trial_number	trial_type	trial_structure	trial_length	sequential_position	probe_type	probe	probe_position	response_correct	response_key	response_time
0.05540000000000589	0.0	+	1	noun	list	1	1	nomatch	chasser	-1	1	y	0.55874
0.5384999999999991	0.2	vjpcq	1	noun	list	1	2	nomatch	chasser	-1	1	y	0.55874
0.7383999999999986	0.0	+	1	noun	list	1	3	nomatch	chasser	-1	1	y	0.55874
1.1381999999999977	0.2	pcms	1	noun	list	1	4	nomatch	chasser	-1	1	y	0.55874
1.3380999999999972	0.0	+	1	noun	list	1	5	nomatch	chasser	-1	1	y	0.55874
1.7378999999999962	0.2	ns	1	noun	list	1	6	nomatch	chasser	-1	1	y	0.55874
1.937899999999999	0.0	+	1	noun	list	1	7	nomatch	chasser	-1	1	y	0.55874
2.337699999999998	0.2	lrwcdknm	1	noun	list	1	8	nomatch	chasser	-1	1	y	0.55874
2.5375999999999976	0.0	+	1	noun	list	1	9	nomatch	chasser	-1	1	y	0.55874
2.9373999999999967	0.2	loin	1	noun	list	1	10	nomatch	chasser	-1	1	y	0.55874
3.137299999999996	0.0	+	1	noun	list	1	11	nomatch	chasser	-1	1	y	0.55874
3.5370999999999952	0.0	+	1	noun	list	1	12	nomatch	chasser	-1	1	y	0.55874
5.536200000000008	0.0	CHASSER	1	noun	list	1	13	nomatch	chasser	-1	1	y	0.55874
6.152600000000007	0.0	+	1	noun	list	1	14	nomatch	chasser	-1	1	y	0.55874
6.094999999999999	0.0	[response]	1	noun	list	1	15	nomatch	chasser	-1	1	y	0.55874
7.935200000000009	0.0	+	2	noun	list	3	1	match	mon	3	1	p	0.67599
8.484899999999996	0.2	nljd	2	noun	list	3	2	match	mon	3	1	p	0.67599
8.701499999999996	0.0	+	2	noun	list	3	3	match	mon	3	1	p	0.67599
9.101700000000008	0.2	wxqn	2	noun	list	3	4	match	mon	3	1	p	0.67599
9.2851	0.0	+	2	noun	list	3	5	match	mon	3	1	p	0.67599
9.685100000000006	0.2	mon	2	noun	list	3	6	match	mon	3	1	p	0.67599
9.884799999999998	0.0	+	2	noun	list	3	7	match	mon	3	1	p	0.67599
10.284099999999995	0.2	moins	2	noun	list	3	8	match	mon	3	1	p	0.67599
10.484000000000009	0.0	+	2	noun	list	3	9	match	mon	3	1	p	0.67599
10.883800000000008	0.2	panier	2	noun	list	3	10	match	mon	3	1	p	0.67599
11.083700000000007	0.0	+	2	noun	list	3	11	match	mon	3	1	p	0.67599
11.483599999999996	0.0	+	2	noun	list	3	12	match	mon	3	1	p	0.67599
13.516100000000009	0.0	MON	2	noun	list	3	13	match	mon	3	1	p	0.67599
14.248999999999995	0.0	+	2	noun	list	3	14	match	mon	3	1	p	0.67599
14.192000000000021	0.0	[response]	2	noun	list	3	15	match	mon	3	1	p	0.67599
15.948800000000006	0.0	+	3	noun	list	1	1	nomatch	doit	-1	1	y	0.57466
16.448099999999997	0.2	qvghj	3	noun	list	1	2	nomatch	doit	-1	1	y	0.57466
16.648200000000003	0.0	+	3	noun	list	1	3	nomatch	doit	-1	1	y	0.57466
17.0484	0.2	gfws	3	noun	list	1	4	nomatch	doit	-1	1	y	0.57466
17.247600000000006	0.0	+	3	noun	list	1	5	nomatch	doit	-1	1	y	0.57466
17.647400000000005	0.2	ns	3	noun	list	1	6	nomatch	doit	-1	1	y	0.57466
17.847400000000007	0.0	+	3	noun	list	1	7	nomatch	doit	-1	1	y	0.57466
18.247200000000007	0.2	pnwmvrq	3	noun	list	1	8	nomatch	doit	-1	1	y	0.57466
18.447100000000006	0.0	+	3	noun	list	1	9	nomatch	doit	-1	1	y	0.57466
18.846900000000005	0.2	ainsi	3	noun	list	1	10	nomatch	doit	-1	1	y	0.57466
19.046800000000005	0.0	+	3	noun	list	1	11	nomatch	doit	-1	1	y	0.57466
19.447100000000006	0.0	+	3	noun	list	1	12	nomatch	doit	-1	1	y	0.57466
21.445700000000002	0.0	DOIT	3	noun	list	1	13	nomatch	doit	-1	1	y	0.57466
22.0788	0.0	+	3	noun	list	1	14	nomatch	doit	-1	1	y	0.57466
22.020399999999995	0.0	[response]	3	noun	list	1	15	nomatch	doit	-1	1	y	0.57466
23.844700000000003	0.0	+	4	noun	phrase	4	1	nomatch	leur	-1	1	y	0.6282
24.394400000000005	0.2	vpgdn	4	noun	phrase	4	2	nomatch	leur	-1	1	y	0.6282
24.594300000000004	0.0	+	4	noun	phrase	4	3	nomatch	leur	-1	1	y	0.6282
24.994100000000003	0.2	avec	4	noun	phrase	4	4	nomatch	leur	-1	1	y	0.6282
25.194000000000003	0.0	+	4	noun	phrase	4	5	nomatch	leur	-1	1	y	0.6282
25.594099999999997	0.2	mon	4	noun	phrase	4	6	nomatch	leur	-1	1	y	0.6282
25.7945	0.0	+	4	noun	phrase	4	7	nomatch	leur	-1	1	y	0.6282
26.194000000000003	0.2	tablier	4	noun	phrase	4	8	nomatch	leur	-1	1	y	0.6282
26.393500000000003	0.0	+	4	noun	phrase	4	9	nomatch	leur	-1	1	y	0.6282
26.793300000000002	0.2	bleu	4	noun	phrase	4	10	nomatch	leur	-1	1	y	0.6282
26.993899999999996	0.0	+	4	noun	phrase	4	11	nomatch	leur	-1	1	y	0.6282
27.393100000000004	0.0	+	4	noun	phrase	4	12	nomatch	leur	-1	1	y	0.6282
29.392200000000003	0.0	LEUR	4	noun	phrase	4	13	nomatch	leur	-1	1	y	0.6282
30.075199999999995	0.0	+	4	noun	phrase	4	14	nomatch	leur	-1	1	y	0.6282
30.020399999999995	0.0	[response]	4	noun	phrase	4	15	nomatch	leur	-1	1	y	0.6282
31.7911	0.0	+	5	verb	phrase	3	1	match	peut	3	1	p	0.51774
32.340900000000005	0.2	xpklnv	5	verb	phrase	3	2	match	peut	3	1	p	0.51774
32.5407	0.0	+	5	verb	phrase	3	3	match	peut	3	1	p	0.51774
32.9576	0.2	ztfk	5	verb	phrase	3	4	match	peut	3	1	p	0.51774
33.15780000000001	0.0	+	5	verb	phrase	3	5	match	peut	3	1	p	0.51774
33.541	0.2	peut	5	verb	phrase	3	6	match	peut	3	1	p	0.51774
33.7402	0.0	+	5	verb	phrase	3	7	match	peut	3	1	p	0.51774
34.14	0.2	plus	5	verb	phrase	3	8	match	peut	3	1	p	0.51774
34.340599999999995	0.0	+	5	verb	phrase	3	9	match	peut	3	1	p	0.51774
34.7398	0.2	patiner	5	verb	phrase	3	10	match	peut	3	1	p	0.51774
34.9397	0.0	+	5	verb	phrase	3	11	match	peut	3	1	p	0.51774
35.3395	0.0	+	5	verb	phrase	3	12	match	peut	3	1	p	0.51774
37.355900000000005	0.0	PEUT	5	verb	phrase	3	13	match	peut	3	1	p	0.51774
37.9383	0.0	+	5	verb	phrase	3	14	match	peut	3	1	p	0.51774
37.873599999999996	0.0	[response]	5	verb	phrase	3	15	match	peut	3	1	p	0.51774
39.7375	0.0	+	6	noun	phrase	1	1	nomatch	cendrier	-1	1	y	0.76208
40.2873	0.2	snphz	6	noun	phrase	1	2	nomatch	cendrier	-1	1	y	0.76208
40.4872	0.0	+	6	noun	phrase	1	3	nomatch	cendrier	-1	1	y	0.76208
40.887	0.2	pcms	6	noun	phrase	1	4	nomatch	cendrier	-1	1	y	0.76208
41.087	0.0	+	6	noun	phrase	1	5	nomatch	cendrier	-1	1	y	0.76208
41.486900000000006	0.2	fzjl	6	noun	phrase	1	6	nomatch	cendrier	-1	1	y	0.76208
41.686800000000005	0.0	+	6	noun	phrase	1	7	nomatch	cendrier	-1	1	y	0.76208
42.087199999999996	0.2	whdml	6	noun	phrase	1	8	nomatch	cendrier	-1	1	y	0.76208
42.303399999999996	0.0	+	6	noun	phrase	1	9	nomatch	cendrier	-1	1	y	0.76208
42.6862	0.2	sablier	6	noun	phrase	1	10	nomatch	cendrier	-1	1	y	0.76208
42.8861	0.0	+	6	noun	phrase	1	11	nomatch	cendrier	-1	1	y	0.76208
43.2859	0.0	+	6	noun	phrase	1	12	nomatch	cendrier	-1	1	y	0.76208
45.285	0.0	CENDRIER	6	noun	phrase	1	13	nomatch	cendrier	-1	1	y	0.76208
46.1853	0.0	+	6	noun	phrase	1	14	nomatch	cendrier	-1	1	y	0.76208
46.0471	0.0	[response]	6	noun	phrase	1	15	nomatch	cendrier	-1	1	y	0.76208
47.68390000000001	0.0	+	7	verb	list	2	1	match	grand	4	1	p	0.55378
48.2338	0.2	jswclmh	7	verb	list	2	2	match	grand	4	1	p	0.55378
48.4337	0.0	+	7	verb	list	2	3	match	grand	4	1	p	0.55378
48.8505	0.2	xpd	7	verb	list	2	4	match	grand	4	1	p	0.55378
49.0506	0.0	+	7	verb	list	2	5	match	grand	4	1	p	0.55378
49.4671	0.2	ns	7	verb	list	2	6	match	grand	4	1	p	0.55378
49.6503	0.0	+	7	verb	list	2	7	match	grand	4	1	p	0.55378
50.066500000000005	0.2	grand	7	verb	list	2	8	match	grand	4	1	p	0.55378
50.24940000000001	0.0	+	7	verb	list	2	9	match	grand	4	1	p	0.55378
50.6493	0.2	parader	7	verb	list	2	10	match	grand	4	1	p	0.55378
50.849199999999996	0.0	+	7	verb	list	2	11	match	grand	4	1	p	0.55378
51.248999999999995	0.0	+	7	verb	list	2	12	match	grand	4	1	p	0.55378
53.24810000000001	0.0	GRAND	7	verb	list	2	13	match	grand	4	1	p	0.55378
53.86450000000001	0.0	+	7	verb	list	2	14	match	grand	4	1	p	0.55378
53.8019	0.0	[response]	7	verb	list	2	15	match	grand	4	1	p	0.55378
63.6434	0.0	+	8	noun	list	1	1	match	tôt	5	1	p	0.61506
64.1932	0.2	frdcnbs	8	noun	list	1	2	match	tôt	5	1	p	0.61506
64.39309999999999	0.0	+	8	noun	list	1	3	match	tôt	5	1	p	0.61506
64.79289999999999	0.2	pcms	8	noun	list	1	4	match	tôt	5	1	p	0.61506
64.9928	0.0	+	8	noun	list	1	5	match	tôt	5	1	p	0.61506
65.3926	0.2	bmjh	8	noun	list	1	6	match	tôt	5	1	p	0.61506
65.59250000000002	0.0	+	8	noun	list	1	7	match	tôt	5	1	p	0.61506
65.9926	0.2	ctfnlpq	8	noun	list	1	8	match	tôt	5	1	p	0.61506
66.1923	0.0	+	8	noun	list	1	9	match	tôt	5	1	p	0.61506
66.5921	0.2	tôt	8	noun	list	1	10	match	tôt	5	1	p	0.61506
66.79200000000002	0.0	+	8	noun	list	1	11	match	tôt	5	1	p	0.61506
67.1921	0.0	+	8	noun	list	1	12	match	tôt	5	1	p	0.61506
69.19090000000001	0.0	TÔT	8	noun	list	1	13	match	tôt	5	1	p	0.61506
69.8573	0.0	+	8	noun	list	1	14	match	tôt	5	1	p	0.61506
69.806	0.0	[response]	8	noun	list	1	15	match	tôt	5	1	p	0.61506
71.58980000000001	0.0	+	9	noun	list	2	1	match	boîtier	5	1	p	0.66723
72.13960000000002	0.2	qlckzp	9	noun	list	2	2	match	boîtier	5	1	p	0.66723
72.3395	0.0	+	9	noun	list	2	3	match	boîtier	5	1	p	0.66723
72.7393	0.2	wxqn	9	noun	list	2	4	match	boîtier	5	1	p	0.66723
72.93920000000001	0.0	+	9	noun	list	2	5	match	boîtier	5	1	p	0.66723
73.33909999999999	0.2	fzjl	9	noun	list	2	6	match	boîtier	5	1	p	0.66723
73.53940000000001	0.0	+	9	noun	list	2	7	match	boîtier	5	1	p	0.66723
73.9395	0.2	trop	9	noun	list	2	8	match	boîtier	5	1	p	0.66723
74.13870000000001	0.0	+	9	noun	list	2	9	match	boîtier	5	1	p	0.66723
74.53850000000001	0.2	boîtier	9	noun	list	2	10	match	boîtier	5	1	p	0.66723
74.7384	0.0	+	9	noun	list	2	11	match	boîtier	5	1	p	0.66723
75.1382	0.0	+	9	noun	list	2	12	match	boîtier	5	1	p	0.66723
77.1546	0.0	BOÎTIER	9	noun	list	2	13	match	boîtier	5	1	p	0.66723
77.88700000000001	0.0	+	9	noun	list	2	14	match	boîtier	5	1	p	0.66723
77.82180000000001	0.0	[response]	9	noun	list	2	15	match	boîtier	5	1	p	0.66723
87.6331	0.0	+	10	noun	phrase	3	1	match	bleu	5	1	p	0.81847
88.09939999999999	0.2	kljdxm	10	noun	phrase	3	2	match	bleu	5	1	p	0.81847
88.29899999999999	0.0	+	10	noun	phrase	3	3	match	bleu	5	1	p	0.81847
88.69879999999999	0.2	xpd	10	noun	phrase	3	4	match	bleu	5	1	p	0.81847
88.8987	0.0	+	10	noun	phrase	3	5	match	bleu	5	1	p	0.81847
89.2985	0.2	mon	10	noun	phrase	3	6	match	bleu	5	1	p	0.81847
89.49839999999999	0.0	+	10	noun	phrase	3	7	match	bleu	5	1	p	0.81847
89.89829999999999	0.2	tablier	10	noun	phrase	3	8	match	bleu	5	1	p	0.81847
90.0982	0.0	+	10	noun	phrase	3	9	match	bleu	5	1	p	0.81847
90.49810000000001	0.2	bleu	10	noun	phrase	3	10	match	bleu	5	1	p	0.81847
90.69850000000001	0.0	+	10	noun	phrase	3	11	match	bleu	5	1	p	0.81847
91.098	0.0	+	10	noun	phrase	3	12	match	bleu	5	1	p	0.81847
93.09680000000002	0.0	BLEU	10	noun	phrase	3	13	match	bleu	5	1	p	0.81847
94.0799	0.0	+	10	noun	phrase	3	14	match	bleu	5	1	p	0.81847
93.91530000000002	0.0	[response]	10	noun	phrase	3	15	match	bleu	5	1	p	0.81847
95.49570000000001	0.0	+	11	noun	list	3	1	match	doit	3	1	p	0.5915
96.04549999999999	0.2	bwnkjhm	11	noun	list	3	2	match	doit	3	1	p	0.5915
96.2454	0.0	+	11	noun	list	3	3	match	doit	3	1	p	0.5915
96.6452	0.2	lwsf	11	noun	list	3	4	match	doit	3	1	p	0.5915
96.84519999999999	0.0	+	11	noun	list	3	5	match	doit	3	1	p	0.5915
97.24499999999999	0.2	doit	11	noun	list	3	6	match	doit	3	1	p	0.5915
97.4449	0.0	+	11	noun	list	3	7	match	doit	3	1	p	0.5915
97.8447	0.2	casier	11	noun	list	3	8	match	doit	3	1	p	0.5915
98.04459999999999	0.0	+	11	noun	list	3	9	match	doit	3	1	p	0.5915
98.4449	0.2	ainsi	11	noun	list	3	10	match	doit	3	1	p	0.5915
98.645	0.0	+	11	noun	list	3	11	match	doit	3	1	p	0.5915
99.06089999999999	0.0	+	11	noun	list	3	12	match	doit	3	1	p	0.5915
101.0433	0.0	DOIT	11	noun	list	3	13	match	doit	3	1	p	0.5915
101.693	0.0	+	11	noun	list	3	14	match	doit	3	1	p	0.5915
101.6348	0.0	[response]	11	noun	list	3	15	match	doit	3	1	p	0.5915
103.4422	0.0	+	12	noun	phrase	2	1	nomatch	rouge	-1	1	y	0.87137
103.9919	0.2	tnqljrc	12	noun	phrase	2	2	nomatch	rouge	-1	1	y	0.87137
104.19180000000001	0.0	+	12	noun	phrase	2	3	nomatch	rouge	-1	1	y	0.87137
104.59169999999999	0.2	xpd	12	noun	phrase	2	4	nomatch	rouge	-1	1	y	0.87137
104.7916	0.0	+	12	noun	phrase	2	5	nomatch	rouge	-1	1	y	0.87137
105.1914	0.2	fbd	12	noun	phrase	2	6	nomatch	rouge	-1	1	y	0.87137
105.39130000000002	0.0	+	12	noun	phrase	2	7	nomatch	rouge	-1	1	y	0.87137
105.80839999999999	0.2	panier	12	noun	phrase	2	8	nomatch	rouge	-1	1	y	0.87137
105.99149999999999	0.0	+	12	noun	phrase	2	9	nomatch	rouge	-1	1	y	0.87137
106.391	0.2	noir	12	noun	phrase	2	10	nomatch	rouge	-1	1	y	0.87137
106.60770000000001	0.0	+	12	noun	phrase	2	11	nomatch	rouge	-1	1	y	0.87137
107.008	0.0	+	12	noun	phrase	2	12	nomatch	rouge	-1	1	y	0.87137
108.98970000000001	0.0	ROUGE	12	noun	phrase	2	13	nomatch	rouge	-1	1	y	0.87137
109.9561	0.0	+	12	noun	phrase	2	14	nomatch	rouge	-1	1	y	0.87137
109.86110000000004	0.0	[response]	12	noun	phrase	2	15	nomatch	rouge	-1	1	y	0.87137
119.385	0.0	+	13	noun	phrase	4	1	match	blanc	5	1	p	0.79539
119.9355	0.2	ztk	13	noun	phrase	4	2	match	blanc	5	1	p	0.79539
120.1519	0.0	+	13	noun	phrase	4	3	match	blanc	5	1	p	0.79539
120.5347	0.2	vers	13	noun	phrase	4	4	match	blanc	5	1	p	0.79539
120.75150000000001	0.0	+	13	noun	phrase	4	5	match	blanc	5	1	p	0.79539
121.1347	0.2	mon	13	noun	phrase	4	6	match	blanc	5	1	p	0.79539
121.33409999999999	0.0	+	13	noun	phrase	4	7	match	blanc	5	1	p	0.79539
121.7343	0.2	boîtier	13	noun	phrase	4	8	match	blanc	5	1	p	0.79539
121.93390000000001	0.0	+	13	noun	phrase	4	9	match	blanc	5	1	p	0.79539
122.33370000000001	0.2	blanc	13	noun	phrase	4	10	match	blanc	5	1	p	0.79539
122.53359999999999	0.0	+	13	noun	phrase	4	11	match	blanc	5	1	p	0.79539
122.9501	0.0	+	13	noun	phrase	4	12	match	blanc	5	1	p	0.79539
124.9492	0.0	BLANC	13	noun	phrase	4	13	match	blanc	5	1	p	0.79539
125.79880000000001	0.0	+	13	noun	phrase	4	14	match	blanc	5	1	p	0.79539
125.74460000000003	0.0	[response]	13	noun	phrase	4	15	match	blanc	5	1	p	0.79539
127.3481	0.0	+	14	noun	phrase	1	1	match	tablier	5	1	p	0.68013
127.8978	0.2	fbthv	14	noun	phrase	1	2	match	tablier	5	1	p	0.68013
128.0978	0.0	+	14	noun	phrase	1	3	match	tablier	5	1	p	0.68013
128.49759999999998	0.2	gfws	14	noun	phrase	1	4	match	tablier	5	1	p	0.68013
128.6975	0.0	+	14	noun	phrase	1	5	match	tablier	5	1	p	0.68013
129.0976	0.2	fzjl	14	noun	phrase	1	6	match	tablier	5	1	p	0.68013
129.31380000000001	0.0	+	14	noun	phrase	1	7	match	tablier	5	1	p	0.68013
129.6975	0.2	jtnhl	14	noun	phrase	1	8	match	tablier	5	1	p	0.68013
129.89730000000003	0.0	+	14	noun	phrase	1	9	match	tablier	5	1	p	0.68013
130.2975	0.2	tablier	14	noun	phrase	1	10	match	tablier	5	1	p	0.68013
130.49669999999998	0.0	+	14	noun	phrase	1	11	match	tablier	5	1	p	0.68013
130.8965	0.0	+	14	noun	phrase	1	12	match	tablier	5	1	p	0.68013
132.8956	0.0	TABLIER	14	noun	phrase	1	13	match	tablier	5	1	p	0.68013
133.6286	0.0	+	14	noun	phrase	1	14	match	tablier	5	1	p	0.68013
133.57569999999998	0.0	[response]	14	noun	phrase	1	15	match	tablier	5	1	p	0.68013
135.29450000000003	0.0	+	15	noun	phrase	4	1	match	son	3	1	p	1.0992000000000002
135.84429999999998	0.2	jrnth	15	noun	phrase	4	2	match	son	3	1	p	1.0992000000000002
136.0442	0.0	+	15	noun	phrase	4	3	match	son	3	1	p	1.0992000000000002
136.44400000000002	0.2	sur	15	noun	phrase	4	4	match	son	3	1	p	1.0992000000000002
136.64389999999997	0.0	+	15	noun	phrase	4	5	match	son	3	1	p	1.0992000000000002
137.0437	0.2	son	15	noun	phrase	4	6	match	son	3	1	p	1.0992000000000002
137.24360000000001	0.0	+	15	noun	phrase	4	7	match	son	3	1	p	1.0992000000000002
137.64350000000002	0.2	beau	15	noun	phrase	4	8	match	son	3	1	p	1.0992000000000002
137.84339999999997	0.0	+	15	noun	phrase	4	9	match	son	3	1	p	1.0992000000000002
138.2437	0.2	sablier	15	noun	phrase	4	10	match	son	3	1	p	1.0992000000000002
138.4434	0.0	+	15	noun	phrase	4	11	match	son	3	1	p	1.0992000000000002
138.8429	0.0	+	15	noun	phrase	4	12	match	son	3	1	p	1.0992000000000002
140.84199999999998	0.0	SON	15	noun	phrase	4	13	match	son	3	1	p	1.0992000000000002
142.0082	0.0	+	15	noun	phrase	4	14	match	son	3	1	p	1.0992000000000002
141.94119999999998	0.0	[response]	15	noun	phrase	4	15	match	son	3	1	p	1.0992000000000002
143.2409	0.0	+	16	noun	phrase	1	1	nomatch	nager	-1	1	y	0.73262
143.79070000000002	0.2	zrlmf	16	noun	phrase	1	2	nomatch	nager	-1	1	y	0.73262
143.99060000000003	0.0	+	16	noun	phrase	1	3	nomatch	nager	-1	1	y	0.73262
144.39100000000002	0.2	tdmv	16	noun	phrase	1	4	nomatch	nager	-1	1	y	0.73262
144.5903	0.0	+	16	noun	phrase	1	5	nomatch	nager	-1	1	y	0.73262
145.00709999999998	0.2	ncb	16	noun	phrase	1	6	nomatch	nager	-1	1	y	0.73262
145.19010000000003	0.0	+	16	noun	phrase	1	7	nomatch	nager	-1	1	y	0.73262
145.5899	0.2	ctfnlpq	16	noun	phrase	1	8	nomatch	nager	-1	1	y	0.73262
145.7898	0.0	+	16	noun	phrase	1	9	nomatch	nager	-1	1	y	0.73262
146.18959999999998	0.2	bleu	16	noun	phrase	1	10	nomatch	nager	-1	1	y	0.73262
146.3895	0.0	+	16	noun	phrase	1	11	nomatch	nager	-1	1	y	0.73262
146.78930000000003	0.0	+	16	noun	phrase	1	12	nomatch	nager	-1	1	y	0.73262
148.78840000000002	0.0	NAGER	16	noun	phrase	1	13	nomatch	nager	-1	1	y	0.73262
149.5881	0.0	+	16	noun	phrase	1	14	nomatch	nager	-1	1	y	0.73262
149.5211	0.0	[response]	16	noun	phrase	1	15	nomatch	nager	-1	1	y	0.73262
151.18740000000003	0.0	+	17	noun	list	1	1	nomatch	plus	-1	1	y	0.67207
151.7371	0.2	mqctr	17	noun	list	1	2	nomatch	plus	-1	1	y	0.67207
151.937	0.0	+	17	noun	list	1	3	nomatch	plus	-1	1	y	0.67207
152.33679999999998	0.2	ckf	17	noun	list	1	4	nomatch	plus	-1	1	y	0.67207
152.53680000000003	0.0	+	17	noun	list	1	5	nomatch	plus	-1	1	y	0.67207
152.9366	0.2	fbd	17	noun	list	1	6	nomatch	plus	-1	1	y	0.67207
153.1365	0.0	+	17	noun	list	1	7	nomatch	plus	-1	1	y	0.67207
153.53680000000003	0.2	lrwcdknm	17	noun	list	1	8	nomatch	plus	-1	1	y	0.67207
153.75310000000002	0.0	+	17	noun	list	1	9	nomatch	plus	-1	1	y	0.67207
154.15339999999998	0.2	trop	17	noun	list	1	10	nomatch	plus	-1	1	y	0.67207
154.33589999999998	0.0	+	17	noun	list	1	11	nomatch	plus	-1	1	y	0.67207
154.73579999999998	0.0	+	17	noun	list	1	12	nomatch	plus	-1	1	y	0.67207
156.735	0.0	PLUS	17	noun	list	1	13	nomatch	plus	-1	1	y	0.67207
157.4679	0.0	+	17	noun	list	1	14	nomatch	plus	-1	1	y	0.67207
157.4071	0.0	[response]	17	noun	list	1	15	nomatch	plus	-1	1	y	0.67207
159.1338	0.0	+	18	noun	phrase	2	1	match	vieux	4	1	p	0.80288
159.68380000000002	0.2	dkhsj	18	noun	phrase	2	2	match	vieux	4	1	p	0.80288
159.9001	0.0	+	18	noun	phrase	2	3	match	vieux	4	1	p	0.80288
160.29989999999998	0.2	gmcl	18	noun	phrase	2	4	match	vieux	4	1	p	0.80288
160.4998	0.0	+	18	noun	phrase	2	5	match	vieux	4	1	p	0.80288
160.90019999999998	0.2	ncb	18	noun	phrase	2	6	match	vieux	4	1	p	0.80288
161.11700000000002	0.0	+	18	noun	phrase	2	7	match	vieux	4	1	p	0.80288
161.49939999999998	0.2	vieux	18	noun	phrase	2	8	match	vieux	4	1	p	0.80288
161.6993	0.0	+	18	noun	phrase	2	9	match	vieux	4	1	p	0.80288
162.09910000000002	0.2	sablier	18	noun	phrase	2	10	match	vieux	4	1	p	0.80288
162.29899999999998	0.0	+	18	noun	phrase	2	11	match	vieux	4	1	p	0.80288
162.69889999999998	0.0	+	18	noun	phrase	2	12	match	vieux	4	1	p	0.80288
164.69799999999998	0.0	VIEUX	18	noun	phrase	2	13	match	vieux	4	1	p	0.80288
165.56420000000003	0.0	+	18	noun	phrase	2	14	match	vieux	4	1	p	0.80288
165.50080000000003	0.0	[response]	18	noun	phrase	2	15	match	vieux	4	1	p	0.80288
167.0969	0.0	+	19	noun	list	3	1	nomatch	petit	-1	1	y	0.68301
167.64659999999998	0.2	hzgkm	19	noun	list	3	2	nomatch	petit	-1	1	y	0.68301
167.8465	0.0	+	19	noun	list	3	3	nomatch	petit	-1	1	y	0.68301
168.24630000000002	0.2	gfws	19	noun	list	3	4	nomatch	petit	-1	1	y	0.68301
168.4463	0.0	+	19	noun	list	3	5	nomatch	petit	-1	1	y	0.68301
168.84609999999998	0.2	doit	19	noun	list	3	6	nomatch	petit	-1	1	y	0.68301
169.0464	0.0	+	19	noun	list	3	7	nomatch	petit	-1	1	y	0.68301
169.44639999999998	0.2	boîtier	19	noun	list	3	8	nomatch	petit	-1	1	y	0.68301
169.6461	0.0	+	19	noun	list	3	9	nomatch	petit	-1	1	y	0.68301
170.0629	0.2	loin	19	noun	list	3	10	nomatch	petit	-1	1	y	0.68301
170.24579999999997	0.0	+	19	noun	list	3	11	nomatch	petit	-1	1	y	0.68301
170.64530000000002	0.0	+	19	noun	list	3	12	nomatch	petit	-1	1	y	0.68301
172.64440000000002	0.0	PETIT	19	noun	list	3	13	nomatch	petit	-1	1	y	0.68301
173.394	0.0	+	19	noun	list	3	14	nomatch	petit	-1	1	y	0.68301
173.3274	0.0	[response]	19	noun	list	3	15	nomatch	petit	-1	1	y	0.68301
175.0433	0.0	+	20	noun	list	1	1	nomatch	paul	-1	1	y	0.70786
175.5931	0.2	ldcfnxw	20	noun	list	1	2	nomatch	paul	-1	1	y	0.70786
175.793	0.0	+	20	noun	list	1	3	nomatch	paul	-1	1	y	0.70786
176.19279999999998	0.2	qskv	20	noun	list	1	4	nomatch	paul	-1	1	y	0.70786
176.3927	0.0	+	20	noun	list	1	5	nomatch	paul	-1	1	y	0.70786
176.80990000000003	0.2	ncb	20	noun	list	1	6	nomatch	paul	-1	1	y	0.70786
176.9932	0.0	+	20	noun	list	1	7	nomatch	paul	-1	1	y	0.70786
177.3929	0.2	zxpdsw	20	noun	list	1	8	nomatch	paul	-1	1	y	0.70786
177.5922	0.0	+	20	noun	list	1	9	nomatch	paul	-1	1	y	0.70786
177.9925	0.2	moins	20	noun	list	1	10	nomatch	paul	-1	1	y	0.70786
178.19189999999998	0.0	+	20	noun	list	1	11	nomatch	paul	-1	1	y	0.70786
178.5917	0.0	+	20	noun	list	1	12	nomatch	paul	-1	1	y	0.70786
180.5915	0.0	PAUL	20	noun	list	1	13	nomatch	paul	-1	1	y	0.70786
181.4239	0.0	+	20	noun	list	1	14	nomatch	paul	-1	1	y	0.70786
181.2994	0.0	[response]	20	noun	list	1	15	nomatch	paul	-1	1	y	0.70786
182.98970000000003	0.0	+	21	noun	phrase	1	1	nomatch	vite	-1	1	y	0.55069
183.53949999999998	0.2	krxwclf	21	noun	phrase	1	2	nomatch	vite	-1	1	y	0.55069
183.7394	0.0	+	21	noun	phrase	1	3	nomatch	vite	-1	1	y	0.55069
184.13920000000002	0.2	gmcl	21	noun	phrase	1	4	nomatch	vite	-1	1	y	0.55069
184.3397	0.0	+	21	noun	phrase	1	5	nomatch	vite	-1	1	y	0.55069
184.73930000000001	0.2	fbd	21	noun	phrase	1	6	nomatch	vite	-1	1	y	0.55069
184.9393	0.0	+	21	noun	phrase	1	7	nomatch	vite	-1	1	y	0.55069
185.33870000000002	0.2	pnwmvrq	21	noun	phrase	1	8	nomatch	vite	-1	1	y	0.55069
185.53859999999997	0.0	+	21	noun	phrase	1	9	nomatch	vite	-1	1	y	0.55069
185.9384	0.2	noir	21	noun	phrase	1	10	nomatch	vite	-1	1	y	0.55069
186.13830000000002	0.0	+	21	noun	phrase	1	11	nomatch	vite	-1	1	y	0.55069
186.5381	0.0	+	21	noun	phrase	1	12	nomatch	vite	-1	1	y	0.55069
188.53719999999998	0.0	VITE	21	noun	phrase	1	13	nomatch	vite	-1	1	y	0.55069
189.15359999999998	0.0	+	21	noun	phrase	1	14	nomatch	vite	-1	1	y	0.55069
189.0879	0.0	[response]	21	noun	phrase	1	15	nomatch	vite	-1	1	y	0.55069
190.9361	0.0	+	22	noun	phrase	3	1	match	nouveau	4	1	p	0.74691
191.48650000000004	0.2	lvjbhdf	22	noun	phrase	3	2	match	nouveau	4	1	p	0.74691
191.68580000000003	0.0	+	22	noun	phrase	3	3	match	nouveau	4	1	p	0.74691
192.10290000000003	0.2	pcms	22	noun	phrase	3	4	match	nouveau	4	1	p	0.74691
192.2855	0.0	+	22	noun	phrase	3	5	match	nouveau	4	1	p	0.74691
192.68540000000002	0.2	leur	22	noun	phrase	3	6	match	nouveau	4	1	p	0.74691
192.88530000000003	0.0	+	22	noun	phrase	3	7	match	nouveau	4	1	p	0.74691
193.2851	0.2	nouveau	22	noun	phrase	3	8	match	nouveau	4	1	p	0.74691
193.485	0.0	+	22	noun	phrase	3	9	match	nouveau	4	1	p	0.74691
193.88480000000004	0.2	sablier	22	noun	phrase	3	10	match	nouveau	4	1	p	0.74691
194.0847	0.0	+	22	noun	phrase	3	11	match	nouveau	4	1	p	0.74691
194.50150000000002	0.0	+	22	noun	phrase	3	12	match	nouveau	4	1	p	0.74691
196.4837	0.0	NOUVEAU	22	noun	phrase	3	13	match	nouveau	4	1	p	0.74691
197.2833	0.0	+	22	noun	phrase	3	14	match	nouveau	4	1	p	0.74691
197.2306000000001	0.0	[response]	22	noun	phrase	3	15	match	nouveau	4	1	p	0.74691
198.8992	0.0	+	23	noun	phrase	4	1	match	cendrier	4	1	p	0.6509000000000001
199.449	0.2	rbj	23	noun	phrase	4	2	match	cendrier	4	1	p	0.6509000000000001
199.64890000000003	0.0	+	23	noun	phrase	4	3	match	cendrier	4	1	p	0.6509000000000001
200.06560000000002	0.2	pour	23	noun	phrase	4	4	match	cendrier	4	1	p	0.6509000000000001
200.2493	0.0	+	23	noun	phrase	4	5	match	cendrier	4	1	p	0.6509000000000001
200.6492	0.2	son	23	noun	phrase	4	6	match	cendrier	4	1	p	0.6509000000000001
200.8487	0.0	+	23	noun	phrase	4	7	match	cendrier	4	1	p	0.6509000000000001
201.24830000000003	0.2	cendrier	23	noun	phrase	4	8	match	cendrier	4	1	p	0.6509000000000001
201.4481	0.0	+	23	noun	phrase	4	9	match	cendrier	4	1	p	0.6509000000000001
201.84790000000004	0.2	rouge	23	noun	phrase	4	10	match	cendrier	4	1	p	0.6509000000000001
202.0478	0.0	+	23	noun	phrase	4	11	match	cendrier	4	1	p	0.6509000000000001
202.44760000000002	0.0	+	23	noun	phrase	4	12	match	cendrier	4	1	p	0.6509000000000001
204.44670000000002	0.0	CENDRIER	23	noun	phrase	4	13	match	cendrier	4	1	p	0.6509000000000001
205.21360000000004	0.0	+	23	noun	phrase	4	14	match	cendrier	4	1	p	0.6509000000000001
205.0976	0.0	[response]	23	noun	phrase	4	15	match	cendrier	4	1	p	0.6509000000000001
206.84570000000002	0.0	+	24	noun	list	2	1	match	casier	4	1	p	0.68291
207.3954	0.2	wmdbs	24	noun	list	2	2	match	casier	4	1	p	0.68291
207.5953	0.0	+	24	noun	list	2	3	match	casier	4	1	p	0.68291
207.99510000000004	0.2	pcms	24	noun	list	2	4	match	casier	4	1	p	0.68291
208.195	0.0	+	24	noun	list	2	5	match	casier	4	1	p	0.68291
208.5949	0.2	ns	24	noun	list	2	6	match	casier	4	1	p	0.68291
208.7948	0.0	+	24	noun	list	2	7	match	casier	4	1	p	0.68291
209.19510000000002	0.2	casier	24	noun	list	2	8	match	casier	4	1	p	0.68291
209.3945	0.0	+	24	noun	list	2	9	match	casier	4	1	p	0.68291
209.79430000000002	0.2	vite	24	noun	list	2	10	match	casier	4	1	p	0.68291
209.9948	0.0	+	24	noun	list	2	11	match	casier	4	1	p	0.68291
210.39480000000003	0.0	+	24	noun	list	2	12	match	casier	4	1	p	0.68291
212.39320000000004	0.0	CASIER	24	noun	list	2	13	match	casier	4	1	p	0.68291
213.14280000000002	0.0	+	24	noun	list	2	14	match	casier	4	1	p	0.68291
213.0761	0.0	[response]	24	noun	list	2	15	match	casier	4	1	p	0.68291
214.7921	0.0	+	25	verb	list	4	1	nomatch	peut	-1	1	y	0.9114
215.34180000000003	0.2	rwgf	25	verb	list	4	2	nomatch	peut	-1	1	y	0.9114
215.54240000000004	0.0	+	25	verb	list	4	3	nomatch	peut	-1	1	y	0.9114
215.942	0.2	sur	25	verb	list	4	4	nomatch	peut	-1	1	y	0.9114
216.1415	0.0	+	25	verb	list	4	5	nomatch	peut	-1	1	y	0.9114
216.54130000000004	0.2	va	25	verb	list	4	6	nomatch	peut	-1	1	y	0.9114
216.7412	0.0	+	25	verb	list	4	7	nomatch	peut	-1	1	y	0.9114
217.14100000000002	0.2	petit	25	verb	list	4	8	nomatch	peut	-1	1	y	0.9114
217.34090000000003	0.0	+	25	verb	list	4	9	nomatch	peut	-1	1	y	0.9114
217.74080000000004	0.2	nager	25	verb	list	4	10	nomatch	peut	-1	1	y	0.9114
217.9407	0.0	+	25	verb	list	4	11	nomatch	peut	-1	1	y	0.9114
218.34120000000001	0.0	+	25	verb	list	4	12	nomatch	peut	-1	1	y	0.9114
220.33960000000002	0.0	PEUT	25	verb	list	4	13	nomatch	peut	-1	1	y	0.9114
221.30580000000003	0.0	+	25	verb	list	4	14	nomatch	peut	-1	1	y	0.9114
221.25100000000003	0.0	[response]	25	verb	list	4	15	nomatch	peut	-1	1	y	0.9114
222.7385	0.0	+	26	noun	phrase	3	1	nomatch	vert	-1	1	y	0.66555
223.28820000000002	0.2	gvdqbt	26	noun	phrase	3	2	nomatch	vert	-1	1	y	0.66555
223.4882	0.0	+	26	noun	phrase	3	3	nomatch	vert	-1	1	y	0.66555
223.88800000000003	0.2	fcvw	26	noun	phrase	3	4	nomatch	vert	-1	1	y	0.66555
224.0879	0.0	+	26	noun	phrase	3	5	nomatch	vert	-1	1	y	0.66555
224.48770000000002	0.2	son	26	noun	phrase	3	6	nomatch	vert	-1	1	y	0.66555
224.688	0.0	+	26	noun	phrase	3	7	nomatch	vert	-1	1	y	0.66555
225.08800000000002	0.2	boîtier	26	noun	phrase	3	8	nomatch	vert	-1	1	y	0.66555
225.2874	0.0	+	26	noun	phrase	3	9	nomatch	vert	-1	1	y	0.66555
225.68720000000002	0.2	bleu	26	noun	phrase	3	10	nomatch	vert	-1	1	y	0.66555
225.88710000000003	0.0	+	26	noun	phrase	3	11	nomatch	vert	-1	1	y	0.66555
226.2869	0.0	+	26	noun	phrase	3	12	nomatch	vert	-1	1	y	0.66555
228.286	0.0	VERT	26	noun	phrase	3	13	nomatch	vert	-1	1	y	0.66555
229.019	0.0	+	26	noun	phrase	3	14	nomatch	vert	-1	1	y	0.66555
228.95160000000004	0.0	[response]	26	noun	phrase	3	15	nomatch	vert	-1	1	y	0.66555
230.68490000000003	0.0	+	27	noun	phrase	1	1	nomatch	noir	-1	1	y	0.75392
231.23470000000003	0.2	sndlk	27	noun	phrase	1	2	nomatch	noir	-1	1	y	0.75392
231.4346	0.0	+	27	noun	phrase	1	3	nomatch	noir	-1	1	y	0.75392
231.83480000000003	0.2	gmcl	27	noun	phrase	1	4	nomatch	noir	-1	1	y	0.75392
232.05130000000003	0.0	+	27	noun	phrase	1	5	nomatch	noir	-1	1	y	0.75392
232.4341	0.2	fzjl	27	noun	phrase	1	6	nomatch	noir	-1	1	y	0.75392
232.6341	0.0	+	27	noun	phrase	1	7	nomatch	noir	-1	1	y	0.75392
233.03390000000002	0.2	rtsdg	27	noun	phrase	1	8	nomatch	noir	-1	1	y	0.75392
233.2341	0.0	+	27	noun	phrase	1	9	nomatch	noir	-1	1	y	0.75392
233.63390000000004	0.2	cendrier	27	noun	phrase	1	10	nomatch	noir	-1	1	y	0.75392
233.85060000000004	0.0	+	27	noun	phrase	1	11	nomatch	noir	-1	1	y	0.75392
234.25	0.0	+	27	noun	phrase	1	12	nomatch	noir	-1	1	y	0.75392
236.2491	0.0	NOIR	27	noun	phrase	1	13	nomatch	noir	-1	1	y	0.75392
237.0654	0.0	+	27	noun	phrase	1	14	nomatch	noir	-1	1	y	0.75392
237.00300000000004	0.0	[response]	27	noun	phrase	1	15	nomatch	noir	-1	1	y	0.75392
238.64800000000002	0.0	+	28	verb	phrase	1	1	match	mieux	5	1	p	0.46437
239.19780000000003	0.2	zgdkf	28	verb	phrase	1	2	match	mieux	5	1	p	0.46437
239.39770000000004	0.0	+	28	verb	phrase	1	3	match	mieux	5	1	p	0.46437
239.7975	0.2	ztfk	28	verb	phrase	1	4	match	mieux	5	1	p	0.46437
239.99740000000003	0.0	+	28	verb	phrase	1	5	match	mieux	5	1	p	0.46437
240.3972	0.2	ns	28	verb	phrase	1	6	match	mieux	5	1	p	0.46437
240.5971	0.0	+	28	verb	phrase	1	7	match	mieux	5	1	p	0.46437
240.9977	0.2	cgzksdn	28	verb	phrase	1	8	match	mieux	5	1	p	0.46437
241.21410000000003	0.0	+	28	verb	phrase	1	9	match	mieux	5	1	p	0.46437
241.59720000000004	0.2	mieux	28	verb	phrase	1	10	match	mieux	5	1	p	0.46437
241.79670000000004	0.0	+	28	verb	phrase	1	11	match	mieux	5	1	p	0.46437
242.19640000000004	0.0	+	28	verb	phrase	1	12	match	mieux	5	1	p	0.46437
244.19550000000004	0.0	MIEUX	28	verb	phrase	1	13	match	mieux	5	1	p	0.46437
244.76260000000002	0.0	+	28	verb	phrase	1	14	match	mieux	5	1	p	0.46437
244.6599	0.0	[response]	28	verb	phrase	1	15	match	mieux	5	1	p	0.46437
246.5944	0.0	+	29	verb	list	3	1	nomatch	doit	-1	1	y	0.83268
247.1442	0.2	njpcb	29	verb	list	3	2	nomatch	doit	-1	1	y	0.83268
247.34410000000003	0.0	+	29	verb	list	3	3	nomatch	doit	-1	1	y	0.83268
247.74450000000002	0.2	fcvw	29	verb	list	3	4	nomatch	doit	-1	1	y	0.83268
247.9445	0.0	+	29	verb	list	3	5	nomatch	doit	-1	1	y	0.83268
248.34430000000003	0.2	va	29	verb	list	3	6	nomatch	doit	-1	1	y	0.83268
248.54430000000002	0.0	+	29	verb	list	3	7	nomatch	doit	-1	1	y	0.83268
248.96050000000002	0.2	beau	29	verb	list	3	8	nomatch	doit	-1	1	y	0.83268
249.1433	0.0	+	29	verb	list	3	9	nomatch	doit	-1	1	y	0.83268
249.54310000000004	0.2	jongler	29	verb	list	3	10	nomatch	doit	-1	1	y	0.83268
249.743	0.0	+	29	verb	list	3	11	nomatch	doit	-1	1	y	0.83268
250.14280000000002	0.0	+	29	verb	list	3	12	nomatch	doit	-1	1	y	0.83268
252.1424	0.0	DOIT	29	verb	list	3	13	nomatch	doit	-1	1	y	0.83268
253.04150000000004	0.0	+	29	verb	list	3	14	nomatch	doit	-1	1	y	0.83268
252.9751	0.0	[response]	29	verb	list	3	15	nomatch	doit	-1	1	y	0.83268
262.5373	0.0	+	30	noun	list	1	1	match	sablier	5	1	p	1.0207
263.087	0.2	nfmj	30	noun	list	1	2	match	sablier	5	1	p	1.0207
263.2869	0.0	+	30	noun	list	1	3	match	sablier	5	1	p	1.0207
263.68670000000003	0.2	xpd	30	noun	list	1	4	match	sablier	5	1	p	1.0207
263.8867	0.0	+	30	noun	list	1	5	match	sablier	5	1	p	1.0207
264.2865	0.2	zhcb	30	noun	list	1	6	match	sablier	5	1	p	1.0207
264.4864	0.0	+	30	noun	list	1	7	match	sablier	5	1	p	1.0207
264.88620000000003	0.2	bznsg	30	noun	list	1	8	match	sablier	5	1	p	1.0207
265.08610000000004	0.0	+	30	noun	list	1	9	match	sablier	5	1	p	1.0207
265.4859	0.2	sablier	30	noun	list	1	10	match	sablier	5	1	p	1.0207
265.68580000000003	0.0	+	30	noun	list	1	11	match	sablier	5	1	p	1.0207
266.08590000000004	0.0	+	30	noun	list	1	12	match	sablier	5	1	p	1.0207
268.08480000000003	0.0	SABLIER	30	noun	list	1	13	match	sablier	5	1	p	1.0207
269.1676	0.0	+	30	noun	list	1	14	match	sablier	5	1	p	1.0207
269.1055	0.0	[response]	30	noun	list	1	15	match	sablier	5	1	p	1.0207
270.4837	0.0	+	31	verb	list	1	1	nomatch	rocher	-1	1	y	0.65
271.05010000000004	0.2	nmq	31	verb	list	1	2	nomatch	rocher	-1	1	y	0.65
271.25	0.0	+	31	verb	list	1	3	nomatch	rocher	-1	1	y	0.65
271.6498	0.2	ztfk	31	verb	list	1	4	nomatch	rocher	-1	1	y	0.65
271.84970000000004	0.0	+	31	verb	list	1	5	nomatch	rocher	-1	1	y	0.65
272.24960000000004	0.2	ncb	31	verb	list	1	6	nomatch	rocher	-1	1	y	0.65
272.4502	0.0	+	31	verb	list	1	7	nomatch	rocher	-1	1	y	0.65
272.8496	0.2	czhwnbm	31	verb	list	1	8	nomatch	rocher	-1	1	y	0.65
273.04920000000004	0.0	+	31	verb	list	1	9	nomatch	rocher	-1	1	y	0.65
273.449	0.2	rouge	31	verb	list	1	10	nomatch	rocher	-1	1	y	0.65
273.6489	0.0	+	31	verb	list	1	11	nomatch	rocher	-1	1	y	0.65
274.0488	0.0	+	31	verb	list	1	12	nomatch	rocher	-1	1	y	0.65
276.0485	0.0	ROCHER	31	verb	list	1	13	nomatch	rocher	-1	1	y	0.65
276.7642	0.0	+	31	verb	list	1	14	nomatch	rocher	-1	1	y	0.65
276.6985	0.0	[response]	31	verb	list	1	15	nomatch	rocher	-1	1	y	0.65
278.4468	0.0	+	32	verb	phrase	3	1	match	parader	5	1	p	0.65962
278.9972	0.2	nwpq	32	verb	phrase	3	2	match	parader	5	1	p	0.65962
279.2137	0.0	+	32	verb	phrase	3	3	match	parader	5	1	p	0.65962
279.5965	0.2	qskv	32	verb	phrase	3	4	match	parader	5	1	p	0.65962
279.8129	0.0	+	32	verb	phrase	3	5	match	parader	5	1	p	0.65962
280.196	0.2	va	32	verb	phrase	3	6	match	parader	5	1	p	0.65962
280.39590000000004	0.0	+	32	verb	phrase	3	7	match	parader	5	1	p	0.65962
280.7957	0.2	moins	32	verb	phrase	3	8	match	parader	5	1	p	0.65962
280.9956	0.0	+	32	verb	phrase	3	9	match	parader	5	1	p	0.65962
281.3955	0.2	parader	32	verb	phrase	3	10	match	parader	5	1	p	0.65962
281.59540000000004	0.0	+	32	verb	phrase	3	11	match	parader	5	1	p	0.65962
281.9952	0.0	+	32	verb	phrase	3	12	match	parader	5	1	p	0.65962
283.9943	0.0	PARADER	32	verb	phrase	3	13	match	parader	5	1	p	0.65962
284.7106	0.0	+	32	verb	phrase	3	14	match	parader	5	1	p	0.65962
284.6539	0.0	[response]	32	verb	phrase	3	15	match	parader	5	1	p	0.65962
286.39320000000004	0.0	+	33	verb	list	1	1	match	jongler	5	1	p	0.6659300000000001
286.94300000000004	0.2	hkl	33	verb	list	1	2	match	jongler	5	1	p	0.6659300000000001
287.1429	0.0	+	33	verb	list	1	3	match	jongler	5	1	p	0.6659300000000001
287.5427	0.2	gfws	33	verb	list	1	4	match	jongler	5	1	p	0.6659300000000001
287.74260000000004	0.0	+	33	verb	list	1	5	match	jongler	5	1	p	0.6659300000000001
288.1424	0.2	zhcb	33	verb	list	1	6	match	jongler	5	1	p	0.6659300000000001
288.3423	0.0	+	33	verb	list	1	7	match	jongler	5	1	p	0.6659300000000001
288.74260000000004	0.2	vdtj	33	verb	list	1	8	match	jongler	5	1	p	0.6659300000000001
288.9423	0.0	+	33	verb	list	1	9	match	jongler	5	1	p	0.6659300000000001
289.3419	0.2	jongler	33	verb	list	1	10	match	jongler	5	1	p	0.6659300000000001
289.5418	0.0	+	33	verb	list	1	11	match	jongler	5	1	p	0.6659300000000001
289.9416	0.0	+	33	verb	list	1	12	match	jongler	5	1	p	0.6659300000000001
291.94100000000003	0.0	JONGLER	33	verb	list	1	13	match	jongler	5	1	p	0.6659300000000001
292.6737	0.0	+	33	verb	list	1	14	match	jongler	5	1	p	0.6659300000000001
292.607	0.0	[response]	33	verb	list	1	15	match	jongler	5	1	p	0.6659300000000001
294.3396	0.0	+	34	noun	phrase	1	1	match	rocher	5	1	p	0.483
294.8894	0.2	plrwkn	34	noun	phrase	1	2	match	rocher	5	1	p	0.483
295.08930000000004	0.0	+	34	noun	phrase	1	3	match	rocher	5	1	p	0.483
295.4891	0.2	pcms	34	noun	phrase	1	4	match	rocher	5	1	p	0.483
295.6892	0.0	+	34	noun	phrase	1	5	match	rocher	5	1	p	0.483
296.08950000000004	0.2	fbd	34	noun	phrase	1	6	match	rocher	5	1	p	0.483
296.2887	0.0	+	34	noun	phrase	1	7	match	rocher	5	1	p	0.483
296.6886	0.2	whdml	34	noun	phrase	1	8	match	rocher	5	1	p	0.483
296.8885	0.0	+	34	noun	phrase	1	9	match	rocher	5	1	p	0.483
297.2883	0.2	rocher	34	noun	phrase	1	10	match	rocher	5	1	p	0.483
297.4882	0.0	+	34	noun	phrase	1	11	match	rocher	5	1	p	0.483
297.88800000000003	0.0	+	34	noun	phrase	1	12	match	rocher	5	1	p	0.483
299.88710000000003	0.0	ROCHER	34	noun	phrase	1	13	match	rocher	5	1	p	0.483
300.43690000000004	0.0	+	34	noun	phrase	1	14	match	rocher	5	1	p	0.483
300.3701000000001	0.0	[response]	34	noun	phrase	1	15	match	rocher	5	1	p	0.483
302.28610000000003	0.0	+	35	verb	list	3	1	nomatch	doit	-1	1	y	0.69663
302.8358	0.2	kbpc	35	verb	list	3	2	nomatch	doit	-1	1	y	0.69663
303.0357	0.0	+	35	verb	list	3	3	nomatch	doit	-1	1	y	0.69663
303.4355	0.2	fcvw	35	verb	list	3	4	nomatch	doit	-1	1	y	0.69663
303.6354	0.0	+	35	verb	list	3	5	nomatch	doit	-1	1	y	0.69663
304.0356	0.2	peut	35	verb	list	3	6	nomatch	doit	-1	1	y	0.69663
304.25210000000004	0.0	+	35	verb	list	3	7	nomatch	doit	-1	1	y	0.69663
304.6356	0.2	grand	35	verb	list	3	8	nomatch	doit	-1	1	y	0.69663
304.8355	0.0	+	35	verb	list	3	9	nomatch	doit	-1	1	y	0.69663
305.23470000000003	0.2	danser	35	verb	list	3	10	nomatch	doit	-1	1	y	0.69663
305.4346	0.0	+	35	verb	list	3	11	nomatch	doit	-1	1	y	0.69663
305.8345	0.0	+	35	verb	list	3	12	nomatch	doit	-1	1	y	0.69663
307.8337	0.0	DOIT	35	verb	list	3	13	nomatch	doit	-1	1	y	0.69663
308.58320000000003	0.0	+	35	verb	list	3	14	nomatch	doit	-1	1	y	0.69663
308.5303	0.0	[response]	35	verb	list	3	15	nomatch	doit	-1	1	y	0.69663
310.2491	0.0	+	36	noun	phrase	3	1	nomatch	rouler	-1	1	y	0.76049
310.7989	0.2	hklqjc	36	noun	phrase	3	2	nomatch	rouler	-1	1	y	0.76049
310.9988	0.0	+	36	noun	phrase	3	3	nomatch	rouler	-1	1	y	0.76049
311.39860000000004	0.2	gfws	36	noun	phrase	3	4	nomatch	rouler	-1	1	y	0.76049
311.5985	0.0	+	36	noun	phrase	3	5	nomatch	rouler	-1	1	y	0.76049
311.9989	0.2	son	36	noun	phrase	3	6	nomatch	rouler	-1	1	y	0.76049
312.1988	0.0	+	36	noun	phrase	3	7	nomatch	rouler	-1	1	y	0.76049
312.5984	0.2	rocher	36	noun	phrase	3	8	nomatch	rouler	-1	1	y	0.76049
312.7987	0.0	+	36	noun	phrase	3	9	nomatch	rouler	-1	1	y	0.76049
313.19780000000003	0.2	rouge	36	noun	phrase	3	10	nomatch	rouler	-1	1	y	0.76049
313.39770000000004	0.0	+	36	noun	phrase	3	11	nomatch	rouler	-1	1	y	0.76049
313.7975	0.0	+	36	noun	phrase	3	12	nomatch	rouler	-1	1	y	0.76049
315.79670000000004	0.0	ROULER	36	noun	phrase	3	13	nomatch	rouler	-1	1	y	0.76049
316.6796	0.0	+	36	noun	phrase	3	14	nomatch	rouler	-1	1	y	0.76049
316.5572	0.0	[response]	36	noun	phrase	3	15	nomatch	rouler	-1	1	y	0.76049
326.24240000000003	0.0	+	37	noun	phrase	2	1	match	casier	5	1	p	0.68944
326.74170000000004	0.2	cnhzq	37	noun	phrase	2	2	match	casier	5	1	p	0.68944
326.9416	0.0	+	37	noun	phrase	2	3	match	casier	5	1	p	0.68944
327.3414	0.2	gmcl	37	noun	phrase	2	4	match	casier	5	1	p	0.68944
327.54130000000004	0.0	+	37	noun	phrase	2	5	match	casier	5	1	p	0.68944
327.94120000000004	0.2	fbd	37	noun	phrase	2	6	match	casier	5	1	p	0.68944
328.1411	0.0	+	37	noun	phrase	2	7	match	casier	5	1	p	0.68944
328.5409	0.2	petit	37	noun	phrase	2	8	match	casier	5	1	p	0.68944
328.74080000000004	0.0	+	37	noun	phrase	2	9	match	casier	5	1	p	0.68944
329.1406	0.2	casier	37	noun	phrase	2	10	match	casier	5	1	p	0.68944
329.3405	0.0	+	37	noun	phrase	2	11	match	casier	5	1	p	0.68944
329.7404	0.0	+	37	noun	phrase	2	12	match	casier	5	1	p	0.68944
331.7395	0.0	CASIER	37	noun	phrase	2	13	match	casier	5	1	p	0.68944
332.4891	0.0	+	37	noun	phrase	2	14	match	casier	5	1	p	0.68944
332.4289	0.0	[response]	37	noun	phrase	2	15	match	casier	5	1	p	0.68944
334.1384	0.0	+	38	noun	phrase	2	1	nomatch	danser	-1	1	y	0.59932
334.6881	0.2	xhpkgtw	38	noun	phrase	2	2	nomatch	danser	-1	1	y	0.59932
334.8881	0.0	+	38	noun	phrase	2	3	nomatch	danser	-1	1	y	0.59932
335.28790000000004	0.2	fcvw	38	noun	phrase	2	4	nomatch	danser	-1	1	y	0.59932
335.4878	0.0	+	38	noun	phrase	2	5	nomatch	danser	-1	1	y	0.59932
335.8876	0.2	ncb	38	noun	phrase	2	6	nomatch	danser	-1	1	y	0.59932
336.08750000000003	0.0	+	38	noun	phrase	2	7	nomatch	danser	-1	1	y	0.59932
336.5043	0.2	sablier	38	noun	phrase	2	8	nomatch	danser	-1	1	y	0.59932
336.6873	0.0	+	38	noun	phrase	2	9	nomatch	danser	-1	1	y	0.59932
337.0871	0.2	bleu	38	noun	phrase	2	10	nomatch	danser	-1	1	y	0.59932
337.28700000000003	0.0	+	38	noun	phrase	2	11	nomatch	danser	-1	1	y	0.59932
337.6868	0.0	+	38	noun	phrase	2	12	nomatch	danser	-1	1	y	0.59932
339.70320000000004	0.0	DANSER	38	noun	phrase	2	13	nomatch	danser	-1	1	y	0.59932
340.4527	0.0	+	38	noun	phrase	2	14	nomatch	danser	-1	1	y	0.59932
340.3026000000001	0.0	[response]	38	noun	phrase	2	15	nomatch	danser	-1	1	y	0.59932
342.08480000000003	0.0	+	39	noun	list	1	1	match	casier	5	1	p	0.62887
342.63460000000003	0.2	lbcvd	39	noun	list	1	2	match	casier	5	1	p	0.62887
342.8345	0.0	+	39	noun	list	1	3	match	casier	5	1	p	0.62887
343.2343	0.2	gfws	39	noun	list	1	4	match	casier	5	1	p	0.62887
343.43420000000003	0.0	+	39	noun	list	1	5	match	casier	5	1	p	0.62887
343.834	0.2	zhcb	39	noun	list	1	6	match	casier	5	1	p	0.62887
344.0339	0.0	+	39	noun	list	1	7	match	casier	5	1	p	0.62887
344.43440000000004	0.2	pnk	39	noun	list	1	8	match	casier	5	1	p	0.62887
344.6342	0.0	+	39	noun	list	1	9	match	casier	5	1	p	0.62887
345.0509	0.2	casier	39	noun	list	1	10	match	casier	5	1	p	0.62887
345.2502	0.0	+	39	noun	list	1	11	match	casier	5	1	p	0.62887
345.6499	0.0	+	39	noun	list	1	12	match	casier	5	1	p	0.62887
347.649	0.0	CASIER	39	noun	list	1	13	match	casier	5	1	p	0.62887
348.332	0.0	+	39	noun	list	1	14	match	casier	5	1	p	0.62887
348.2778	0.0	[response]	39	noun	list	1	15	match	casier	5	1	p	0.62887
358.0443	0.0	+	40	verb	phrase	1	1	nomatch	parader	-1	1	y	0.63157
358.6109	0.2	jwvnlfr	40	verb	phrase	1	2	nomatch	parader	-1	1	y	0.63157
358.79470000000003	0.0	+	40	verb	phrase	1	3	nomatch	parader	-1	1	y	0.63157
359.1942	0.2	qskv	40	verb	phrase	1	4	nomatch	parader	-1	1	y	0.63157
359.3944	0.0	+	40	verb	phrase	1	5	nomatch	parader	-1	1	y	0.63157
359.7935	0.2	ns	40	verb	phrase	1	6	nomatch	parader	-1	1	y	0.63157
359.9934	0.0	+	40	verb	phrase	1	7	nomatch	parader	-1	1	y	0.63157
360.39320000000004	0.2	nqsb	40	verb	phrase	1	8	nomatch	parader	-1	1	y	0.63157
360.5931	0.0	+	40	verb	phrase	1	9	nomatch	parader	-1	1	y	0.63157
360.993	0.2	voyager	40	verb	phrase	1	10	nomatch	parader	-1	1	y	0.63157
361.1929	0.0	+	40	verb	phrase	1	11	nomatch	parader	-1	1	y	0.63157
361.59270000000004	0.0	+	40	verb	phrase	1	12	nomatch	parader	-1	1	y	0.63157
363.59200000000004	0.0	PARADER	40	verb	phrase	1	13	nomatch	parader	-1	1	y	0.63157
364.3921	0.0	+	40	verb	phrase	1	14	nomatch	parader	-1	1	y	0.63157
364.22360000000003	0.0	[response]	40	verb	phrase	1	15	nomatch	parader	-1	1	y	0.63157
382.0002	0.0	+	41	noun	list	2	1	match	sablier	4	1	p	0.86842
382.54990000000004	0.2	bzsqldm	41	noun	list	2	2	match	sablier	4	1	p	0.86842
382.7498	0.0	+	41	noun	list	2	3	match	sablier	4	1	p	0.86842
383.1497	0.2	lwsf	41	noun	list	2	4	match	sablier	4	1	p	0.86842
383.3496	0.0	+	41	noun	list	2	5	match	sablier	4	1	p	0.86842
383.74940000000004	0.2	zhcb	41	noun	list	2	6	match	sablier	4	1	p	0.86842
383.9493	0.0	+	41	noun	list	2	7	match	sablier	4	1	p	0.86842
384.3491	0.2	sablier	41	noun	list	2	8	match	sablier	4	1	p	0.86842
384.54900000000004	0.0	+	41	noun	list	2	9	match	sablier	4	1	p	0.86842
384.9495	0.2	loin	41	noun	list	2	10	match	sablier	4	1	p	0.86842
385.166	0.0	+	41	noun	list	2	11	match	sablier	4	1	p	0.86842
385.56550000000004	0.0	+	41	noun	list	2	12	match	sablier	4	1	p	0.86842
387.5477	0.0	SABLIER	41	noun	list	2	13	match	sablier	4	1	p	0.86842
388.48060000000004	0.0	+	41	noun	list	2	14	match	sablier	4	1	p	0.86842
388.41610000000003	0.0	[response]	41	noun	list	2	15	match	sablier	4	1	p	0.86842
389.9466	0.0	+	42	verb	phrase	2	1	nomatch	vite	-1	1	y	0.5376000000000001
390.4963	0.2	hxfgwn	42	verb	phrase	2	2	nomatch	vite	-1	1	y	0.5376000000000001
390.6963	0.0	+	42	verb	phrase	2	3	nomatch	vite	-1	1	y	0.5376000000000001
391.09610000000004	0.2	ztfk	42	verb	phrase	2	4	nomatch	vite	-1	1	y	0.5376000000000001
391.296	0.0	+	42	verb	phrase	2	5	nomatch	vite	-1	1	y	0.5376000000000001
391.6958	0.2	ns	42	verb	phrase	2	6	nomatch	vite	-1	1	y	0.5376000000000001
391.89570000000003	0.0	+	42	verb	phrase	2	7	nomatch	vite	-1	1	y	0.5376000000000001
392.2955	0.2	nager	42	verb	phrase	2	8	nomatch	vite	-1	1	y	0.5376000000000001
392.4955	0.0	+	42	verb	phrase	2	9	nomatch	vite	-1	1	y	0.5376000000000001
392.89570000000003	0.2	ainsi	42	verb	phrase	2	10	nomatch	vite	-1	1	y	0.5376000000000001
393.0958	0.0	+	42	verb	phrase	2	11	nomatch	vite	-1	1	y	0.5376000000000001
393.495	0.0	+	42	verb	phrase	2	12	nomatch	vite	-1	1	y	0.5376000000000001
395.4941	0.0	VITE	42	verb	phrase	2	13	nomatch	vite	-1	1	y	0.5376000000000001
396.09380000000004	0.0	+	42	verb	phrase	2	14	nomatch	vite	-1	1	y	0.5376000000000001
396.0317	0.0	[response]	42	verb	phrase	2	15	nomatch	vite	-1	1	y	0.5376000000000001
397.89300000000003	0.0	+	43	noun	list	1	1	match	loin	5	1	p	0.53997
398.44280000000003	0.2	ztq	43	noun	list	1	2	match	loin	5	1	p	0.53997
398.6427	0.0	+	43	noun	list	1	3	match	loin	5	1	p	0.53997
399.0432	0.2	tdmv	43	noun	list	1	4	match	loin	5	1	p	0.53997
399.243	0.0	+	43	noun	list	1	5	match	loin	5	1	p	0.53997
399.6424	0.2	zhcb	43	noun	list	1	6	match	loin	5	1	p	0.53997
399.8422	0.0	+	43	noun	list	1	7	match	loin	5	1	p	0.53997
400.2592	0.2	ndvsxp	43	noun	list	1	8	match	loin	5	1	p	0.53997
400.44190000000003	0.0	+	43	noun	list	1	9	match	loin	5	1	p	0.53997
400.8417	0.2	loin	43	noun	list	1	10	match	loin	5	1	p	0.53997
401.0416	0.0	+	43	noun	list	1	11	match	loin	5	1	p	0.53997
401.44140000000004	0.0	+	43	noun	list	1	12	match	loin	5	1	p	0.53997
403.44050000000004	0.0	LOIN	43	noun	list	1	13	match	loin	5	1	p	0.53997
404.12420000000003	0.0	+	43	noun	list	1	14	match	loin	5	1	p	0.53997
403.98050000000006	0.0	[response]	43	noun	list	1	15	match	loin	5	1	p	0.53997
405.83950000000004	0.0	+	44	verb	list	1	1	match	parader	5	1	p	0.49691
406.3892	0.2	gzhf	44	verb	list	1	2	match	parader	5	1	p	0.49691
406.58910000000003	0.0	+	44	verb	list	1	3	match	parader	5	1	p	0.49691
406.9889	0.2	gmcl	44	verb	list	1	4	match	parader	5	1	p	0.49691
407.1889	0.0	+	44	verb	list	1	5	match	parader	5	1	p	0.49691
407.5887	0.2	ns	44	verb	list	1	6	match	parader	5	1	p	0.49691
407.78860000000003	0.0	+	44	verb	list	1	7	match	parader	5	1	p	0.49691
408.1889	0.2	vdtj	44	verb	list	1	8	match	parader	5	1	p	0.49691
408.38890000000004	0.0	+	44	verb	list	1	9	match	parader	5	1	p	0.49691
408.8053	0.2	parader	44	verb	list	1	10	match	parader	5	1	p	0.49691
408.98830000000004	0.0	+	44	verb	list	1	11	match	parader	5	1	p	0.49691
409.3886	0.0	+	44	verb	list	1	12	match	parader	5	1	p	0.49691
411.387	0.0	PARADER	44	verb	list	1	13	match	parader	5	1	p	0.49691
411.93670000000003	0.0	+	44	verb	list	1	14	match	parader	5	1	p	0.49691
411.88390000000004	0.0	[response]	44	verb	list	1	15	match	parader	5	1	p	0.49691
421.83250000000004	0.0	+	45	noun	phrase	1	1	nomatch	grand	-1	1	y	0.79476
422.3487	0.2	fjhv	45	noun	phrase	1	2	nomatch	grand	-1	1	y	0.79476
422.5486	0.0	+	45	noun	phrase	1	3	nomatch	grand	-1	1	y	0.79476
422.9484	0.2	xpd	45	noun	phrase	1	4	nomatch	grand	-1	1	y	0.79476
423.1483	0.0	+	45	noun	phrase	1	5	nomatch	grand	-1	1	y	0.79476
423.54810000000003	0.2	fzjl	45	noun	phrase	1	6	nomatch	grand	-1	1	y	0.79476
423.7481	0.0	+	45	noun	phrase	1	7	nomatch	grand	-1	1	y	0.79476
424.1479	0.2	lrwcdknm	45	noun	phrase	1	8	nomatch	grand	-1	1	y	0.79476
424.3484	0.0	+	45	noun	phrase	1	9	nomatch	grand	-1	1	y	0.79476
424.74830000000003	0.2	nouveau	45	noun	phrase	1	10	nomatch	grand	-1	1	y	0.79476
424.9648	0.0	+	45	noun	phrase	1	11	nomatch	grand	-1	1	y	0.79476
425.34770000000003	0.0	+	45	noun	phrase	1	12	nomatch	grand	-1	1	y	0.79476
427.3464	0.0	GRAND	45	noun	phrase	1	13	nomatch	grand	-1	1	y	0.79476
428.27950000000004	0.0	+	45	noun	phrase	1	14	nomatch	grand	-1	1	y	0.79476
428.1412	0.0	[response]	45	noun	phrase	1	15	nomatch	grand	-1	1	y	0.79476
429.7454	0.0	+	46	verb	phrase	1	1	match	tôt	5	1	p	0.60171
430.2951	0.2	njclthb	46	verb	phrase	1	2	match	tôt	5	1	p	0.60171
430.495	0.0	+	46	verb	phrase	1	3	match	tôt	5	1	p	0.60171
430.89480000000003	0.2	ztfk	46	verb	phrase	1	4	match	tôt	5	1	p	0.60171
431.0948	0.0	+	46	verb	phrase	1	5	match	tôt	5	1	p	0.60171
431.4946	0.2	zhcb	46	verb	phrase	1	6	match	tôt	5	1	p	0.60171
431.6945	0.0	+	46	verb	phrase	1	7	match	tôt	5	1	p	0.60171
432.1112	0.2	czhwnbm	46	verb	phrase	1	8	match	tôt	5	1	p	0.60171
432.2942	0.0	+	46	verb	phrase	1	9	match	tôt	5	1	p	0.60171
432.6945	0.2	tôt	46	verb	phrase	1	10	match	tôt	5	1	p	0.60171
432.8946	0.0	+	46	verb	phrase	1	11	match	tôt	5	1	p	0.60171
433.29400000000004	0.0	+	46	verb	phrase	1	12	match	tôt	5	1	p	0.60171
435.2936	0.0	TÔT	46	verb	phrase	1	13	match	tôt	5	1	p	0.60171
435.9592	0.0	+	46	verb	phrase	1	14	match	tôt	5	1	p	0.60171
435.8953	0.0	[response]	46	verb	phrase	1	15	match	tôt	5	1	p	0.60171
437.6918	0.0	+	47	verb	phrase	4	1	nomatch	mon	-1	1	y	0.66785
438.24150000000003	0.2	lxg	47	verb	phrase	4	2	nomatch	mon	-1	1	y	0.66785
438.4415	0.0	+	47	verb	phrase	4	3	nomatch	mon	-1	1	y	0.66785
438.8413	0.2	jean	47	verb	phrase	4	4	nomatch	mon	-1	1	y	0.66785
439.0418	0.0	+	47	verb	phrase	4	5	nomatch	mon	-1	1	y	0.66785
439.44100000000003	0.2	va	47	verb	phrase	4	6	nomatch	mon	-1	1	y	0.66785
439.6413	0.0	+	47	verb	phrase	4	7	nomatch	mon	-1	1	y	0.66785
440.04130000000004	0.2	mieux	47	verb	phrase	4	8	nomatch	mon	-1	1	y	0.66785
440.25780000000003	0.0	+	47	verb	phrase	4	9	nomatch	mon	-1	1	y	0.66785
440.64050000000003	0.2	patiner	47	verb	phrase	4	10	nomatch	mon	-1	1	y	0.66785
440.8404	0.0	+	47	verb	phrase	4	11	nomatch	mon	-1	1	y	0.66785
441.2402	0.0	+	47	verb	phrase	4	12	nomatch	mon	-1	1	y	0.66785
443.2393	0.0	MON	47	verb	phrase	4	13	nomatch	mon	-1	1	y	0.66785
443.9896	0.0	+	47	verb	phrase	4	14	nomatch	mon	-1	1	y	0.66785
443.9071	0.0	[response]	47	verb	phrase	4	15	nomatch	mon	-1	1	y	0.66785
453.63460000000003	0.0	+	48	noun	list	4	1	match	doit	3	1	p	0.9794000000000002
454.1846	0.2	gztkwb	48	noun	list	4	2	match	doit	3	1	p	0.9794000000000002
454.38450000000006	0.0	+	48	noun	list	4	3	match	doit	3	1	p	0.9794000000000002
454.78440000000006	0.2	sans	48	noun	list	4	4	match	doit	3	1	p	0.9794000000000002
455.00079999999997	0.0	+	48	noun	list	4	5	match	doit	3	1	p	0.9794000000000002
455.3838	0.2	doit	48	noun	list	4	6	match	doit	3	1	p	0.9794000000000002
455.58369999999996	0.0	+	48	noun	list	4	7	match	doit	3	1	p	0.9794000000000002
455.98370000000006	0.2	tablier	48	noun	list	4	8	match	doit	3	1	p	0.9794000000000002
456.20009999999996	0.0	+	48	noun	list	4	9	match	doit	3	1	p	0.9794000000000002
456.5999	0.2	tard	48	noun	list	4	10	match	doit	3	1	p	0.9794000000000002
456.79990000000004	0.0	+	48	noun	list	4	11	match	doit	3	1	p	0.9794000000000002
457.19970000000006	0.0	+	48	noun	list	4	12	match	doit	3	1	p	0.9794000000000002
459.19880000000006	0.0	DOIT	48	noun	list	4	13	match	doit	3	1	p	0.9794000000000002
460.2317	0.0	+	48	noun	list	4	14	match	doit	3	1	p	0.9794000000000002
460.1782	0.0	[response]	48	noun	list	4	15	match	doit	3	1	p	0.9794000000000002
461.5977	0.0	+	49	verb	phrase	2	1	nomatch	parader	-1	1	y	0.66008
462.1475	0.2	jpchfkm	49	verb	phrase	2	2	nomatch	parader	-1	1	y	0.66008
462.34740000000005	0.0	+	49	verb	phrase	2	3	nomatch	parader	-1	1	y	0.66008
462.74719999999996	0.2	qskv	49	verb	phrase	2	4	nomatch	parader	-1	1	y	0.66008
462.94710000000003	0.0	+	49	verb	phrase	2	5	nomatch	parader	-1	1	y	0.66008
463.3475	0.2	zhcb	49	verb	phrase	2	6	nomatch	parader	-1	1	y	0.66008
463.54720000000003	0.0	+	49	verb	phrase	2	7	nomatch	parader	-1	1	y	0.66008
463.94700000000006	0.2	patiner	49	verb	phrase	2	8	nomatch	parader	-1	1	y	0.66008
464.1637	0.0	+	49	verb	phrase	2	9	nomatch	parader	-1	1	y	0.66008
464.5464	0.2	loin	49	verb	phrase	2	10	nomatch	parader	-1	1	y	0.66008
464.74629999999996	0.0	+	49	verb	phrase	2	11	nomatch	parader	-1	1	y	0.66008
465.1461	0.0	+	49	verb	phrase	2	12	nomatch	parader	-1	1	y	0.66008
467.1452	0.0	PARADER	49	verb	phrase	2	13	nomatch	parader	-1	1	y	0.66008
467.9286	0.0	+	49	verb	phrase	2	14	nomatch	parader	-1	1	y	0.66008
467.80530000000005	0.0	[response]	49	verb	phrase	2	15	nomatch	parader	-1	1	y	0.66008
469.5441	0.0	+	50	verb	phrase	1	1	nomatch	chasser	-1	1	y	0.49053
470.0939	0.2	btmnfjk	50	verb	phrase	1	2	nomatch	chasser	-1	1	y	0.49053
470.2938	0.0	+	50	verb	phrase	1	3	nomatch	chasser	-1	1	y	0.49053
470.6936	0.2	bgmp	50	verb	phrase	1	4	nomatch	chasser	-1	1	y	0.49053
470.89349999999996	0.0	+	50	verb	phrase	1	5	nomatch	chasser	-1	1	y	0.49053
471.2933	0.2	bmjh	50	verb	phrase	1	6	nomatch	chasser	-1	1	y	0.49053
471.49330000000003	0.0	+	50	verb	phrase	1	7	nomatch	chasser	-1	1	y	0.49053
471.89310000000006	0.2	ghpj	50	verb	phrase	1	8	nomatch	chasser	-1	1	y	0.49053
472.1102	0.0	+	50	verb	phrase	1	9	nomatch	chasser	-1	1	y	0.49053
472.49320000000006	0.2	nager	50	verb	phrase	1	10	nomatch	chasser	-1	1	y	0.49053
472.69340000000005	0.0	+	50	verb	phrase	1	11	nomatch	chasser	-1	1	y	0.49053
473.10970000000003	0.0	+	50	verb	phrase	1	12	nomatch	chasser	-1	1	y	0.49053
475.0916	0.0	CHASSER	50	verb	phrase	1	13	nomatch	chasser	-1	1	y	0.49053
475.64140000000003	0.0	+	50	verb	phrase	1	14	nomatch	chasser	-1	1	y	0.49053
475.5822	0.0	[response]	50	verb	phrase	1	15	nomatch	chasser	-1	1	y	0.49053
493.50000000000006	0.0	+	51	verb	list	3	1	nomatch	nouveau	-1	1	y	0.75817
494.04980000000006	0.2	pmgj	51	verb	list	3	2	nomatch	nouveau	-1	1	y	0.75817
494.2497	0.0	+	51	verb	list	3	3	nomatch	nouveau	-1	1	y	0.75817
494.64950000000005	0.2	wcxg	51	verb	list	3	4	nomatch	nouveau	-1	1	y	0.75817
494.8494	0.0	+	51	verb	list	3	5	nomatch	nouveau	-1	1	y	0.75817
495.24920000000003	0.2	mon	51	verb	list	3	6	nomatch	nouveau	-1	1	y	0.75817
495.4491	0.0	+	51	verb	list	3	7	nomatch	nouveau	-1	1	y	0.75817
495.849	0.2	rouler	51	verb	list	3	8	nomatch	nouveau	-1	1	y	0.75817
496.04890000000006	0.0	+	51	verb	list	3	9	nomatch	nouveau	-1	1	y	0.75817
496.4491	0.2	blanc	51	verb	list	3	10	nomatch	nouveau	-1	1	y	0.75817
496.64900000000006	0.0	+	51	verb	list	3	11	nomatch	nouveau	-1	1	y	0.75817
497.0486	0.0	+	51	verb	list	3	12	nomatch	nouveau	-1	1	y	0.75817
499.04760000000005	0.0	NOUVEAU	51	verb	list	3	13	nomatch	nouveau	-1	1	y	0.75817
499.8638	0.0	+	51	verb	list	3	14	nomatch	nouveau	-1	1	y	0.75817
499.80580000000003	0.0	[response]	51	verb	list	3	15	nomatch	nouveau	-1	1	y	0.75817
501.44650000000007	0.0	+	52	verb	phrase	4	1	match	jade	2	1	p	0.50797
501.9962	0.2	fdlp	52	verb	phrase	4	2	match	jade	2	1	p	0.50797
502.19610000000006	0.0	+	52	verb	phrase	4	3	match	jade	2	1	p	0.50797
502.5959	0.2	jade	52	verb	phrase	4	4	match	jade	2	1	p	0.50797
502.79580000000004	0.0	+	52	verb	phrase	4	5	match	jade	2	1	p	0.50797
503.19620000000003	0.2	doit	52	verb	phrase	4	6	match	jade	2	1	p	0.50797
503.39590000000004	0.0	+	52	verb	phrase	4	7	match	jade	2	1	p	0.50797
503.7959	0.2	chasser	52	verb	phrase	4	8	match	jade	2	1	p	0.50797
504.01259999999996	0.0	+	52	verb	phrase	4	9	match	jade	2	1	p	0.50797
504.3951	0.2	tard	52	verb	phrase	4	10	match	jade	2	1	p	0.50797
504.59499999999997	0.0	+	52	verb	phrase	4	11	match	jade	2	1	p	0.50797
504.9949	0.0	+	52	verb	phrase	4	12	match	jade	2	1	p	0.50797
506.9939	0.0	JADE	52	verb	phrase	4	13	match	jade	2	1	p	0.50797
507.5604	0.0	+	52	verb	phrase	4	14	match	jade	2	1	p	0.50797
507.50190000000003	0.0	[response]	52	verb	phrase	4	15	match	jade	2	1	p	0.50797
509.3929	0.0	+	53	noun	list	4	1	nomatch	rouge	-1	1	y	0.88763
509.9426	0.2	gtpnqx	53	noun	list	4	2	nomatch	rouge	-1	1	y	0.88763
510.1425	0.0	+	53	noun	list	4	3	nomatch	rouge	-1	1	y	0.88763
510.5423	0.2	luc	53	noun	list	4	4	nomatch	rouge	-1	1	y	0.88763
510.7426	0.0	+	53	noun	list	4	5	nomatch	rouge	-1	1	y	0.88763
511.14220000000006	0.2	mon	53	noun	list	4	6	nomatch	rouge	-1	1	y	0.88763
511.34200000000004	0.0	+	53	noun	list	4	7	nomatch	rouge	-1	1	y	0.88763
511.74230000000006	0.2	mieux	53	noun	list	4	8	nomatch	rouge	-1	1	y	0.88763
511.95869999999996	0.0	+	53	noun	list	4	9	nomatch	rouge	-1	1	y	0.88763
512.3415	0.2	boîtier	53	noun	list	4	10	nomatch	rouge	-1	1	y	0.88763
512.5414999999999	0.0	+	53	noun	list	4	11	nomatch	rouge	-1	1	y	0.88763
512.9413	0.0	+	53	noun	list	4	12	nomatch	rouge	-1	1	y	0.88763
514.9405999999999	0.0	ROUGE	53	noun	list	4	13	nomatch	rouge	-1	1	y	0.88763
515.8899	0.0	+	53	noun	list	4	14	nomatch	rouge	-1	1	y	0.88763
515.8281999999999	0.0	[response]	53	noun	list	4	15	nomatch	rouge	-1	1	y	0.88763
525.3696	0.0	+	54	verb	list	2	1	nomatch	grenier	-1	1	y	0.56267
525.8860999999999	0.2	bwlvkn	54	verb	list	2	2	nomatch	grenier	-1	1	y	0.56267
526.0858	0.0	+	54	verb	list	2	3	nomatch	grenier	-1	1	y	0.56267
526.4852	0.2	wxqn	54	verb	list	2	4	nomatch	grenier	-1	1	y	0.56267
526.6850999999999	0.0	+	54	verb	list	2	5	nomatch	grenier	-1	1	y	0.56267
527.0849	0.2	fbd	54	verb	list	2	6	nomatch	grenier	-1	1	y	0.56267
527.2847999999999	0.0	+	54	verb	list	2	7	nomatch	grenier	-1	1	y	0.56267
527.6845999999999	0.2	parader	54	verb	list	2	8	nomatch	grenier	-1	1	y	0.56267
527.8845	0.0	+	54	verb	list	2	9	nomatch	grenier	-1	1	y	0.56267
528.3013	0.2	vert	54	verb	list	2	10	nomatch	grenier	-1	1	y	0.56267
528.5011	0.0	+	54	verb	list	2	11	nomatch	grenier	-1	1	y	0.56267
528.8846	0.0	+	54	verb	list	2	12	nomatch	grenier	-1	1	y	0.56267
530.8999	0.0	GRENIER	54	verb	list	2	13	nomatch	grenier	-1	1	y	0.56267
531.6501	0.0	+	54	verb	list	2	14	nomatch	grenier	-1	1	y	0.56267
531.4625000000001	0.0	[response]	54	verb	list	2	15	nomatch	grenier	-1	1	y	0.56267
533.2987999999999	0.0	+	55	noun	phrase	1	1	match	grand	5	1	p	0.9565
533.8485	0.2	pbvwtf	55	noun	phrase	1	2	match	grand	5	1	p	0.9565
534.0484	0.0	+	55	noun	phrase	1	3	match	grand	5	1	p	0.9565
534.4482999999999	0.2	xpd	55	noun	phrase	1	4	match	grand	5	1	p	0.9565
534.6482	0.0	+	55	noun	phrase	1	5	match	grand	5	1	p	0.9565
535.048	0.2	fzjl	55	noun	phrase	1	6	match	grand	5	1	p	0.9565
535.2479	0.0	+	55	noun	phrase	1	7	match	grand	5	1	p	0.9565
535.6477	0.2	ndvsxp	55	noun	phrase	1	8	match	grand	5	1	p	0.9565
535.8475999999999	0.0	+	55	noun	phrase	1	9	match	grand	5	1	p	0.9565
536.2482	0.2	grand	55	noun	phrase	1	10	match	grand	5	1	p	0.9565
536.4647	0.0	+	55	noun	phrase	1	11	match	grand	5	1	p	0.9565
536.8471999999999	0.0	+	55	noun	phrase	1	12	match	grand	5	1	p	0.9565
538.847	0.0	GRAND	55	noun	phrase	1	13	match	grand	5	1	p	0.9565
539.8625	0.0	+	55	noun	phrase	1	14	match	grand	5	1	p	0.9565
539.8035	0.0	[response]	55	noun	phrase	1	15	match	grand	5	1	p	0.9565
541.2452	0.0	+	56	verb	list	2	1	nomatch	rouler	-1	1	y	0.67501
541.795	0.2	mxsrjvg	56	verb	list	2	2	nomatch	rouler	-1	1	y	0.67501
541.9948999999999	0.0	+	56	verb	list	2	3	nomatch	rouler	-1	1	y	0.67501
542.3947	0.2	ztfk	56	verb	list	2	4	nomatch	rouler	-1	1	y	0.67501
542.5946	0.0	+	56	verb	list	2	5	nomatch	rouler	-1	1	y	0.67501
542.9943999999999	0.2	ncb	56	verb	list	2	6	nomatch	rouler	-1	1	y	0.67501
543.1943	0.0	+	56	verb	list	2	7	nomatch	rouler	-1	1	y	0.67501
543.5940999999999	0.2	nager	56	verb	list	2	8	nomatch	rouler	-1	1	y	0.67501
543.7948	0.0	+	56	verb	list	2	9	nomatch	rouler	-1	1	y	0.67501
544.1940999999999	0.2	bleu	56	verb	list	2	10	nomatch	rouler	-1	1	y	0.67501
544.3945	0.0	+	56	verb	list	2	11	nomatch	rouler	-1	1	y	0.67501
544.8107	0.0	+	56	verb	list	2	12	nomatch	rouler	-1	1	y	0.67501
546.7927	0.0	ROULER	56	verb	list	2	13	nomatch	rouler	-1	1	y	0.67501
547.5763	0.0	+	56	verb	list	2	14	nomatch	rouler	-1	1	y	0.67501
547.4676999999999	0.0	[response]	56	verb	list	2	15	nomatch	rouler	-1	1	y	0.67501
549.1916	0.0	+	57	verb	phrase	3	1	nomatch	doit	-1	1	y	0.97492
549.7414	0.2	twn	57	verb	phrase	3	2	nomatch	doit	-1	1	y	0.97492
549.9413	0.0	+	57	verb	phrase	3	3	nomatch	doit	-1	1	y	0.97492
550.3417999999999	0.2	bgmp	57	verb	phrase	3	4	nomatch	doit	-1	1	y	0.97492
550.5415999999999	0.0	+	57	verb	phrase	3	5	nomatch	doit	-1	1	y	0.97492
550.9412	0.2	va	57	verb	phrase	3	6	nomatch	doit	-1	1	y	0.97492
551.1414	0.0	+	57	verb	phrase	3	7	nomatch	doit	-1	1	y	0.97492
551.5405999999999	0.2	chasser	57	verb	phrase	3	8	nomatch	doit	-1	1	y	0.97492
551.7405	0.0	+	57	verb	phrase	3	9	nomatch	doit	-1	1	y	0.97492
552.1402999999999	0.2	tôt	57	verb	phrase	3	10	nomatch	doit	-1	1	y	0.97492
552.3402	0.0	+	57	verb	phrase	3	11	nomatch	doit	-1	1	y	0.97492
552.74	0.0	+	57	verb	phrase	3	12	nomatch	doit	-1	1	y	0.97492
554.7391	0.0	DOIT	57	verb	phrase	3	13	nomatch	doit	-1	1	y	0.97492
555.856	0.0	+	57	verb	phrase	3	14	nomatch	doit	-1	1	y	0.97492
555.7139999999999	0.0	[response]	57	verb	phrase	3	15	nomatch	doit	-1	1	y	0.97492
557.1381	0.0	+	58	verb	phrase	2	1	match	voyager	4	1	p	0.77551
557.6877999999999	0.2	lpnbr	58	verb	phrase	2	2	match	voyager	4	1	p	0.77551
557.8877	0.0	+	58	verb	phrase	2	3	match	voyager	4	1	p	0.77551
558.2874999999999	0.2	wcxg	58	verb	phrase	2	4	match	voyager	4	1	p	0.77551
558.4874	0.0	+	58	verb	phrase	2	5	match	voyager	4	1	p	0.77551
558.8873	0.2	ns	58	verb	phrase	2	6	match	voyager	4	1	p	0.77551
559.0871999999999	0.0	+	58	verb	phrase	2	7	match	voyager	4	1	p	0.77551
559.487	0.2	voyager	58	verb	phrase	2	8	match	voyager	4	1	p	0.77551
559.6868999999999	0.0	+	58	verb	phrase	2	9	match	voyager	4	1	p	0.77551
560.087	0.2	loin	58	verb	phrase	2	10	match	voyager	4	1	p	0.77551
560.2869999999999	0.0	+	58	verb	phrase	2	11	match	voyager	4	1	p	0.77551
560.7031999999999	0.0	+	58	verb	phrase	2	12	match	voyager	4	1	p	0.77551
562.6857	0.0	VOYAGER	58	verb	phrase	2	13	match	voyager	4	1	p	0.77551
563.5184999999999	0.0	+	58	verb	phrase	2	14	match	voyager	4	1	p	0.77551
563.4612999999999	0.0	[response]	58	verb	phrase	2	15	match	voyager	4	1	p	0.77551
565.0844999999999	0.0	+	59	verb	phrase	3	1	match	rouler	5	1	p	0.76993
565.6342	0.2	fnc	59	verb	phrase	3	2	match	rouler	5	1	p	0.76993
565.8340999999999	0.0	+	59	verb	phrase	3	3	match	rouler	5	1	p	0.76993
566.2339999999999	0.2	ckf	59	verb	phrase	3	4	match	rouler	5	1	p	0.76993
566.4339	0.0	+	59	verb	phrase	3	5	match	rouler	5	1	p	0.76993
566.8336999999999	0.2	peut	59	verb	phrase	3	6	match	rouler	5	1	p	0.76993
567.0337999999999	0.0	+	59	verb	phrase	3	7	match	rouler	5	1	p	0.76993
567.4506	0.2	trop	59	verb	phrase	3	8	match	rouler	5	1	p	0.76993
567.65	0.0	+	59	verb	phrase	3	9	match	rouler	5	1	p	0.76993
568.05	0.2	rouler	59	verb	phrase	3	10	match	rouler	5	1	p	0.76993
568.2665	0.0	+	59	verb	phrase	3	11	match	rouler	5	1	p	0.76993
568.6495	0.0	+	59	verb	phrase	3	12	match	rouler	5	1	p	0.76993
570.6486	0.0	ROULER	59	verb	phrase	3	13	match	rouler	5	1	p	0.76993
571.4816	0.0	+	59	verb	phrase	3	14	match	rouler	5	1	p	0.76993
571.4186	0.0	[response]	59	verb	phrase	3	15	match	rouler	5	1	p	0.76993
581.0441999999999	0.0	+	60	verb	phrase	1	1	nomatch	chasser	-1	1	y	0.82937
581.5937	0.2	fpbds	60	verb	phrase	1	2	nomatch	chasser	-1	1	y	0.82937
581.7942999999999	0.0	+	60	verb	phrase	1	3	nomatch	chasser	-1	1	y	0.82937
582.1938	0.2	wxqn	60	verb	phrase	1	4	nomatch	chasser	-1	1	y	0.82937
582.3941	0.0	+	60	verb	phrase	1	5	nomatch	chasser	-1	1	y	0.82937
582.7939	0.2	bmjh	60	verb	phrase	1	6	nomatch	chasser	-1	1	y	0.82937
582.9936	0.0	+	60	verb	phrase	1	7	nomatch	chasser	-1	1	y	0.82937
583.3928999999999	0.2	pnk	60	verb	phrase	1	8	nomatch	chasser	-1	1	y	0.82937
583.5928	0.0	+	60	verb	phrase	1	9	nomatch	chasser	-1	1	y	0.82937
583.9925999999999	0.2	jongler	60	verb	phrase	1	10	nomatch	chasser	-1	1	y	0.82937
584.1926	0.0	+	60	verb	phrase	1	11	nomatch	chasser	-1	1	y	0.82937
584.5924	0.0	+	60	verb	phrase	1	12	nomatch	chasser	-1	1	y	0.82937
586.5913999999999	0.0	CHASSER	60	verb	phrase	1	13	nomatch	chasser	-1	1	y	0.82937
587.4744	0.0	+	60	verb	phrase	1	14	nomatch	chasser	-1	1	y	0.82937
587.4208	0.0	[response]	60	verb	phrase	1	15	nomatch	chasser	-1	1	y	0.82937
588.9903999999999	0.0	+	61	verb	list	1	1	match	voyager	5	1	p	0.93789
589.5400999999999	0.2	bngqp	61	verb	list	1	2	match	voyager	5	1	p	0.93789
589.74	0.0	+	61	verb	list	1	3	match	voyager	5	1	p	0.93789
590.1399	0.2	bgmp	61	verb	list	1	4	match	voyager	5	1	p	0.93789
590.3398	0.0	+	61	verb	list	1	5	match	voyager	5	1	p	0.93789
590.7396	0.2	ncb	61	verb	list	1	6	match	voyager	5	1	p	0.93789
590.9395	0.0	+	61	verb	list	1	7	match	voyager	5	1	p	0.93789
591.3393	0.2	xvlg	61	verb	list	1	8	match	voyager	5	1	p	0.93789
591.5391999999999	0.0	+	61	verb	list	1	9	match	voyager	5	1	p	0.93789
591.9390999999999	0.2	voyager	61	verb	list	1	10	match	voyager	5	1	p	0.93789
592.1397	0.0	+	61	verb	list	1	11	match	voyager	5	1	p	0.93789
592.539	0.0	+	61	verb	list	1	12	match	voyager	5	1	p	0.93789
594.5378999999999	0.0	VOYAGER	61	verb	list	1	13	match	voyager	5	1	p	0.93789
595.5373999999999	0.0	+	61	verb	list	1	14	match	voyager	5	1	p	0.93789
595.4757999999999	0.0	[response]	61	verb	list	1	15	match	voyager	5	1	p	0.93789
596.9368	0.0	+	62	verb	phrase	4	1	nomatch	danser	-1	1	y	0.54938
597.4866	0.2	vhqlgz	62	verb	phrase	4	2	nomatch	danser	-1	1	y	0.54938
597.6864999999999	0.0	+	62	verb	phrase	4	3	nomatch	danser	-1	1	y	0.54938
598.0862999999999	0.2	marc	62	verb	phrase	4	4	nomatch	danser	-1	1	y	0.54938
598.2862	0.0	+	62	verb	phrase	4	5	nomatch	danser	-1	1	y	0.54938
598.6859999999999	0.2	peut	62	verb	phrase	4	6	nomatch	danser	-1	1	y	0.54938
598.8859	0.0	+	62	verb	phrase	4	7	nomatch	danser	-1	1	y	0.54938
599.2858	0.2	trop	62	verb	phrase	4	8	nomatch	danser	-1	1	y	0.54938
599.5024999999999	0.0	+	62	verb	phrase	4	9	nomatch	danser	-1	1	y	0.54938
599.8860999999999	0.2	jongler	62	verb	phrase	4	10	nomatch	danser	-1	1	y	0.54938
600.0853999999999	0.0	+	62	verb	phrase	4	11	nomatch	danser	-1	1	y	0.54938
600.4852	0.0	+	62	verb	phrase	4	12	nomatch	danser	-1	1	y	0.54938
602.4843999999999	0.0	DANSER	62	verb	phrase	4	13	nomatch	danser	-1	1	y	0.54938
603.168	0.0	+	62	verb	phrase	4	14	nomatch	danser	-1	1	y	0.54938
603.0337999999999	0.0	[response]	62	verb	phrase	4	15	nomatch	danser	-1	1	y	0.54938
604.8999	0.0	+	63	verb	list	1	1	match	vieux	5	1	p	0.59362
605.4495999999999	0.2	gjls	63	verb	list	1	2	match	vieux	5	1	p	0.59362
605.6496	0.0	+	63	verb	list	1	3	match	vieux	5	1	p	0.59362
606.0494	0.2	gfws	63	verb	list	1	4	match	vieux	5	1	p	0.59362
606.2493	0.0	+	63	verb	list	1	5	match	vieux	5	1	p	0.59362
606.6491	0.2	ns	63	verb	list	1	6	match	vieux	5	1	p	0.59362
606.8489999999999	0.0	+	63	verb	list	1	7	match	vieux	5	1	p	0.59362
607.2493999999999	0.2	gzchqw	63	verb	list	1	8	match	vieux	5	1	p	0.59362
607.4488	0.0	+	63	verb	list	1	9	match	vieux	5	1	p	0.59362
607.8489	0.2	vieux	63	verb	list	1	10	match	vieux	5	1	p	0.59362
608.0489	0.0	+	63	verb	list	1	11	match	vieux	5	1	p	0.59362
608.4482999999999	0.0	+	63	verb	list	1	12	match	vieux	5	1	p	0.59362
610.4474	0.0	VIEUX	63	verb	list	1	13	match	vieux	5	1	p	0.59362
611.0971	0.0	+	63	verb	list	1	14	match	vieux	5	1	p	0.59362
611.0409999999999	0.0	[response]	63	verb	list	1	15	match	vieux	5	1	p	0.59362
612.8462999999999	0.0	+	64	noun	list	2	1	nomatch	panier	-1	1	y	0.79671
613.3960999999999	0.2	kzvgpnr	64	noun	list	2	2	nomatch	panier	-1	1	y	0.79671
613.596	0.0	+	64	noun	list	2	3	nomatch	panier	-1	1	y	0.79671
613.9957999999999	0.2	qskv	64	noun	list	2	4	nomatch	panier	-1	1	y	0.79671
614.1957	0.0	+	64	noun	list	2	5	nomatch	panier	-1	1	y	0.79671
614.5955	0.2	fbd	64	noun	list	2	6	nomatch	panier	-1	1	y	0.79671
614.7955	0.0	+	64	noun	list	2	7	nomatch	panier	-1	1	y	0.79671
615.1957	0.2	moins	64	noun	list	2	8	nomatch	panier	-1	1	y	0.79671
615.4122	0.0	+	64	noun	list	2	9	nomatch	panier	-1	1	y	0.79671
615.7950999999999	0.2	grenier	64	noun	list	2	10	nomatch	panier	-1	1	y	0.79671
615.9948999999999	0.0	+	64	noun	list	2	11	nomatch	panier	-1	1	y	0.79671
616.3947999999999	0.0	+	64	noun	list	2	12	nomatch	panier	-1	1	y	0.79671
618.3945	0.0	PANIER	64	noun	list	2	13	nomatch	panier	-1	1	y	0.79671
619.2434	0.0	+	64	noun	list	2	14	nomatch	panier	-1	1	y	0.79671
619.1913	0.0	[response]	64	noun	list	2	15	nomatch	panier	-1	1	y	0.79671
620.7927	0.0	+	65	verb	list	1	1	match	nouveau	5	1	p	0.59658
621.343	0.2	jzn	65	verb	list	1	2	match	nouveau	5	1	p	0.59658
621.5428999999999	0.0	+	65	verb	list	1	3	match	nouveau	5	1	p	0.59658
621.9427	0.2	gmcl	65	verb	list	1	4	match	nouveau	5	1	p	0.59658
622.159	0.0	+	65	verb	list	1	5	match	nouveau	5	1	p	0.59658
622.5419999999999	0.2	bmjh	65	verb	list	1	6	match	nouveau	5	1	p	0.59658
622.7419	0.0	+	65	verb	list	1	7	match	nouveau	5	1	p	0.59658
623.1418	0.2	mdjqzgp	65	verb	list	1	8	match	nouveau	5	1	p	0.59658
623.3416	0.0	+	65	verb	list	1	9	match	nouveau	5	1	p	0.59658
623.7414	0.2	nouveau	65	verb	list	1	10	match	nouveau	5	1	p	0.59658
623.9413	0.0	+	65	verb	list	1	11	match	nouveau	5	1	p	0.59658
624.3411	0.0	+	65	verb	list	1	12	match	nouveau	5	1	p	0.59658
626.3408999999999	0.0	NOUVEAU	65	verb	list	1	13	match	nouveau	5	1	p	0.59658
626.9907	0.0	+	65	verb	list	1	14	match	nouveau	5	1	p	0.59658
626.9375	0.0	[response]	65	verb	list	1	15	match	nouveau	5	1	p	0.59658
628.7392	0.0	+	66	verb	list	3	1	match	noir	5	0	y	0.61423
629.2889	0.2	nsxq	66	verb	list	3	2	match	noir	5	0	y	0.61423
629.4888	0.0	+	66	verb	list	3	3	match	noir	5	0	y	0.61423
629.8886	0.2	ztfk	66	verb	list	3	4	match	noir	5	0	y	0.61423
630.0885999999999	0.0	+	66	verb	list	3	5	match	noir	5	0	y	0.61423
630.4884	0.2	son	66	verb	list	3	6	match	noir	5	0	y	0.61423
630.6882999999999	0.0	+	66	verb	list	3	7	match	noir	5	0	y	0.61423
631.1053999999999	0.2	chasser	66	verb	list	3	8	match	noir	5	0	y	0.61423
631.2885	0.0	+	66	verb	list	3	9	match	noir	5	0	y	0.61423
631.6884	0.2	noir	66	verb	list	3	10	match	noir	5	0	y	0.61423
631.8884999999999	0.0	+	66	verb	list	3	11	match	noir	5	0	y	0.61423
632.3046999999999	0.0	+	66	verb	list	3	12	match	noir	5	0	y	0.61423
634.2873	0.0	NOIR	66	verb	list	3	13	match	noir	5	0	y	0.61423
634.9697	0.0	+	66	verb	list	3	14	match	noir	5	0	y	0.61423
634.9014999999999	0.0	[response]	66	verb	list	3	15	match	noir	5	0	y	0.61423
636.6855999999999	0.0	+	67	verb	phrase	1	1	nomatch	tard	-1	1	y	0.74184
637.2353999999999	0.2	wpg	67	verb	phrase	1	2	nomatch	tard	-1	1	y	0.74184
637.4352	0.0	+	67	verb	phrase	1	3	nomatch	tard	-1	1	y	0.74184
637.8351	0.2	ckf	67	verb	phrase	1	4	nomatch	tard	-1	1	y	0.74184
638.0353	0.0	+	67	verb	phrase	1	5	nomatch	tard	-1	1	y	0.74184
638.4355999999999	0.2	ns	67	verb	phrase	1	6	nomatch	tard	-1	1	y	0.74184
638.635	0.0	+	67	verb	phrase	1	7	nomatch	tard	-1	1	y	0.74184
639.0347999999999	0.2	czhwnbm	67	verb	phrase	1	8	nomatch	tard	-1	1	y	0.74184
639.2513	0.0	+	67	verb	phrase	1	9	nomatch	tard	-1	1	y	0.74184
639.6342999999999	0.2	trop	67	verb	phrase	1	10	nomatch	tard	-1	1	y	0.74184
639.8342	0.0	+	67	verb	phrase	1	11	nomatch	tard	-1	1	y	0.74184
640.2339999999999	0.0	+	67	verb	phrase	1	12	nomatch	tard	-1	1	y	0.74184
642.2497999999999	0.0	TARD	67	verb	phrase	1	13	nomatch	tard	-1	1	y	0.74184
643.0495999999999	0.0	+	67	verb	phrase	1	14	nomatch	tard	-1	1	y	0.74184
642.9916000000001	0.0	[response]	67	verb	phrase	1	15	nomatch	tard	-1	1	y	0.74184
644.6487	0.0	+	68	verb	list	1	1	nomatch	parader	-1	1	y	0.84409
645.1984	0.2	sgdknm	68	verb	list	1	2	nomatch	parader	-1	1	y	0.84409
645.3983	0.0	+	68	verb	list	1	3	nomatch	parader	-1	1	y	0.84409
645.7982999999999	0.2	tdmv	68	verb	list	1	4	nomatch	parader	-1	1	y	0.84409
645.9982	0.0	+	68	verb	list	1	5	nomatch	parader	-1	1	y	0.84409
646.4150999999999	0.2	bmjh	68	verb	list	1	6	nomatch	parader	-1	1	y	0.84409
646.5980999999999	0.0	+	68	verb	list	1	7	nomatch	parader	-1	1	y	0.84409
646.9982	0.2	zxmqw	68	verb	list	1	8	nomatch	parader	-1	1	y	0.84409
647.1975	0.0	+	68	verb	list	1	9	nomatch	parader	-1	1	y	0.84409
647.5972999999999	0.2	patiner	68	verb	list	1	10	nomatch	parader	-1	1	y	0.84409
647.7973	0.0	+	68	verb	list	1	11	nomatch	parader	-1	1	y	0.84409
648.1971	0.0	+	68	verb	list	1	12	nomatch	parader	-1	1	y	0.84409
650.1967999999999	0.0	PARADER	68	verb	list	1	13	nomatch	parader	-1	1	y	0.84409
651.0957999999999	0.0	+	68	verb	list	1	14	nomatch	parader	-1	1	y	0.84409
651.0409	0.0	[response]	68	verb	list	1	15	nomatch	parader	-1	1	y	0.84409
652.5951	0.0	+	69	verb	phrase	2	1	nomatch	jongler	-1	1	y	0.6704
653.1619	0.2	bjwxdkv	69	verb	phrase	2	2	nomatch	jongler	-1	1	y	0.6704
653.3448999999999	0.0	+	69	verb	phrase	2	3	nomatch	jongler	-1	1	y	0.6704
653.7452999999999	0.2	sxpw	69	verb	phrase	2	4	nomatch	jongler	-1	1	y	0.6704
653.9445999999999	0.0	+	69	verb	phrase	2	5	nomatch	jongler	-1	1	y	0.6704
654.3443	0.2	ns	69	verb	phrase	2	6	nomatch	jongler	-1	1	y	0.6704
654.5441999999999	0.0	+	69	verb	phrase	2	7	nomatch	jongler	-1	1	y	0.6704
654.9440999999999	0.2	chasser	69	verb	phrase	2	8	nomatch	jongler	-1	1	y	0.6704
655.144	0.0	+	69	verb	phrase	2	9	nomatch	jongler	-1	1	y	0.6704
655.5437999999999	0.2	tôt	69	verb	phrase	2	10	nomatch	jongler	-1	1	y	0.6704
655.7437	0.0	+	69	verb	phrase	2	11	nomatch	jongler	-1	1	y	0.6704
656.1434999999999	0.0	+	69	verb	phrase	2	12	nomatch	jongler	-1	1	y	0.6704
658.1426	0.0	JONGLER	69	verb	phrase	2	13	nomatch	jongler	-1	1	y	0.6704
658.8756	0.0	+	69	verb	phrase	2	14	nomatch	jongler	-1	1	y	0.6704
658.813	0.0	[response]	69	verb	phrase	2	15	nomatch	jongler	-1	1	y	0.6704
660.5414999999999	0.0	+	70	verb	list	2	1	match	rouler	5	1	p	0.73097
661.0912999999999	0.2	xqm	70	verb	list	2	2	match	rouler	5	1	p	0.73097
661.2912	0.0	+	70	verb	list	2	3	match	rouler	5	1	p	0.73097
661.6909999999999	0.2	fcvw	70	verb	list	2	4	match	rouler	5	1	p	0.73097
661.8909	0.0	+	70	verb	list	2	5	match	rouler	5	1	p	0.73097
662.2907	0.2	bmjh	70	verb	list	2	6	match	rouler	5	1	p	0.73097
662.4906	0.0	+	70	verb	list	2	7	match	rouler	5	1	p	0.73097
662.8906	0.2	grand	70	verb	list	2	8	match	rouler	5	1	p	0.73097
663.0911	0.0	+	70	verb	list	2	9	match	rouler	5	1	p	0.73097
663.4906	0.2	rouler	70	verb	list	2	10	match	rouler	5	1	p	0.73097
663.6904	0.0	+	70	verb	list	2	11	match	rouler	5	1	p	0.73097
664.0899	0.0	+	70	verb	list	2	12	match	rouler	5	1	p	0.73097
666.0897	0.0	ROULER	70	verb	list	2	13	match	rouler	5	1	p	0.73097
666.9554999999999	0.0	+	70	verb	list	2	14	match	rouler	5	1	p	0.73097
666.8206	0.0	[response]	70	verb	list	2	15	match	rouler	5	1	p	0.73097
668.4879	0.0	+	71	noun	list	3	1	match	tablier	5	1	p	0.6954
669.0377	0.2	bvjlgkr	71	noun	list	3	2	match	tablier	5	1	p	0.6954
669.2375999999999	0.0	+	71	noun	list	3	3	match	tablier	5	1	p	0.6954
669.6374	0.2	ckf	71	noun	list	3	4	match	tablier	5	1	p	0.6954
669.8372999999999	0.0	+	71	noun	list	3	5	match	tablier	5	1	p	0.6954
670.2371999999999	0.2	mon	71	noun	list	3	6	match	tablier	5	1	p	0.6954
670.4371	0.0	+	71	noun	list	3	7	match	tablier	5	1	p	0.6954
670.8369	0.2	plus	71	noun	list	3	8	match	tablier	5	1	p	0.6954
671.0369999999999	0.0	+	71	noun	list	3	9	match	tablier	5	1	p	0.6954
671.4372999999999	0.2	tablier	71	noun	list	3	10	match	tablier	5	1	p	0.6954
671.6372	0.0	+	71	noun	list	3	11	match	tablier	5	1	p	0.6954
672.0367	0.0	+	71	noun	list	3	12	match	tablier	5	1	p	0.6954
674.0355	0.0	TABLIER	71	noun	list	3	13	match	tablier	5	1	p	0.6954
674.7850999999999	0.0	+	71	noun	list	3	14	match	tablier	5	1	p	0.6954
674.7308999999999	0.0	[response]	71	noun	list	3	15	match	tablier	5	1	p	0.6954
692.4438	0.0	+	72	noun	list	4	1	match	doit	3	1	p	0.77736
692.9936	0.2	xzfs	72	noun	list	4	2	match	doit	3	1	p	0.77736
693.1935	0.0	+	72	noun	list	4	3	match	doit	3	1	p	0.77736
693.5933	0.2	vers	72	noun	list	4	4	match	doit	3	1	p	0.77736
693.7932	0.0	+	72	noun	list	4	5	match	doit	3	1	p	0.77736
694.1931	0.2	doit	72	noun	list	4	6	match	doit	3	1	p	0.77736
694.3929999999999	0.0	+	72	noun	list	4	7	match	doit	3	1	p	0.77736
694.7927999999999	0.2	boîtier	72	noun	list	4	8	match	doit	3	1	p	0.77736
694.9932	0.0	+	72	noun	list	4	9	match	doit	3	1	p	0.77736
695.3932	0.2	loin	72	noun	list	4	10	match	doit	3	1	p	0.77736
695.5925	0.0	+	72	noun	list	4	11	match	doit	3	1	p	0.77736
695.9927	0.0	+	72	noun	list	4	12	match	doit	3	1	p	0.77736
698.0084999999999	0.0	DOIT	72	noun	list	4	13	match	doit	3	1	p	0.77736
698.841	0.0	+	72	noun	list	4	14	match	doit	3	1	p	0.77736
698.7859	0.0	[response]	72	noun	list	4	15	match	doit	3	1	p	0.77736
700.3902999999999	0.0	+	73	verb	list	1	1	nomatch	jongler	-1	1	y	0.5152600000000002
700.9399999999999	0.2	jvsqmt	73	verb	list	1	2	nomatch	jongler	-1	1	y	0.5152600000000002
701.1399	0.0	+	73	verb	list	1	3	nomatch	jongler	-1	1	y	0.5152600000000002
701.5396999999999	0.2	wcxg	73	verb	list	1	4	nomatch	jongler	-1	1	y	0.5152600000000002
701.7397	0.0	+	73	verb	list	1	5	nomatch	jongler	-1	1	y	0.5152600000000002
702.1562	0.2	fzjl	73	verb	list	1	6	nomatch	jongler	-1	1	y	0.5152600000000002
702.3567999999999	0.0	+	73	verb	list	1	7	nomatch	jongler	-1	1	y	0.5152600000000002
702.7398	0.2	jtnhl	73	verb	list	1	8	nomatch	jongler	-1	1	y	0.5152600000000002
702.9395999999999	0.0	+	73	verb	list	1	9	nomatch	jongler	-1	1	y	0.5152600000000002
703.3389	0.2	nager	73	verb	list	1	10	nomatch	jongler	-1	1	y	0.5152600000000002
703.5387999999999	0.0	+	73	verb	list	1	11	nomatch	jongler	-1	1	y	0.5152600000000002
703.9386999999999	0.0	+	73	verb	list	1	12	nomatch	jongler	-1	1	y	0.5152600000000002
705.9377999999999	0.0	JONGLER	73	verb	list	1	13	nomatch	jongler	-1	1	y	0.5152600000000002
706.5042	0.0	+	73	verb	list	1	14	nomatch	jongler	-1	1	y	0.5152600000000002
706.4530000000001	0.0	[response]	73	verb	list	1	15	nomatch	jongler	-1	1	y	0.5152600000000002
708.3367	0.0	+	74	noun	list	4	1	match	rocher	5	1	p	0.51581
708.8864	0.2	xprd	74	noun	list	4	2	match	rocher	5	1	p	0.51581
709.0863999999999	0.0	+	74	noun	list	4	3	match	rocher	5	1	p	0.51581
709.4861999999999	0.2	jade	74	noun	list	4	4	match	rocher	5	1	p	0.51581
709.6867	0.0	+	74	noun	list	4	5	match	rocher	5	1	p	0.51581
710.1030999999999	0.2	mon	74	noun	list	4	6	match	rocher	5	1	p	0.51581
710.2860999999999	0.0	+	74	noun	list	4	7	match	rocher	5	1	p	0.51581
710.6857	0.2	trop	74	noun	list	4	8	match	rocher	5	1	p	0.51581
710.9028999999999	0.0	+	74	noun	list	4	9	match	rocher	5	1	p	0.51581
711.2854	0.2	rocher	74	noun	list	4	10	match	rocher	5	1	p	0.51581
711.4852999999999	0.0	+	74	noun	list	4	11	match	rocher	5	1	p	0.51581
711.8851	0.0	+	74	noun	list	4	12	match	rocher	5	1	p	0.51581
713.8847	0.0	ROCHER	74	noun	list	4	13	match	rocher	5	1	p	0.51581
714.5842	0.0	+	74	noun	list	4	14	match	rocher	5	1	p	0.51581
714.4005	0.0	[response]	74	noun	list	4	15	match	rocher	5	1	p	0.51581
716.2998	0.0	+	75	verb	list	4	1	nomatch	grand	-1	1	y	0.8492200000000001
716.8499999999999	0.2	kvscxrd	75	verb	list	4	2	nomatch	grand	-1	1	y	0.8492200000000001
717.0668	0.0	+	75	verb	list	4	3	nomatch	grand	-1	1	y	0.8492200000000001
717.4499999999999	0.2	vers	75	verb	list	4	4	nomatch	grand	-1	1	y	0.8492200000000001
717.6496999999999	0.0	+	75	verb	list	4	5	nomatch	grand	-1	1	y	0.8492200000000001
718.0492999999999	0.2	doit	75	verb	list	4	6	nomatch	grand	-1	1	y	0.8492200000000001
718.2488999999999	0.0	+	75	verb	list	4	7	nomatch	grand	-1	1	y	0.8492200000000001
718.6487	0.2	beau	75	verb	list	4	8	nomatch	grand	-1	1	y	0.8492200000000001
718.8485999999999	0.0	+	75	verb	list	4	9	nomatch	grand	-1	1	y	0.8492200000000001
719.2484999999999	0.2	parader	75	verb	list	4	10	nomatch	grand	-1	1	y	0.8492200000000001
719.4484	0.0	+	75	verb	list	4	11	nomatch	grand	-1	1	y	0.8492200000000001
719.8481999999999	0.0	+	75	verb	list	4	12	nomatch	grand	-1	1	y	0.8492200000000001
721.8472999999999	0.0	GRAND	75	verb	list	4	13	nomatch	grand	-1	1	y	0.8492200000000001
722.7634999999999	0.0	+	75	verb	list	4	14	nomatch	grand	-1	1	y	0.8492200000000001
722.6965	0.0	[response]	75	verb	list	4	15	nomatch	grand	-1	1	y	0.8492200000000001
724.2461999999999	0.0	+	76	verb	phrase	1	1	match	moins	5	1	p	0.64242
724.7959	0.2	xqhwmjk	76	verb	phrase	1	2	match	moins	5	1	p	0.64242
724.9959	0.0	+	76	verb	phrase	1	3	match	moins	5	1	p	0.64242
725.3956999999999	0.2	sxpw	76	verb	phrase	1	4	match	moins	5	1	p	0.64242
725.5956	0.0	+	76	verb	phrase	1	5	match	moins	5	1	p	0.64242
725.9953999999999	0.2	bmjh	76	verb	phrase	1	6	match	moins	5	1	p	0.64242
726.1954	0.0	+	76	verb	phrase	1	7	match	moins	5	1	p	0.64242
726.612	0.2	vjwsmzp	76	verb	phrase	1	8	match	moins	5	1	p	0.64242
726.7950999999999	0.0	+	76	verb	phrase	1	9	match	moins	5	1	p	0.64242
727.1952	0.2	moins	76	verb	phrase	1	10	match	moins	5	1	p	0.64242
727.3947999999999	0.0	+	76	verb	phrase	1	11	match	moins	5	1	p	0.64242
727.7946	0.0	+	76	verb	phrase	1	12	match	moins	5	1	p	0.64242
729.7937	0.0	MOINS	76	verb	phrase	1	13	match	moins	5	1	p	0.64242
730.4934	0.0	+	76	verb	phrase	1	14	match	moins	5	1	p	0.64242
730.4361	0.0	[response]	76	verb	phrase	1	15	match	moins	5	1	p	0.64242
732.1926	0.0	+	77	verb	list	4	1	nomatch	rouge	-1	1	y	0.76054
732.7424	0.2	xhcs	77	verb	list	4	2	nomatch	rouge	-1	1	y	0.76054
732.9422999999999	0.0	+	77	verb	list	4	3	nomatch	rouge	-1	1	y	0.76054
733.3421	0.2	sous	77	verb	list	4	4	nomatch	rouge	-1	1	y	0.76054
733.5419999999999	0.0	+	77	verb	list	4	5	nomatch	rouge	-1	1	y	0.76054
733.9418	0.2	doit	77	verb	list	4	6	nomatch	rouge	-1	1	y	0.76054
734.1417	0.0	+	77	verb	list	4	7	nomatch	rouge	-1	1	y	0.76054
734.5415999999999	0.2	grand	77	verb	list	4	8	nomatch	rouge	-1	1	y	0.76054
734.7415	0.0	+	77	verb	list	4	9	nomatch	rouge	-1	1	y	0.76054
735.1582	0.2	chasser	77	verb	list	4	10	nomatch	rouge	-1	1	y	0.76054
735.3412999999999	0.0	+	77	verb	list	4	11	nomatch	rouge	-1	1	y	0.76054
735.7415	0.0	+	77	verb	list	4	12	nomatch	rouge	-1	1	y	0.76054
737.7401	0.0	ROUGE	77	verb	list	4	13	nomatch	rouge	-1	1	y	0.76054
738.5563999999999	0.0	+	77	verb	list	4	14	nomatch	rouge	-1	1	y	0.76054
738.5007	0.0	[response]	77	verb	list	4	15	nomatch	rouge	-1	1	y	0.76054
740.1391	0.0	+	78	verb	phrase	1	1	nomatch	casier	-1	1	y	0.57824
740.6888	0.2	tlcvgx	78	verb	phrase	1	2	nomatch	casier	-1	1	y	0.57824
740.8887	0.0	+	78	verb	phrase	1	3	nomatch	casier	-1	1	y	0.57824
741.2885	0.2	ztfk	78	verb	phrase	1	4	nomatch	casier	-1	1	y	0.57824
741.4884	0.0	+	78	verb	phrase	1	5	nomatch	casier	-1	1	y	0.57824
741.8883	0.2	zhcb	78	verb	phrase	1	6	nomatch	casier	-1	1	y	0.57824
742.0881999999999	0.0	+	78	verb	phrase	1	7	nomatch	casier	-1	1	y	0.57824
742.4879999999999	0.2	bnhlw	78	verb	phrase	1	8	nomatch	casier	-1	1	y	0.57824
742.6879	0.0	+	78	verb	phrase	1	9	nomatch	casier	-1	1	y	0.57824
743.0883	0.2	loin	78	verb	phrase	1	10	nomatch	casier	-1	1	y	0.57824
743.288	0.0	+	78	verb	phrase	1	11	nomatch	casier	-1	1	y	0.57824
743.6881999999999	0.0	+	78	verb	phrase	1	12	nomatch	casier	-1	1	y	0.57824
745.6866	0.0	CASIER	78	verb	phrase	1	13	nomatch	casier	-1	1	y	0.57824
746.3869	0.0	+	78	verb	phrase	1	14	nomatch	casier	-1	1	y	0.57824
746.2647999999999	0.0	[response]	78	verb	phrase	1	15	nomatch	casier	-1	1	y	0.57824
748.0854999999999	0.0	+	79	verb	list	4	1	match	adam	2	1	p	0.80418
748.6351999999999	0.2	dqbhz	79	verb	list	4	2	match	adam	2	1	p	0.80418
748.8351	0.0	+	79	verb	list	4	3	match	adam	2	1	p	0.80418
749.235	0.2	adam	79	verb	list	4	4	match	adam	2	1	p	0.80418
749.4349	0.0	+	79	verb	list	4	5	match	adam	2	1	p	0.80418
749.8351	0.2	son	79	verb	list	4	6	match	adam	2	1	p	0.80418
750.0350999999999	0.0	+	79	verb	list	4	7	match	adam	2	1	p	0.80418
750.4350999999999	0.2	rouler	79	verb	list	4	8	match	adam	2	1	p	0.80418
750.6515999999999	0.0	+	79	verb	list	4	9	match	adam	2	1	p	0.80418
751.0510999999999	0.2	rouge	79	verb	list	4	10	match	adam	2	1	p	0.80418
751.2339999999999	0.0	+	79	verb	list	4	11	match	adam	2	1	p	0.80418
751.6338999999999	0.0	+	79	verb	list	4	12	match	adam	2	1	p	0.80418
753.6668999999999	0.0	ADAM	79	verb	list	4	13	match	adam	2	1	p	0.80418
754.5326	0.0	+	79	verb	list	4	14	match	adam	2	1	p	0.80418
754.4711	0.0	[response]	79	verb	list	4	15	match	adam	2	1	p	0.80418
756.0486	0.0	+	80	verb	phrase	4	1	nomatch	va	-1	1	y	0.767
756.5983	0.2	drmskxg	80	verb	phrase	4	2	nomatch	va	-1	1	y	0.767
756.7982	0.0	+	80	verb	phrase	4	3	nomatch	va	-1	1	y	0.767
757.198	0.2	luc	80	verb	phrase	4	4	nomatch	va	-1	1	y	0.767
757.3978999999999	0.0	+	80	verb	phrase	4	5	nomatch	va	-1	1	y	0.767
757.7978999999999	0.2	peut	80	verb	phrase	4	6	nomatch	va	-1	1	y	0.767
757.9977	0.0	+	80	verb	phrase	4	7	nomatch	va	-1	1	y	0.767
758.3974999999999	0.2	moins	80	verb	phrase	4	8	nomatch	va	-1	1	y	0.767
758.5974	0.0	+	80	verb	phrase	4	9	nomatch	va	-1	1	y	0.767
758.9971999999999	0.2	voyager	80	verb	phrase	4	10	nomatch	va	-1	1	y	0.767
759.1971	0.0	+	80	verb	phrase	4	11	nomatch	va	-1	1	y	0.767
759.597	0.0	+	80	verb	phrase	4	12	nomatch	va	-1	1	y	0.767
761.5961	0.0	VA	80	verb	phrase	4	13	nomatch	va	-1	1	y	0.767
762.429	0.0	+	80	verb	phrase	4	14	nomatch	va	-1	1	y	0.767
763.995	0.0	+	80	verb	phrase	4	15	nomatch	va	-1	1	y	0.767
765.0111999999999	0.0	+	80	verb	phrase	4	16	nomatch	va	-1	1	y	0.767
765.1111	0.0	+	80	verb	phrase	4	17	nomatch	va	-1	1	y	0.767
766.5105	0.0	+	80	verb	phrase	4	18	nomatch	va	-1	1	y	0.767
766.6105	0.0	+	80	verb	phrase	4	19	nomatch	va	-1	1	y	0.767
768.0097999999999	0.0	+	80	verb	phrase	4	20	nomatch	va	-1	1	y	0.767
768.1098	0.0	+	80	verb	phrase	4	21	nomatch	va	-1	1	y	0.767
769.5092	0.0	+	80	verb	phrase	4	22	nomatch	va	-1	1	y	0.767
769.6091	0.0	+	80	verb	phrase	4	23	nomatch	va	-1	1	y	0.767
771.0084999999999	0.0	+	80	verb	phrase	4	24	nomatch	va	-1	1	y	0.767
771.1084	0.0	+	80	verb	phrase	4	25	nomatch	va	-1	1	y	0.767
772.5078	0.0	+	80	verb	phrase	4	26	nomatch	va	-1	1	y	0.767
772.6078	0.0	+	80	verb	phrase	4	27	nomatch	va	-1	1	y	0.767
774.0070999999999	0.0	+	80	verb	phrase	4	28	nomatch	va	-1	1	y	0.767
774.1071	0.0	+	80	verb	phrase	4	29	nomatch	va	-1	1	y	0.767
775.5065	0.0	+	80	verb	phrase	4	30	nomatch	va	-1	1	y	0.767
775.6064	0.0	+	80	verb	phrase	4	31	nomatch	va	-1	1	y	0.767
777.0057999999999	0.0	+	80	verb	phrase	4	32	nomatch	va	-1	1	y	0.767
777.1057999999999	0.0	+	80	verb	phrase	4	33	nomatch	va	-1	1	y	0.767
778.5051	0.0	+	80	verb	phrase	4	34	nomatch	va	-1	1	y	0.767
778.6051	0.0	+	80	verb	phrase	4	35	nomatch	va	-1	1	y	0.767
783.4529	0.0	+	80	verb	phrase	4	36	nomatch	va	-1	1	y	0.767
762.3630999999999	0.0	[response]	80	verb	phrase	4	37	nomatch	va	-1	1	y	0.767
