onset	duration	stim	trial_number	trial_type	trial_structure	trial_length	sequential_position	probe_type	probe	probe_position	response_correct	response_key	response_time
0.06589999999999918	0.0	+	1	noun	list	1	1	match	moins	5	1	p	0.51725
0.5489999999999995	0.2	vgnmwx	1	noun	list	1	2	match	moins	5	1	p	0.51725
0.748899999999999	0.0	+	1	noun	list	1	3	match	moins	5	1	p	0.51725
1.148699999999998	0.2	sxpw	1	noun	list	1	4	match	moins	5	1	p	0.51725
1.3486999999999938	0.0	+	1	noun	list	1	5	match	moins	5	1	p	0.51725
1.7485	0.2	ncb	1	noun	list	1	6	match	moins	5	1	p	0.51725
1.9483999999999995	0.0	+	1	noun	list	1	7	match	moins	5	1	p	0.51725
2.3481999999999985	0.2	wbgzkc	1	noun	list	1	8	match	moins	5	1	p	0.51725
2.548099999999998	0.0	+	1	noun	list	1	9	match	moins	5	1	p	0.51725
2.947899999999997	0.2	moins	1	noun	list	1	10	match	moins	5	1	p	0.51725
3.1477999999999966	0.0	+	1	noun	list	1	11	match	moins	5	1	p	0.51725
3.5482999999999976	0.0	+	1	noun	list	1	12	match	moins	5	1	p	0.51725
5.5467999999999975	0.0	MOINS	1	noun	list	1	13	match	moins	5	1	p	0.51725
6.129799999999996	0.0	+	1	noun	list	1	14	match	moins	5	1	p	0.51725
6.064	0.0	[response]	1	noun	list	1	15	match	moins	5	1	p	0.51725
7.945699999999995	0.0	+	2	noun	list	4	1	nomatch	doit	-1	1	y	0.80828
8.495399999999997	0.2	wtchb	2	noun	list	4	2	nomatch	doit	-1	1	y	0.80828
8.695299999999996	0.0	+	2	noun	list	4	3	nomatch	doit	-1	1	y	0.80828
9.095799999999997	0.2	sur	2	noun	list	4	4	nomatch	doit	-1	1	y	0.80828
9.295599999999993	0.0	+	2	noun	list	4	5	nomatch	doit	-1	1	y	0.80828
9.695099999999996	0.2	va	2	noun	list	4	6	nomatch	doit	-1	1	y	0.80828
9.894799999999996	0.0	+	2	noun	list	4	7	nomatch	doit	-1	1	y	0.80828
10.294599999999996	0.2	grenier	2	noun	list	4	8	nomatch	doit	-1	1	y	0.80828
10.494499999999995	0.0	+	2	noun	list	4	9	nomatch	doit	-1	1	y	0.80828
10.894399999999997	0.2	ainsi	2	noun	list	4	10	nomatch	doit	-1	1	y	0.80828
11.094299999999997	0.0	+	2	noun	list	4	11	nomatch	doit	-1	1	y	0.80828
11.494099999999996	0.0	+	2	noun	list	4	12	nomatch	doit	-1	1	y	0.80828
13.493199999999995	0.0	DOIT	2	noun	list	4	13	nomatch	doit	-1	1	y	0.80828
14.476099999999995	0.0	+	2	noun	list	4	14	nomatch	doit	-1	1	y	0.80828
14.301499999999997	0.0	[response]	2	noun	list	4	15	nomatch	doit	-1	1	y	0.80828
15.892099999999992	0.0	+	3	noun	list	3	1	match	mon	3	1	p	1.1181
16.441799999999994	0.2	gpwsx	3	noun	list	3	2	match	mon	3	1	p	1.1181
16.641799999999996	0.0	+	3	noun	list	3	3	match	mon	3	1	p	1.1181
17.041599999999995	0.2	ckf	3	noun	list	3	4	match	mon	3	1	p	1.1181
17.241499999999995	0.0	+	3	noun	list	3	5	match	mon	3	1	p	1.1181
17.641299999999994	0.2	mon	3	noun	list	3	6	match	mon	3	1	p	1.1181
17.841199999999994	0.0	+	3	noun	list	3	7	match	mon	3	1	p	1.1181
18.241099999999996	0.2	trop	3	noun	list	3	8	match	mon	3	1	p	1.1181
18.440899999999992	0.0	+	3	noun	list	3	9	match	mon	3	1	p	1.1181
18.840799999999994	0.2	boîtier	3	noun	list	3	10	match	mon	3	1	p	1.1181
19.04099999999999	0.0	+	3	noun	list	3	11	match	mon	3	1	p	1.1181
19.440800000000003	0.0	+	3	noun	list	3	12	match	mon	3	1	p	1.1181
21.43959999999999	0.0	MON	3	noun	list	3	13	match	mon	3	1	p	1.1181
22.622399999999992	0.0	+	3	noun	list	3	14	match	mon	3	1	p	1.1181
22.55769999999999	0.0	[response]	3	noun	list	3	15	match	mon	3	1	p	1.1181
23.838500000000003	0.0	+	4	noun	list	4	1	match	son	3	1	p	0.57842
24.388299999999994	0.2	sdhjgrt	4	noun	list	4	2	match	son	3	1	p	0.57842
24.588199999999993	0.0	+	4	noun	list	4	3	match	son	3	1	p	0.57842
24.987999999999992	0.2	marc	4	noun	list	4	4	match	son	3	1	p	0.57842
25.187899999999992	0.0	+	4	noun	list	4	5	match	son	3	1	p	0.57842
25.58769999999999	0.2	son	4	noun	list	4	6	match	son	3	1	p	0.57842
25.787699999999994	0.0	+	4	noun	list	4	7	match	son	3	1	p	0.57842
26.187499999999993	0.2	beaucoup	4	noun	list	4	8	match	son	3	1	p	0.57842
26.387399999999992	0.0	+	4	noun	list	4	9	match	son	3	1	p	0.57842
26.7879	0.2	tablier	4	noun	list	4	10	match	son	3	1	p	0.57842
26.987900000000003	0.0	+	4	noun	list	4	11	match	son	3	1	p	0.57842
27.387300000000003	0.0	+	4	noun	list	4	12	match	son	3	1	p	0.57842
29.386000000000003	0.0	SON	4	noun	list	4	13	match	son	3	1	p	0.57842
30.0191	0.0	+	4	noun	list	4	14	match	son	3	1	p	0.57842
29.96439999999999	0.0	[response]	4	noun	list	4	15	match	son	3	1	p	0.57842
31.7849	0.0	+	5	noun	list	1	1	nomatch	peut	-1	1	y	0.79237
32.33469999999999	0.2	ldcm	5	noun	list	1	2	nomatch	peut	-1	1	y	0.79237
32.53459999999999	0.0	+	5	noun	list	1	3	nomatch	peut	-1	1	y	0.79237
32.93489999999999	0.2	ckf	5	noun	list	1	4	nomatch	peut	-1	1	y	0.79237
33.1514	0.0	+	5	noun	list	1	5	nomatch	peut	-1	1	y	0.79237
33.5349	0.2	ncb	5	noun	list	1	6	nomatch	peut	-1	1	y	0.79237
33.7347	0.0	+	5	noun	list	1	7	nomatch	peut	-1	1	y	0.79237
34.1342	0.2	ghpj	5	noun	list	1	8	nomatch	peut	-1	1	y	0.79237
34.3342	0.0	+	5	noun	list	1	9	nomatch	peut	-1	1	y	0.79237
34.7336	0.2	cendrier	5	noun	list	1	10	nomatch	peut	-1	1	y	0.79237
34.9338	0.0	+	5	noun	list	1	11	nomatch	peut	-1	1	y	0.79237
35.35	0.0	+	5	noun	list	1	12	nomatch	peut	-1	1	y	0.79237
37.3491	0.0	PEUT	5	noun	list	1	13	nomatch	peut	-1	1	y	0.79237
38.198699999999995	0.0	+	5	noun	list	1	14	nomatch	peut	-1	1	y	0.79237
38.1415	0.0	[response]	5	noun	list	1	15	nomatch	peut	-1	1	y	0.79237
39.748	0.0	+	6	verb	list	4	1	match	chasser	4	1	p	0.79261
40.2978	0.2	mbfdcj	6	verb	list	4	2	match	chasser	4	1	p	0.79261
40.4977	0.0	+	6	verb	list	4	3	match	chasser	4	1	p	0.79261
40.8975	0.2	yves	6	verb	list	4	4	match	chasser	4	1	p	0.79261
41.0974	0.0	+	6	verb	list	4	5	match	chasser	4	1	p	0.79261
41.4972	0.2	son	6	verb	list	4	6	match	chasser	4	1	p	0.79261
41.6972	0.0	+	6	verb	list	4	7	match	chasser	4	1	p	0.79261
42.097500000000004	0.2	chasser	6	verb	list	4	8	match	chasser	4	1	p	0.79261
42.29749999999999	0.0	+	6	verb	list	4	9	match	chasser	4	1	p	0.79261
42.696999999999996	0.2	vert	6	verb	list	4	10	match	chasser	4	1	p	0.79261
42.91349999999999	0.0	+	6	verb	list	4	11	match	chasser	4	1	p	0.79261
43.29699999999999	0.0	+	6	verb	list	4	12	match	chasser	4	1	p	0.79261
45.2955	0.0	CHASSER	6	verb	list	4	13	match	chasser	4	1	p	0.79261
46.2622	0.0	+	6	verb	list	4	14	match	chasser	4	1	p	0.79261
46.08819999999999	0.0	[response]	6	verb	list	4	15	match	chasser	4	1	p	0.79261
47.6945	0.0	+	7	noun	list	4	1	nomatch	tablier	-1	1	y	1.242
48.2442	0.2	hlpzfg	7	noun	list	4	2	nomatch	tablier	-1	1	y	1.242
48.4441	0.0	+	7	noun	list	4	3	nomatch	tablier	-1	1	y	1.242
48.8439	0.2	sans	7	noun	list	4	4	nomatch	tablier	-1	1	y	1.242
49.0439	0.0	+	7	noun	list	4	5	nomatch	tablier	-1	1	y	1.242
49.4437	0.2	peut	7	noun	list	4	6	nomatch	tablier	-1	1	y	1.242
49.6436	0.0	+	7	noun	list	4	7	nomatch	tablier	-1	1	y	1.242
50.0435	0.2	sablier	7	noun	list	4	8	nomatch	tablier	-1	1	y	1.242
50.2437	0.0	+	7	noun	list	4	9	nomatch	tablier	-1	1	y	1.242
50.643899999999995	0.2	tôt	7	noun	list	4	10	nomatch	tablier	-1	1	y	1.242
50.8435	0.0	+	7	noun	list	4	11	nomatch	tablier	-1	1	y	1.242
51.2429	0.0	+	7	noun	list	4	12	nomatch	tablier	-1	1	y	1.242
53.242	0.0	TABLIER	7	noun	list	4	13	nomatch	tablier	-1	1	y	1.242
54.5414	0.0	+	7	noun	list	4	14	nomatch	tablier	-1	1	y	1.242
54.4839	0.0	[response]	7	noun	list	4	15	nomatch	tablier	-1	1	y	1.242
55.640899999999995	0.0	+	8	noun	phrase	2	1	match	panier	5	1	p	1.0896
56.190599999999996	0.2	rqzld	8	noun	phrase	2	2	match	panier	5	1	p	1.0896
56.390499999999996	0.0	+	8	noun	phrase	2	3	match	panier	5	1	p	1.0896
56.7904	0.2	lwsf	8	noun	phrase	2	4	match	panier	5	1	p	1.0896
56.9903	0.0	+	8	noun	phrase	2	5	match	panier	5	1	p	1.0896
57.3901	0.2	fzjl	8	noun	phrase	2	6	match	panier	5	1	p	1.0896
57.589999999999996	0.0	+	8	noun	phrase	2	7	match	panier	5	1	p	1.0896
57.989799999999995	0.2	beau	8	noun	phrase	2	8	match	panier	5	1	p	1.0896
58.189699999999995	0.0	+	8	noun	phrase	2	9	match	panier	5	1	p	1.0896
58.6068	0.2	panier	8	noun	phrase	2	10	match	panier	5	1	p	1.0896
58.7897	0.0	+	8	noun	phrase	2	11	match	panier	5	1	p	1.0896
59.189299999999996	0.0	+	8	noun	phrase	2	12	match	panier	5	1	p	1.0896
61.189	0.0	PANIER	8	noun	phrase	2	13	match	panier	5	1	p	1.0896
62.4385	0.0	+	8	noun	phrase	2	14	match	panier	5	1	p	1.0896
62.27869999999999	0.0	[response]	8	noun	phrase	2	15	match	panier	5	1	p	1.0896
63.58729999999999	0.0	+	9	verb	list	4	1	match	vert	5	1	p	0.8464900000000001
64.1371	0.2	zlgfjnk	9	verb	list	4	2	match	vert	5	1	p	0.8464900000000001
64.33699999999999	0.0	+	9	verb	list	4	3	match	vert	5	1	p	0.8464900000000001
64.73749999999998	0.2	luc	9	verb	list	4	4	match	vert	5	1	p	0.8464900000000001
64.95400000000001	0.0	+	9	verb	list	4	5	match	vert	5	1	p	0.8464900000000001
65.33680000000001	0.2	leur	9	verb	list	4	6	match	vert	5	1	p	0.8464900000000001
65.53649999999999	0.0	+	9	verb	list	4	7	match	vert	5	1	p	0.8464900000000001
65.9368	0.2	danser	9	verb	list	4	8	match	vert	5	1	p	0.8464900000000001
66.1362	0.0	+	9	verb	list	4	9	match	vert	5	1	p	0.8464900000000001
66.536	0.2	vert	9	verb	list	4	10	match	vert	5	1	p	0.8464900000000001
66.73589999999999	0.0	+	9	verb	list	4	11	match	vert	5	1	p	0.8464900000000001
67.13569999999999	0.0	+	9	verb	list	4	12	match	vert	5	1	p	0.8464900000000001
69.13499999999999	0.0	VERT	9	verb	list	4	13	match	vert	5	1	p	0.8464900000000001
70.0344	0.0	+	9	verb	list	4	14	match	vert	5	1	p	0.8464900000000001
69.98149999999998	0.0	[response]	9	verb	list	4	15	match	vert	5	1	p	0.8464900000000001
71.53370000000001	0.0	+	10	noun	list	1	1	nomatch	grenier	-1	1	y	1.1675
72.08359999999999	0.2	lvmg	10	noun	list	1	2	nomatch	grenier	-1	1	y	1.1675
72.30009999999999	0.0	+	10	noun	list	1	3	nomatch	grenier	-1	1	y	1.1675
72.7003	0.2	xpd	10	noun	list	1	4	nomatch	grenier	-1	1	y	1.1675
72.9	0.0	+	10	noun	list	1	5	nomatch	grenier	-1	1	y	1.1675
73.2996	0.2	zhcb	10	noun	list	1	6	nomatch	grenier	-1	1	y	1.1675
73.49949999999998	0.0	+	10	noun	list	1	7	nomatch	grenier	-1	1	y	1.1675
73.89930000000001	0.2	bznsg	10	noun	list	1	8	nomatch	grenier	-1	1	y	1.1675
74.0992	0.0	+	10	noun	list	1	9	nomatch	grenier	-1	1	y	1.1675
74.4991	0.2	rocher	10	noun	list	1	10	nomatch	grenier	-1	1	y	1.1675
74.69899999999998	0.0	+	10	noun	list	1	11	nomatch	grenier	-1	1	y	1.1675
75.09879999999998	0.0	+	10	noun	list	1	12	nomatch	grenier	-1	1	y	1.1675
77.09790000000001	0.0	GRENIER	10	noun	list	1	13	nomatch	grenier	-1	1	y	1.1675
78.33070000000001	0.0	+	10	noun	list	1	14	nomatch	grenier	-1	1	y	1.1675
78.2655	0.0	[response]	10	noun	list	1	15	nomatch	grenier	-1	1	y	1.1675
79.49680000000001	0.0	+	11	noun	list	2	1	match	tablier	4	1	p	0.5469
80.04660000000001	0.2	dmcjkz	11	noun	list	2	2	match	tablier	4	1	p	0.5469
80.2465	0.0	+	11	noun	list	2	3	match	tablier	4	1	p	0.5469
80.6463	0.2	pcms	11	noun	list	2	4	match	tablier	4	1	p	0.5469
80.84620000000001	0.0	+	11	noun	list	2	5	match	tablier	4	1	p	0.5469
81.24600000000001	0.2	bmjh	11	noun	list	2	6	match	tablier	4	1	p	0.5469
81.4459	0.0	+	11	noun	list	2	7	match	tablier	4	1	p	0.5469
81.8458	0.2	tablier	11	noun	list	2	8	match	tablier	4	1	p	0.5469
82.04570000000001	0.0	+	11	noun	list	2	9	match	tablier	4	1	p	0.5469
82.44550000000001	0.2	tôt	11	noun	list	2	10	match	tablier	4	1	p	0.5469
82.6454	0.0	+	11	noun	list	2	11	match	tablier	4	1	p	0.5469
83.0452	0.0	+	11	noun	list	2	12	match	tablier	4	1	p	0.5469
85.0615	0.0	TABLIER	11	noun	list	2	13	match	tablier	4	1	p	0.5469
85.67779999999999	0.0	+	11	noun	list	2	14	match	tablier	4	1	p	0.5469
85.60840000000002	0.0	[response]	11	noun	list	2	15	match	tablier	4	1	p	0.5469
95.53960000000001	0.0	+	12	verb	list	4	1	match	patiner	4	1	p	0.71979
95.99010000000001	0.2	vhdtqr	12	verb	list	4	2	match	patiner	4	1	p	0.71979
96.20670000000001	0.0	+	12	verb	list	4	3	match	patiner	4	1	p	0.71979
96.5891	0.2	adam	12	verb	list	4	4	match	patiner	4	1	p	0.71979
96.78900000000002	0.0	+	12	verb	list	4	5	match	patiner	4	1	p	0.71979
97.18889999999999	0.2	mon	12	verb	list	4	6	match	patiner	4	1	p	0.71979
97.3888	0.0	+	12	verb	list	4	7	match	patiner	4	1	p	0.71979
97.7886	0.2	patiner	12	verb	list	4	8	match	patiner	4	1	p	0.71979
97.98850000000002	0.0	+	12	verb	list	4	9	match	patiner	4	1	p	0.71979
98.38830000000002	0.2	rouge	12	verb	list	4	10	match	patiner	4	1	p	0.71979
98.5882	0.0	+	12	verb	list	4	11	match	patiner	4	1	p	0.71979
98.988	0.0	+	12	verb	list	4	12	match	patiner	4	1	p	0.71979
100.9878	0.0	PATINER	12	verb	list	4	13	match	patiner	4	1	p	0.71979
101.77010000000001	0.0	+	12	verb	list	4	14	match	patiner	4	1	p	0.71979
101.70760000000001	0.0	[response]	12	verb	list	4	15	match	patiner	4	1	p	0.71979
103.3861	0.0	+	13	noun	phrase	4	1	nomatch	moins	-1	1	y	0.69548
103.9358	0.2	xmfzbwq	13	noun	phrase	4	2	nomatch	moins	-1	1	y	0.69548
104.13570000000001	0.0	+	13	noun	phrase	4	3	nomatch	moins	-1	1	y	0.69548
104.53560000000002	0.2	sans	13	noun	phrase	4	4	nomatch	moins	-1	1	y	0.69548
104.7361	0.0	+	13	noun	phrase	4	5	nomatch	moins	-1	1	y	0.69548
105.13560000000001	0.2	son	13	noun	phrase	4	6	nomatch	moins	-1	1	y	0.69548
105.3356	0.0	+	13	noun	phrase	4	7	nomatch	moins	-1	1	y	0.69548
105.7354	0.2	grenier	13	noun	phrase	4	8	nomatch	moins	-1	1	y	0.69548
105.93549999999999	0.0	+	13	noun	phrase	4	9	nomatch	moins	-1	1	y	0.69548
106.3347	0.2	vert	13	noun	phrase	4	10	nomatch	moins	-1	1	y	0.69548
106.53470000000002	0.0	+	13	noun	phrase	4	11	nomatch	moins	-1	1	y	0.69548
106.93450000000001	0.0	+	13	noun	phrase	4	12	nomatch	moins	-1	1	y	0.69548
108.93360000000001	0.0	MOINS	13	noun	phrase	4	13	nomatch	moins	-1	1	y	0.69548
109.6832	0.0	+	13	noun	phrase	4	14	nomatch	moins	-1	1	y	0.69548
109.62899999999999	0.0	[response]	13	noun	phrase	4	15	nomatch	moins	-1	1	y	0.69548
111.3492	0.0	+	14	verb	phrase	2	1	match	ainsi	5	1	p	0.76758
111.8989	0.2	gwmvr	14	verb	phrase	2	2	match	ainsi	5	1	p	0.76758
112.09880000000001	0.0	+	14	verb	phrase	2	3	match	ainsi	5	1	p	0.76758
112.4992	0.2	sxpw	14	verb	phrase	2	4	match	ainsi	5	1	p	0.76758
112.7156	0.0	+	14	verb	phrase	2	5	match	ainsi	5	1	p	0.76758
113.0985	0.2	bmjh	14	verb	phrase	2	6	match	ainsi	5	1	p	0.76758
113.29830000000001	0.0	+	14	verb	phrase	2	7	match	ainsi	5	1	p	0.76758
113.69810000000001	0.2	jongler	14	verb	phrase	2	8	match	ainsi	5	1	p	0.76758
113.898	0.0	+	14	verb	phrase	2	9	match	ainsi	5	1	p	0.76758
114.2978	0.2	ainsi	14	verb	phrase	2	10	match	ainsi	5	1	p	0.76758
114.49770000000001	0.0	+	14	verb	phrase	2	11	match	ainsi	5	1	p	0.76758
114.89760000000001	0.0	+	14	verb	phrase	2	12	match	ainsi	5	1	p	0.76758
116.89670000000001	0.0	AINSI	14	verb	phrase	2	13	match	ainsi	5	1	p	0.76758
117.7296	0.0	+	14	verb	phrase	2	14	match	ainsi	5	1	p	0.76758
117.6642	0.0	[response]	14	verb	phrase	2	15	match	ainsi	5	1	p	0.76758
119.29560000000001	0.0	+	15	noun	phrase	3	1	nomatch	yves	-1	1	y	0.62031
119.84530000000001	0.2	bqdn	15	noun	phrase	3	2	nomatch	yves	-1	1	y	0.62031
120.0452	0.0	+	15	noun	phrase	3	3	nomatch	yves	-1	1	y	0.62031
120.4451	0.2	tdmv	15	noun	phrase	3	4	nomatch	yves	-1	1	y	0.62031
120.64500000000001	0.0	+	15	noun	phrase	3	5	nomatch	yves	-1	1	y	0.62031
121.0453	0.2	mon	15	noun	phrase	3	6	nomatch	yves	-1	1	y	0.62031
121.2618	0.0	+	15	noun	phrase	3	7	nomatch	yves	-1	1	y	0.62031
121.6445	0.2	casier	15	noun	phrase	3	8	nomatch	yves	-1	1	y	0.62031
121.8451	0.0	+	15	noun	phrase	3	9	nomatch	yves	-1	1	y	0.62031
122.2442	0.2	vert	15	noun	phrase	3	10	nomatch	yves	-1	1	y	0.62031
122.4442	0.0	+	15	noun	phrase	3	11	nomatch	yves	-1	1	y	0.62031
122.844	0.0	+	15	noun	phrase	3	12	nomatch	yves	-1	1	y	0.62031
124.84309999999999	0.0	YVES	15	noun	phrase	3	13	nomatch	yves	-1	1	y	0.62031
125.52610000000001	0.0	+	15	noun	phrase	3	14	nomatch	yves	-1	1	y	0.62031
125.46340000000004	0.0	[response]	15	noun	phrase	3	15	nomatch	yves	-1	1	y	0.62031
127.24199999999999	0.0	+	16	noun	phrase	3	1	match	son	3	1	p	0.75131
127.79169999999999	0.2	plmxt	16	noun	phrase	3	2	match	son	3	1	p	0.75131
127.99170000000001	0.0	+	16	noun	phrase	3	3	match	son	3	1	p	0.75131
128.3915	0.2	fcvw	16	noun	phrase	3	4	match	son	3	1	p	0.75131
128.5914	0.0	+	16	noun	phrase	3	5	match	son	3	1	p	0.75131
128.992	0.2	son	16	noun	phrase	3	6	match	son	3	1	p	0.75131
129.1917	0.0	+	16	noun	phrase	3	7	match	son	3	1	p	0.75131
129.5914	0.2	petit	16	noun	phrase	3	8	match	son	3	1	p	0.75131
129.80790000000002	0.0	+	16	noun	phrase	3	9	match	son	3	1	p	0.75131
130.1907	0.2	grenier	16	noun	phrase	3	10	match	son	3	1	p	0.75131
130.3906	0.0	+	16	noun	phrase	3	11	match	son	3	1	p	0.75131
130.7904	0.0	+	16	noun	phrase	3	12	match	son	3	1	p	0.75131
132.7902	0.0	SON	16	noun	phrase	3	13	match	son	3	1	p	0.75131
133.60580000000002	0.0	+	16	noun	phrase	3	14	match	son	3	1	p	0.75131
133.54150000000004	0.0	[response]	16	noun	phrase	3	15	match	son	3	1	p	0.75131
135.1884	0.0	+	17	noun	list	4	1	match	peut	3	1	p	1.2015
135.7388	0.2	slbcjk	17	noun	list	4	2	match	peut	3	1	p	1.2015
135.93880000000001	0.0	+	17	noun	list	4	3	match	peut	3	1	p	1.2015
136.338	0.2	avec	17	noun	list	4	4	match	peut	3	1	p	1.2015
136.5384	0.0	+	17	noun	list	4	5	match	peut	3	1	p	1.2015
136.9382	0.2	peut	17	noun	list	4	6	match	peut	3	1	p	1.2015
137.1376	0.0	+	17	noun	list	4	7	match	peut	3	1	p	1.2015
137.5374	0.2	panier	17	noun	list	4	8	match	peut	3	1	p	1.2015
137.7373	0.0	+	17	noun	list	4	9	match	peut	3	1	p	1.2015
138.1371	0.2	ainsi	17	noun	list	4	10	match	peut	3	1	p	1.2015
138.33700000000002	0.0	+	17	noun	list	4	11	match	peut	3	1	p	1.2015
138.73680000000002	0.0	+	17	noun	list	4	12	match	peut	3	1	p	1.2015
140.73590000000002	0.0	PEUT	17	noun	list	4	13	match	peut	3	1	p	1.2015
142.002	0.0	+	17	noun	list	4	14	match	peut	3	1	p	1.2015
141.9374	0.0	[response]	17	noun	list	4	15	match	peut	3	1	p	1.2015
143.13490000000002	0.0	+	18	noun	phrase	1	1	match	cendrier	5	1	p	0.81117
143.68460000000002	0.2	xwkzjs	18	noun	phrase	1	2	match	cendrier	5	1	p	0.81117
143.8845	0.0	+	18	noun	phrase	1	3	match	cendrier	5	1	p	0.81117
144.2843	0.2	lwsf	18	noun	phrase	1	4	match	cendrier	5	1	p	0.81117
144.48420000000002	0.0	+	18	noun	phrase	1	5	match	cendrier	5	1	p	0.81117
144.8846	0.2	fzjl	18	noun	phrase	1	6	match	cendrier	5	1	p	0.81117
145.084	0.0	+	18	noun	phrase	1	7	match	cendrier	5	1	p	0.81117
145.4844	0.2	vdtj	18	noun	phrase	1	8	match	cendrier	5	1	p	0.81117
145.6839	0.0	+	18	noun	phrase	1	9	match	cendrier	5	1	p	0.81117
146.1003	0.2	cendrier	18	noun	phrase	1	10	match	cendrier	5	1	p	0.81117
146.30010000000001	0.0	+	18	noun	phrase	1	11	match	cendrier	5	1	p	0.81117
146.6999	0.0	+	18	noun	phrase	1	12	match	cendrier	5	1	p	0.81117
148.699	0.0	CENDRIER	18	noun	phrase	1	13	match	cendrier	5	1	p	0.81117
149.5653	0.0	+	18	noun	phrase	1	14	match	cendrier	5	1	p	0.81117
149.51020000000003	0.0	[response]	18	noun	phrase	1	15	match	cendrier	5	1	p	0.81117
151.0979	0.0	+	19	noun	list	2	1	nomatch	moins	-1	1	y	0.59651
151.64770000000001	0.2	jgpkdwb	19	noun	list	2	2	nomatch	moins	-1	1	y	0.59651
151.8476	0.0	+	19	noun	list	2	3	nomatch	moins	-1	1	y	0.59651
152.2474	0.2	ckf	19	noun	list	2	4	nomatch	moins	-1	1	y	0.59651
152.4473	0.0	+	19	noun	list	2	5	nomatch	moins	-1	1	y	0.59651
152.84720000000002	0.2	ncb	19	noun	list	2	6	nomatch	moins	-1	1	y	0.59651
153.0471	0.0	+	19	noun	list	2	7	nomatch	moins	-1	1	y	0.59651
153.4469	0.2	plus	19	noun	list	2	8	nomatch	moins	-1	1	y	0.59651
153.6468	0.0	+	19	noun	list	2	9	nomatch	moins	-1	1	y	0.59651
154.0639	0.2	sablier	19	noun	list	2	10	nomatch	moins	-1	1	y	0.59651
154.247	0.0	+	19	noun	list	2	11	nomatch	moins	-1	1	y	0.59651
154.6636	0.0	+	19	noun	list	2	12	nomatch	moins	-1	1	y	0.59651
156.6624	0.0	MOINS	19	noun	list	2	13	nomatch	moins	-1	1	y	0.59651
157.3784	0.0	+	19	noun	list	2	14	nomatch	moins	-1	1	y	0.59651
157.25890000000004	0.0	[response]	19	noun	list	2	15	nomatch	moins	-1	1	y	0.59651
159.0444	0.0	+	20	noun	phrase	4	1	nomatch	noir	-1	1	y	0.65433
159.5941	0.2	cfds	20	noun	phrase	4	2	nomatch	noir	-1	1	y	0.65433
159.794	0.0	+	20	noun	phrase	4	3	nomatch	noir	-1	1	y	0.65433
160.1938	0.2	sous	20	noun	phrase	4	4	nomatch	noir	-1	1	y	0.65433
160.3938	0.0	+	20	noun	phrase	4	5	nomatch	noir	-1	1	y	0.65433
160.7936	0.2	leur	20	noun	phrase	4	6	nomatch	noir	-1	1	y	0.65433
160.9939	0.0	+	20	noun	phrase	4	7	nomatch	noir	-1	1	y	0.65433
161.394	0.2	rocher	20	noun	phrase	4	8	nomatch	noir	-1	1	y	0.65433
161.59380000000002	0.0	+	20	noun	phrase	4	9	nomatch	noir	-1	1	y	0.65433
161.9933	0.2	vert	20	noun	phrase	4	10	nomatch	noir	-1	1	y	0.65433
162.1936	0.0	+	20	noun	phrase	4	11	nomatch	noir	-1	1	y	0.65433
162.5928	0.0	+	20	noun	phrase	4	12	nomatch	noir	-1	1	y	0.65433
164.5919	0.0	NOIR	20	noun	phrase	4	13	nomatch	noir	-1	1	y	0.65433
165.3082	0.0	+	20	noun	phrase	4	14	nomatch	noir	-1	1	y	0.65433
165.24620000000002	0.0	[response]	20	noun	phrase	4	15	nomatch	noir	-1	1	y	0.65433
166.9908	0.0	+	21	noun	list	1	1	match	boîtier	5	1	p	0.5533000000000001
167.5405	0.2	hcjzbf	21	noun	list	1	2	match	boîtier	5	1	p	0.5533000000000001
167.7405	0.0	+	21	noun	list	1	3	match	boîtier	5	1	p	0.5533000000000001
168.1403	0.2	pcms	21	noun	list	1	4	match	boîtier	5	1	p	0.5533000000000001
168.3402	0.0	+	21	noun	list	1	5	match	boîtier	5	1	p	0.5533000000000001
168.74	0.2	bmjh	21	noun	list	1	6	match	boîtier	5	1	p	0.5533000000000001
168.9403	0.0	+	21	noun	list	1	7	match	boîtier	5	1	p	0.5533000000000001
169.3401	0.2	pnk	21	noun	list	1	8	match	boîtier	5	1	p	0.5533000000000001
169.53990000000002	0.0	+	21	noun	list	1	9	match	boîtier	5	1	p	0.5533000000000001
169.9402	0.2	boîtier	21	noun	list	1	10	match	boîtier	5	1	p	0.5533000000000001
170.1394	0.0	+	21	noun	list	1	11	match	boîtier	5	1	p	0.5533000000000001
170.5392	0.0	+	21	noun	list	1	12	match	boîtier	5	1	p	0.5533000000000001
172.5385	0.0	BOÎTIER	21	noun	list	1	13	match	boîtier	5	1	p	0.5533000000000001
173.1547	0.0	+	21	noun	list	1	14	match	boîtier	5	1	p	0.5533000000000001
173.0918	0.0	[response]	21	noun	list	1	15	match	boîtier	5	1	p	0.5533000000000001
174.9372	0.0	+	22	noun	phrase	1	1	nomatch	son	-1	1	y	0.56902
175.4877	0.2	dlxvkp	22	noun	phrase	1	2	nomatch	son	-1	1	y	0.56902
175.6874	0.0	+	22	noun	phrase	1	3	nomatch	son	-1	1	y	0.56902
176.0869	0.2	gfws	22	noun	phrase	1	4	nomatch	son	-1	1	y	0.56902
176.2872	0.0	+	22	noun	phrase	1	5	nomatch	son	-1	1	y	0.56902
176.6864	0.2	ncb	22	noun	phrase	1	6	nomatch	son	-1	1	y	0.56902
176.8863	0.0	+	22	noun	phrase	1	7	nomatch	son	-1	1	y	0.56902
177.2862	0.2	qmkf	22	noun	phrase	1	8	nomatch	son	-1	1	y	0.56902
177.4861	0.0	+	22	noun	phrase	1	9	nomatch	son	-1	1	y	0.56902
177.886	0.2	grenier	22	noun	phrase	1	10	nomatch	son	-1	1	y	0.56902
178.0858	0.0	+	22	noun	phrase	1	11	nomatch	son	-1	1	y	0.56902
178.4856	0.0	+	22	noun	phrase	1	12	nomatch	son	-1	1	y	0.56902
180.502	0.0	SON	22	noun	phrase	1	13	nomatch	son	-1	1	y	0.56902
181.2183	0.0	+	22	noun	phrase	1	14	nomatch	son	-1	1	y	0.56902
181.0711	0.0	[response]	22	noun	phrase	1	15	nomatch	son	-1	1	y	0.56902
182.8836	0.0	+	23	noun	phrase	4	1	match	noir	5	1	p	0.6188300000000001
183.4501	0.2	bvhfl	23	noun	phrase	4	2	match	noir	5	1	p	0.6188300000000001
183.65	0.0	+	23	noun	phrase	4	3	match	noir	5	1	p	0.6188300000000001
184.0498	0.2	sans	23	noun	phrase	4	4	match	noir	5	1	p	0.6188300000000001
184.2497	0.0	+	23	noun	phrase	4	5	match	noir	5	1	p	0.6188300000000001
184.64950000000002	0.2	leur	23	noun	phrase	4	6	match	noir	5	1	p	0.6188300000000001
184.8495	0.0	+	23	noun	phrase	4	7	match	noir	5	1	p	0.6188300000000001
185.2665	0.2	casier	23	noun	phrase	4	8	match	noir	5	1	p	0.6188300000000001
185.4496	0.0	+	23	noun	phrase	4	9	match	noir	5	1	p	0.6188300000000001
185.84900000000002	0.2	noir	23	noun	phrase	4	10	match	noir	5	1	p	0.6188300000000001
186.0495	0.0	+	23	noun	phrase	4	11	match	noir	5	1	p	0.6188300000000001
186.4487	0.0	+	23	noun	phrase	4	12	match	noir	5	1	p	0.6188300000000001
188.4478	0.0	NOIR	23	noun	phrase	4	13	match	noir	5	1	p	0.6188300000000001
189.1308	0.0	+	23	noun	phrase	4	14	match	noir	5	1	p	0.6188300000000001
189.06660000000002	0.0	[response]	23	noun	phrase	4	15	match	noir	5	1	p	0.6188300000000001
190.8467	0.0	+	24	noun	list	3	1	match	mon	3	1	p	0.6920000000000001
191.3965	0.2	rntx	24	noun	list	3	2	match	mon	3	1	p	0.6920000000000001
191.59640000000002	0.0	+	24	noun	list	3	3	match	mon	3	1	p	0.6920000000000001
191.99620000000002	0.2	qskv	24	noun	list	3	4	match	mon	3	1	p	0.6920000000000001
192.1961	0.0	+	24	noun	list	3	5	match	mon	3	1	p	0.6920000000000001
192.5966	0.2	mon	24	noun	list	3	6	match	mon	3	1	p	0.6920000000000001
192.796	0.0	+	24	noun	list	3	7	match	mon	3	1	p	0.6920000000000001
193.1961	0.2	beaucoup	24	noun	list	3	8	match	mon	3	1	p	0.6920000000000001
193.3957	0.0	+	24	noun	list	3	9	match	mon	3	1	p	0.6920000000000001
193.79590000000002	0.2	grenier	24	noun	list	3	10	match	mon	3	1	p	0.6920000000000001
193.99530000000001	0.0	+	24	noun	list	3	11	match	mon	3	1	p	0.6920000000000001
194.3951	0.0	+	24	noun	list	3	12	match	mon	3	1	p	0.6920000000000001
196.3942	0.0	MON	24	noun	list	3	13	match	mon	3	1	p	0.6920000000000001
197.26080000000002	0.0	+	24	noun	list	3	14	match	mon	3	1	p	0.6920000000000001
197.0862	0.0	[response]	24	noun	list	3	15	match	mon	3	1	p	0.6920000000000001
198.7931	0.0	+	25	verb	phrase	3	1	match	jongler	5	1	p	0.79652
199.34290000000001	0.2	chbw	25	verb	phrase	3	2	match	jongler	5	1	p	0.79652
199.5428	0.0	+	25	verb	phrase	3	3	match	jongler	5	1	p	0.79652
199.9427	0.2	wcxg	25	verb	phrase	3	4	match	jongler	5	1	p	0.79652
200.1432	0.0	+	25	verb	phrase	3	5	match	jongler	5	1	p	0.79652
200.5427	0.2	va	25	verb	phrase	3	6	match	jongler	5	1	p	0.79652
200.7425	0.0	+	25	verb	phrase	3	7	match	jongler	5	1	p	0.79652
201.1421	0.2	moins	25	verb	phrase	3	8	match	jongler	5	1	p	0.79652
201.342	0.0	+	25	verb	phrase	3	9	match	jongler	5	1	p	0.79652
201.7418	0.2	jongler	25	verb	phrase	3	10	match	jongler	5	1	p	0.79652
201.9417	0.0	+	25	verb	phrase	3	11	match	jongler	5	1	p	0.79652
202.3416	0.0	+	25	verb	phrase	3	12	match	jongler	5	1	p	0.79652
204.3411	0.0	JONGLER	25	verb	phrase	3	13	match	jongler	5	1	p	0.79652
205.1903	0.0	+	25	verb	phrase	3	14	match	jongler	5	1	p	0.79652
205.1376	0.0	[response]	25	verb	phrase	3	15	match	jongler	5	1	p	0.79652
222.749	0.0	+	26	verb	list	3	1	match	leur	3	1	p	0.66012
223.2988	0.2	rhnwjtz	26	verb	list	3	2	match	leur	3	1	p	0.66012
223.4987	0.0	+	26	verb	list	3	3	match	leur	3	1	p	0.66012
223.89849999999998	0.2	ckf	26	verb	list	3	4	match	leur	3	1	p	0.66012
224.0984	0.0	+	26	verb	list	3	5	match	leur	3	1	p	0.66012
224.49820000000003	0.2	leur	26	verb	list	3	6	match	leur	3	1	p	0.66012
224.69809999999998	0.0	+	26	verb	list	3	7	match	leur	3	1	p	0.66012
225.09799999999998	0.2	danser	26	verb	list	3	8	match	leur	3	1	p	0.66012
225.2984	0.0	+	26	verb	list	3	9	match	leur	3	1	p	0.66012
225.71490000000003	0.2	bleu	26	verb	list	3	10	match	leur	3	1	p	0.66012
225.89759999999998	0.0	+	26	verb	list	3	11	match	leur	3	1	p	0.66012
226.2974	0.0	+	26	verb	list	3	12	match	leur	3	1	p	0.66012
228.2965	0.0	LEUR	26	verb	list	3	13	match	leur	3	1	p	0.66012
229.01290000000003	0.0	+	26	verb	list	3	14	match	leur	3	1	p	0.66012
228.95669999999998	0.0	[response]	26	verb	list	3	15	match	leur	3	1	p	0.66012
230.69539999999998	0.0	+	27	noun	list	3	1	nomatch	pour	-1	1	y	0.68996
231.24519999999998	0.2	qczmglw	27	noun	list	3	2	nomatch	pour	-1	1	y	0.68996
231.4451	0.0	+	27	noun	list	3	3	nomatch	pour	-1	1	y	0.68996
231.845	0.2	tdmv	27	noun	list	3	4	nomatch	pour	-1	1	y	0.68996
232.04479999999998	0.0	+	27	noun	list	3	5	nomatch	pour	-1	1	y	0.68996
232.44469999999998	0.2	va	27	noun	list	3	6	nomatch	pour	-1	1	y	0.68996
232.6613	0.0	+	27	noun	list	3	7	nomatch	pour	-1	1	y	0.68996
233.045	0.2	cendrier	27	noun	list	3	8	nomatch	pour	-1	1	y	0.68996
233.24460000000002	0.0	+	27	noun	list	3	9	nomatch	pour	-1	1	y	0.68996
233.6441	0.2	vite	27	noun	list	3	10	nomatch	pour	-1	1	y	0.68996
233.84459999999999	0.0	+	27	noun	list	3	11	nomatch	pour	-1	1	y	0.68996
234.24390000000002	0.0	+	27	noun	list	3	12	nomatch	pour	-1	1	y	0.68996
236.2433	0.0	POUR	27	noun	list	3	13	nomatch	pour	-1	1	y	0.68996
237.06000000000003	0.0	+	27	noun	list	3	14	nomatch	pour	-1	1	y	0.68996
236.9333	0.0	[response]	27	noun	list	3	15	nomatch	pour	-1	1	y	0.68996
238.6419	0.0	+	28	verb	list	2	1	nomatch	ainsi	-1	1	y	0.53709
239.19160000000002	0.2	chl	28	verb	list	2	2	nomatch	ainsi	-1	1	y	0.53709
239.3916	0.0	+	28	verb	list	2	3	nomatch	ainsi	-1	1	y	0.53709
239.79170000000002	0.2	bgmp	28	verb	list	2	4	nomatch	ainsi	-1	1	y	0.53709
239.992	0.0	+	28	verb	list	2	5	nomatch	ainsi	-1	1	y	0.53709
240.3917	0.2	fzjl	28	verb	list	2	6	nomatch	ainsi	-1	1	y	0.53709
240.59130000000002	0.0	+	28	verb	list	2	7	nomatch	ainsi	-1	1	y	0.53709
240.991	0.2	jongler	28	verb	list	2	8	nomatch	ainsi	-1	1	y	0.53709
241.19070000000002	0.0	+	28	verb	list	2	9	nomatch	ainsi	-1	1	y	0.53709
241.5905	0.2	noir	28	verb	list	2	10	nomatch	ainsi	-1	1	y	0.53709
241.79049999999998	0.0	+	28	verb	list	2	11	nomatch	ainsi	-1	1	y	0.53709
242.1903	0.0	+	28	verb	list	2	12	nomatch	ainsi	-1	1	y	0.53709
244.1894	0.0	AINSI	28	verb	list	2	13	nomatch	ainsi	-1	1	y	0.53709
244.7891	0.0	+	28	verb	list	2	14	nomatch	ainsi	-1	1	y	0.53709
244.72650000000002	0.0	[response]	28	verb	list	2	15	nomatch	ainsi	-1	1	y	0.53709
246.58829999999998	0.0	+	29	verb	phrase	1	1	match	tôt	5	1	p	0.45832
247.13809999999998	0.2	zskdh	29	verb	phrase	1	2	match	tôt	5	1	p	0.45832
247.338	0.0	+	29	verb	phrase	1	3	match	tôt	5	1	p	0.45832
247.73780000000002	0.2	ckf	29	verb	phrase	1	4	match	tôt	5	1	p	0.45832
247.9383	0.0	+	29	verb	phrase	1	5	match	tôt	5	1	p	0.45832
248.3375	0.2	ns	29	verb	phrase	1	6	match	tôt	5	1	p	0.45832
248.53740000000002	0.0	+	29	verb	phrase	1	7	match	tôt	5	1	p	0.45832
248.9372	0.2	hkmwrl	29	verb	phrase	1	8	match	tôt	5	1	p	0.45832
249.13719999999998	0.0	+	29	verb	phrase	1	9	match	tôt	5	1	p	0.45832
249.537	0.2	tôt	29	verb	phrase	1	10	match	tôt	5	1	p	0.45832
249.73690000000002	0.0	+	29	verb	phrase	1	11	match	tôt	5	1	p	0.45832
250.1367	0.0	+	29	verb	phrase	1	12	match	tôt	5	1	p	0.45832
252.1358	0.0	TÔT	29	verb	phrase	1	13	match	tôt	5	1	p	0.45832
252.65220000000002	0.0	+	29	verb	phrase	1	14	match	tôt	5	1	p	0.45832
252.5941	0.0	[response]	29	verb	phrase	1	15	match	tôt	5	1	p	0.45832
254.53470000000002	0.0	+	30	verb	list	4	1	nomatch	va	-1	1	y	0.80611
255.08450000000002	0.2	cznblrk	30	verb	list	4	2	nomatch	va	-1	1	y	0.80611
255.28439999999998	0.0	+	30	verb	list	4	3	nomatch	va	-1	1	y	0.80611
255.6842	0.2	jade	30	verb	list	4	4	nomatch	va	-1	1	y	0.80611
255.8842	0.0	+	30	verb	list	4	5	nomatch	va	-1	1	y	0.80611
256.2847	0.2	leur	30	verb	list	4	6	nomatch	va	-1	1	y	0.80611
256.4844	0.0	+	30	verb	list	4	7	nomatch	va	-1	1	y	0.80611
256.8839	0.2	jongler	30	verb	list	4	8	nomatch	va	-1	1	y	0.80611
257.0836	0.0	+	30	verb	list	4	9	nomatch	va	-1	1	y	0.80611
257.5001	0.2	bleu	30	verb	list	4	10	nomatch	va	-1	1	y	0.80611
257.7	0.0	+	30	verb	list	4	11	nomatch	va	-1	1	y	0.80611
258.09979999999996	0.0	+	30	verb	list	4	12	nomatch	va	-1	1	y	0.80611
260.09889999999996	0.0	VA	30	verb	list	4	13	nomatch	va	-1	1	y	0.80611
261.0659	0.0	+	30	verb	list	4	14	nomatch	va	-1	1	y	0.80611
260.90500000000003	0.0	[response]	30	verb	list	4	15	nomatch	va	-1	1	y	0.80611
270.4942	0.0	+	31	noun	phrase	1	1	nomatch	sablier	-1	1	y	0.76968
271.0444	0.2	qfjnkl	31	noun	phrase	1	2	nomatch	sablier	-1	1	y	0.76968
271.2609	0.0	+	31	noun	phrase	1	3	nomatch	sablier	-1	1	y	0.76968
271.64419999999996	0.2	xpd	31	noun	phrase	1	4	nomatch	sablier	-1	1	y	0.76968
271.8442	0.0	+	31	noun	phrase	1	5	nomatch	sablier	-1	1	y	0.76968
272.24339999999995	0.2	fzjl	31	noun	phrase	1	6	nomatch	sablier	-1	1	y	0.76968
272.44329999999997	0.0	+	31	noun	phrase	1	7	nomatch	sablier	-1	1	y	0.76968
272.84319999999997	0.2	rnhfxqj	31	noun	phrase	1	8	nomatch	sablier	-1	1	y	0.76968
273.0431	0.0	+	31	noun	phrase	1	9	nomatch	sablier	-1	1	y	0.76968
273.44289999999995	0.2	grenier	31	noun	phrase	1	10	nomatch	sablier	-1	1	y	0.76968
273.64279999999997	0.0	+	31	noun	phrase	1	11	nomatch	sablier	-1	1	y	0.76968
274.0426	0.0	+	31	noun	phrase	1	12	nomatch	sablier	-1	1	y	0.76968
276.0417	0.0	SABLIER	31	noun	phrase	1	13	nomatch	sablier	-1	1	y	0.76968
276.87469999999996	0.0	+	31	noun	phrase	1	14	nomatch	sablier	-1	1	y	0.76968
276.8114	0.0	[response]	31	noun	phrase	1	15	nomatch	sablier	-1	1	y	0.76968
286.43699999999995	0.0	+	32	noun	list	1	1	nomatch	petit	-1	1	y	1.0186
286.98679999999996	0.2	bhvd	32	noun	list	1	2	nomatch	petit	-1	1	y	1.0186
287.1867	0.0	+	32	noun	list	1	3	nomatch	petit	-1	1	y	1.0186
287.5865	0.2	tdmv	32	noun	list	1	4	nomatch	petit	-1	1	y	1.0186
287.78639999999996	0.0	+	32	noun	list	1	5	nomatch	petit	-1	1	y	1.0186
288.18679999999995	0.2	ns	32	noun	list	1	6	nomatch	petit	-1	1	y	1.0186
288.3866	0.0	+	32	noun	list	1	7	nomatch	petit	-1	1	y	1.0186
288.8028	0.2	hkrm	32	noun	list	1	8	nomatch	petit	-1	1	y	1.0186
288.98589999999996	0.0	+	32	noun	list	1	9	nomatch	petit	-1	1	y	1.0186
289.3857	0.2	cendrier	32	noun	list	1	10	nomatch	petit	-1	1	y	1.0186
289.5856	0.0	+	32	noun	list	1	11	nomatch	petit	-1	1	y	1.0186
289.98539999999997	0.0	+	32	noun	list	1	12	nomatch	petit	-1	1	y	1.0186
291.9846	0.0	PETIT	32	noun	list	1	13	nomatch	petit	-1	1	y	1.0186
293.06739999999996	0.0	+	32	noun	list	1	14	nomatch	petit	-1	1	y	1.0186
293.0032	0.0	[response]	32	noun	list	1	15	nomatch	petit	-1	1	y	1.0186
294.38349999999997	0.0	+	33	verb	list	1	1	nomatch	patiner	-1	1	y	0.53192
294.94989999999996	0.2	xtrfzgn	33	verb	list	1	2	nomatch	patiner	-1	1	y	0.53192
295.14979999999997	0.0	+	33	verb	list	1	3	nomatch	patiner	-1	1	y	0.53192
295.5496	0.2	lwsf	33	verb	list	1	4	nomatch	patiner	-1	1	y	0.53192
295.74949999999995	0.0	+	33	verb	list	1	5	nomatch	patiner	-1	1	y	0.53192
296.14959999999996	0.2	bmjh	33	verb	list	1	6	nomatch	patiner	-1	1	y	0.53192
296.3494	0.0	+	33	verb	list	1	7	nomatch	patiner	-1	1	y	0.53192
296.74949999999995	0.2	whdml	33	verb	list	1	8	nomatch	patiner	-1	1	y	0.53192
296.94919999999996	0.0	+	33	verb	list	1	9	nomatch	patiner	-1	1	y	0.53192
297.3488	0.2	voyager	33	verb	list	1	10	nomatch	patiner	-1	1	y	0.53192
297.5487	0.0	+	33	verb	list	1	11	nomatch	patiner	-1	1	y	0.53192
297.94849999999997	0.0	+	33	verb	list	1	12	nomatch	patiner	-1	1	y	0.53192
299.94759999999997	0.0	PATINER	33	verb	list	1	13	nomatch	patiner	-1	1	y	0.53192
300.53069999999997	0.0	+	33	verb	list	1	14	nomatch	patiner	-1	1	y	0.53192
300.4796	0.0	[response]	33	verb	list	1	15	nomatch	patiner	-1	1	y	0.53192
302.34659999999997	0.0	+	34	noun	phrase	2	1	nomatch	vert	-1	1	y	0.59473
302.8966	0.2	lxqtgrm	34	noun	phrase	2	2	nomatch	vert	-1	1	y	0.59473
303.09619999999995	0.0	+	34	noun	phrase	2	3	nomatch	vert	-1	1	y	0.59473
303.496	0.2	tdmv	34	noun	phrase	2	4	nomatch	vert	-1	1	y	0.59473
303.7129	0.0	+	34	noun	phrase	2	5	nomatch	vert	-1	1	y	0.59473
304.0965	0.2	ncb	34	noun	phrase	2	6	nomatch	vert	-1	1	y	0.59473
304.31289999999996	0.0	+	34	noun	phrase	2	7	nomatch	vert	-1	1	y	0.59473
304.69579999999996	0.2	cendrier	34	noun	phrase	2	8	nomatch	vert	-1	1	y	0.59473
304.8961	0.0	+	34	noun	phrase	2	9	nomatch	vert	-1	1	y	0.59473
305.29519999999997	0.2	rouge	34	noun	phrase	2	10	nomatch	vert	-1	1	y	0.59473
305.4951	0.0	+	34	noun	phrase	2	11	nomatch	vert	-1	1	y	0.59473
305.895	0.0	+	34	noun	phrase	2	12	nomatch	vert	-1	1	y	0.59473
307.8941	0.0	VERT	34	noun	phrase	2	13	nomatch	vert	-1	1	y	0.59473
308.5438	0.0	+	34	noun	phrase	2	14	nomatch	vert	-1	1	y	0.59473
308.48879999999997	0.0	[response]	34	noun	phrase	2	15	nomatch	vert	-1	1	y	0.59473
318.3234	0.0	+	35	noun	list	2	1	match	rocher	4	1	p	0.63352
318.83919999999995	0.2	mvlfckp	35	noun	list	2	2	match	rocher	4	1	p	0.63352
319.03909999999996	0.0	+	35	noun	list	2	3	match	rocher	4	1	p	0.63352
319.4389	0.2	pcms	35	noun	list	2	4	match	rocher	4	1	p	0.63352
319.6388	0.0	+	35	noun	list	2	5	match	rocher	4	1	p	0.63352
320.0386	0.2	zhcb	35	noun	list	2	6	match	rocher	4	1	p	0.63352
320.2385	0.0	+	35	noun	list	2	7	match	rocher	4	1	p	0.63352
320.63829999999996	0.2	rocher	35	noun	list	2	8	match	rocher	4	1	p	0.63352
320.8382	0.0	+	35	noun	list	2	9	match	rocher	4	1	p	0.63352
321.2381	0.2	tard	35	noun	list	2	10	match	rocher	4	1	p	0.63352
321.438	0.0	+	35	noun	list	2	11	match	rocher	4	1	p	0.63352
321.83779999999996	0.0	+	35	noun	list	2	12	match	rocher	4	1	p	0.63352
323.83689999999996	0.0	ROCHER	35	noun	list	2	13	match	rocher	4	1	p	0.63352
324.53659999999996	0.0	+	35	noun	list	2	14	match	rocher	4	1	p	0.63352
324.4704	0.0	[response]	35	noun	list	2	15	match	rocher	4	1	p	0.63352
326.2358	0.0	+	36	verb	list	3	1	nomatch	tôt	-1	1	y	0.68393
326.7856	0.2	dhmvn	36	verb	list	3	2	nomatch	tôt	-1	1	y	0.68393
326.9855	0.0	+	36	verb	list	3	3	nomatch	tôt	-1	1	y	0.68393
327.3853	0.2	gmcl	36	verb	list	3	4	nomatch	tôt	-1	1	y	0.68393
327.5852	0.0	+	36	verb	list	3	5	nomatch	tôt	-1	1	y	0.68393
327.98499999999996	0.2	doit	36	verb	list	3	6	nomatch	tôt	-1	1	y	0.68393
328.18489999999997	0.0	+	36	verb	list	3	7	nomatch	tôt	-1	1	y	0.68393
328.58489999999995	0.2	beau	36	verb	list	3	8	nomatch	tôt	-1	1	y	0.68393
328.78479999999996	0.0	+	36	verb	list	3	9	nomatch	tôt	-1	1	y	0.68393
329.18449999999996	0.2	parader	36	verb	list	3	10	nomatch	tôt	-1	1	y	0.68393
329.38439999999997	0.0	+	36	verb	list	3	11	nomatch	tôt	-1	1	y	0.68393
329.7842	0.0	+	36	verb	list	3	12	nomatch	tôt	-1	1	y	0.68393
331.8005	0.0	TÔT	36	verb	list	3	13	nomatch	tôt	-1	1	y	0.68393
332.5496	0.0	+	36	verb	list	3	14	nomatch	tôt	-1	1	y	0.68393
332.48440000000005	0.0	[response]	36	verb	list	3	15	nomatch	tôt	-1	1	y	0.68393
334.1989	0.0	+	37	noun	phrase	1	1	match	blanc	5	1	p	0.48446
334.74899999999997	0.2	rqt	37	noun	phrase	1	2	match	blanc	5	1	p	0.48446
334.9656	0.0	+	37	noun	phrase	1	3	match	blanc	5	1	p	0.48446
335.34839999999997	0.2	fcvw	37	noun	phrase	1	4	match	blanc	5	1	p	0.48446
335.5489	0.0	+	37	noun	phrase	1	5	match	blanc	5	1	p	0.48446
335.94849999999997	0.2	ncb	37	noun	phrase	1	6	match	blanc	5	1	p	0.48446
336.14799999999997	0.0	+	37	noun	phrase	1	7	match	blanc	5	1	p	0.48446
336.5478	0.2	srpmjfb	37	noun	phrase	1	8	match	blanc	5	1	p	0.48446
336.74769999999995	0.0	+	37	noun	phrase	1	9	match	blanc	5	1	p	0.48446
337.14759999999995	0.2	blanc	37	noun	phrase	1	10	match	blanc	5	1	p	0.48446
337.34749999999997	0.0	+	37	noun	phrase	1	11	match	blanc	5	1	p	0.48446
337.7473	0.0	+	37	noun	phrase	1	12	match	blanc	5	1	p	0.48446
339.7464	0.0	BLANC	37	noun	phrase	1	13	match	blanc	5	1	p	0.48446
340.29609999999997	0.0	+	37	noun	phrase	1	14	match	blanc	5	1	p	0.48446
340.2308	0.0	[response]	37	noun	phrase	1	15	match	blanc	5	1	p	0.48446
342.14529999999996	0.0	+	38	noun	phrase	2	1	match	rouge	5	1	p	0.49232
342.69509999999997	0.2	hstr	38	noun	phrase	2	2	match	rouge	5	1	p	0.49232
342.895	0.0	+	38	noun	phrase	2	3	match	rouge	5	1	p	0.49232
343.29479999999995	0.2	gfws	38	noun	phrase	2	4	match	rouge	5	1	p	0.49232
343.49469999999997	0.0	+	38	noun	phrase	2	5	match	rouge	5	1	p	0.49232
343.8945	0.2	fzjl	38	noun	phrase	2	6	match	rouge	5	1	p	0.49232
344.09439999999995	0.0	+	38	noun	phrase	2	7	match	rouge	5	1	p	0.49232
344.4949	0.2	casier	38	noun	phrase	2	8	match	rouge	5	1	p	0.49232
344.71099999999996	0.0	+	38	noun	phrase	2	9	match	rouge	5	1	p	0.49232
345.09459999999996	0.2	rouge	38	noun	phrase	2	10	match	rouge	5	1	p	0.49232
345.29389999999995	0.0	+	38	noun	phrase	2	11	match	rouge	5	1	p	0.49232
345.6937	0.0	+	38	noun	phrase	2	12	match	rouge	5	1	p	0.49232
347.6935	0.0	ROUGE	38	noun	phrase	2	13	match	rouge	5	1	p	0.49232
348.2426	0.0	+	38	noun	phrase	2	14	match	rouge	5	1	p	0.49232
348.1858	0.0	[response]	38	noun	phrase	2	15	match	rouge	5	1	p	0.49232
350.0917	0.0	+	39	noun	list	1	1	nomatch	vite	-1	1	y	0.65768
350.64149999999995	0.2	gqtmk	39	noun	list	1	2	nomatch	vite	-1	1	y	0.65768
350.84139999999996	0.0	+	39	noun	list	1	3	nomatch	vite	-1	1	y	0.65768
351.2412	0.2	pcms	39	noun	list	1	4	nomatch	vite	-1	1	y	0.65768
351.44109999999995	0.0	+	39	noun	list	1	5	nomatch	vite	-1	1	y	0.65768
351.84139999999996	0.2	bmjh	39	noun	list	1	6	nomatch	vite	-1	1	y	0.65768
352.05789999999996	0.0	+	39	noun	list	1	7	nomatch	vite	-1	1	y	0.65768
352.4407	0.2	tdjwhlg	39	noun	list	1	8	nomatch	vite	-1	1	y	0.65768
352.64059999999995	0.0	+	39	noun	list	1	9	nomatch	vite	-1	1	y	0.65768
353.04049999999995	0.2	tard	39	noun	list	1	10	nomatch	vite	-1	1	y	0.65768
353.24039999999997	0.0	+	39	noun	list	1	11	nomatch	vite	-1	1	y	0.65768
353.6574	0.0	+	39	noun	list	1	12	nomatch	vite	-1	1	y	0.65768
355.6398	0.0	VITE	39	noun	list	1	13	nomatch	vite	-1	1	y	0.65768
356.3556	0.0	+	39	noun	list	1	14	nomatch	vite	-1	1	y	0.65768
356.29749999999996	0.0	[response]	39	noun	list	1	15	nomatch	vite	-1	1	y	0.65768
358.03819999999996	0.0	+	40	verb	phrase	3	1	nomatch	plus	-1	1	y	0.8455
358.5879	0.2	nvxkmb	40	verb	phrase	3	2	nomatch	plus	-1	1	y	0.8455
358.78779999999995	0.0	+	40	verb	phrase	3	3	nomatch	plus	-1	1	y	0.8455
359.1876	0.2	qskv	40	verb	phrase	3	4	nomatch	plus	-1	1	y	0.8455
359.38759999999996	0.0	+	40	verb	phrase	3	5	nomatch	plus	-1	1	y	0.8455
359.7874	0.2	doit	40	verb	phrase	3	6	nomatch	plus	-1	1	y	0.8455
359.98789999999997	0.0	+	40	verb	phrase	3	7	nomatch	plus	-1	1	y	0.8455
360.38759999999996	0.2	trop	40	verb	phrase	3	8	nomatch	plus	-1	1	y	0.8455
360.5875	0.0	+	40	verb	phrase	3	9	nomatch	plus	-1	1	y	0.8455
360.98699999999997	0.2	nager	40	verb	phrase	3	10	nomatch	plus	-1	1	y	0.8455
361.1873	0.0	+	40	verb	phrase	3	11	nomatch	plus	-1	1	y	0.8455
361.5866	0.0	+	40	verb	phrase	3	12	nomatch	plus	-1	1	y	0.8455
363.5857	0.0	PLUS	40	verb	phrase	3	13	nomatch	plus	-1	1	y	0.8455
364.4853	0.0	+	40	verb	phrase	3	14	nomatch	plus	-1	1	y	0.8455
364.43120000000005	0.0	[response]	40	verb	phrase	3	15	nomatch	plus	-1	1	y	0.8455
365.9846	0.0	+	41	verb	list	3	1	match	patiner	4	1	p	0.49733
366.5343	0.2	bglhc	41	verb	list	3	2	match	patiner	4	1	p	0.49733
366.73429999999996	0.0	+	41	verb	list	3	3	match	patiner	4	1	p	0.49733
367.1341	0.2	sxpw	41	verb	list	3	4	match	patiner	4	1	p	0.49733
367.334	0.0	+	41	verb	list	3	5	match	patiner	4	1	p	0.49733
367.7344	0.2	son	41	verb	list	3	6	match	patiner	4	1	p	0.49733
367.9509	0.0	+	41	verb	list	3	7	match	patiner	4	1	p	0.49733
368.334	0.2	patiner	41	verb	list	3	8	match	patiner	4	1	p	0.49733
368.5505	0.0	+	41	verb	list	3	9	match	patiner	4	1	p	0.49733
368.96709999999996	0.2	vert	41	verb	list	3	10	match	patiner	4	1	p	0.49733
369.14979999999997	0.0	+	41	verb	list	3	11	match	patiner	4	1	p	0.49733
369.5496	0.0	+	41	verb	list	3	12	match	patiner	4	1	p	0.49733
371.56609999999995	0.0	PATINER	41	verb	list	3	13	match	patiner	4	1	p	0.49733
372.14869999999996	0.0	+	41	verb	list	3	14	match	patiner	4	1	p	0.49733
372.06340000000006	0.0	[response]	41	verb	list	3	15	match	patiner	4	1	p	0.49733
373.9477	0.0	+	42	verb	list	1	1	nomatch	petit	-1	1	y	0.7213400000000001
374.49739999999997	0.2	rqwkcdt	42	verb	list	1	2	nomatch	petit	-1	1	y	0.7213400000000001
374.6977	0.0	+	42	verb	list	1	3	nomatch	petit	-1	1	y	0.7213400000000001
375.09729999999996	0.2	gmcl	42	verb	list	1	4	nomatch	petit	-1	1	y	0.7213400000000001
375.3144	0.0	+	42	verb	list	1	5	nomatch	petit	-1	1	y	0.7213400000000001
375.71389999999997	0.2	ns	42	verb	list	1	6	nomatch	petit	-1	1	y	0.7213400000000001
375.89689999999996	0.0	+	42	verb	list	1	7	nomatch	petit	-1	1	y	0.7213400000000001
376.29659999999996	0.2	cgzksdn	42	verb	list	1	8	nomatch	petit	-1	1	y	0.7213400000000001
376.49649999999997	0.0	+	42	verb	list	1	9	nomatch	petit	-1	1	y	0.7213400000000001
376.8963	0.2	grand	42	verb	list	1	10	nomatch	petit	-1	1	y	0.7213400000000001
377.0963	0.0	+	42	verb	list	1	11	nomatch	petit	-1	1	y	0.7213400000000001
377.49609999999996	0.0	+	42	verb	list	1	12	nomatch	petit	-1	1	y	0.7213400000000001
379.49519999999995	0.0	PETIT	42	verb	list	1	13	nomatch	petit	-1	1	y	0.7213400000000001
380.27819999999997	0.0	+	42	verb	list	1	14	nomatch	petit	-1	1	y	0.7213400000000001
380.2165	0.0	[response]	42	verb	list	1	15	nomatch	petit	-1	1	y	0.7213400000000001
389.8905	0.0	+	43	noun	phrase	4	1	nomatch	sur	-1	1	y	0.87767
390.4403	0.2	wgzc	43	noun	phrase	4	2	nomatch	sur	-1	1	y	0.87767
390.6402	0.0	+	43	noun	phrase	4	3	nomatch	sur	-1	1	y	0.87767
391.04019999999997	0.2	sous	43	noun	phrase	4	4	nomatch	sur	-1	1	y	0.87767
391.23999999999995	0.0	+	43	noun	phrase	4	5	nomatch	sur	-1	1	y	0.87767
391.6404	0.2	mon	43	noun	phrase	4	6	nomatch	sur	-1	1	y	0.87767
391.84	0.0	+	43	noun	phrase	4	7	nomatch	sur	-1	1	y	0.87767
392.23949999999996	0.2	vieux	43	noun	phrase	4	8	nomatch	sur	-1	1	y	0.87767
392.4393	0.0	+	43	noun	phrase	4	9	nomatch	sur	-1	1	y	0.87767
392.83919999999995	0.2	panier	43	noun	phrase	4	10	nomatch	sur	-1	1	y	0.87767
393.03909999999996	0.0	+	43	noun	phrase	4	11	nomatch	sur	-1	1	y	0.87767
393.4389	0.0	+	43	noun	phrase	4	12	nomatch	sur	-1	1	y	0.87767
395.438	0.0	SUR	43	noun	phrase	4	13	nomatch	sur	-1	1	y	0.87767
396.42139999999995	0.0	+	43	noun	phrase	4	14	nomatch	sur	-1	1	y	0.87767
396.3157	0.0	[response]	43	noun	phrase	4	15	nomatch	sur	-1	1	y	0.87767
397.83689999999996	0.0	+	44	noun	list	2	1	nomatch	grenier	-1	1	y	0.76631
398.38669999999996	0.2	mvqjt	44	noun	list	2	2	nomatch	grenier	-1	1	y	0.76631
398.58669999999995	0.0	+	44	noun	list	2	3	nomatch	grenier	-1	1	y	0.76631
398.98699999999997	0.2	tdmv	44	noun	list	2	4	nomatch	grenier	-1	1	y	0.76631
399.1869	0.0	+	44	noun	list	2	5	nomatch	grenier	-1	1	y	0.76631
399.58669999999995	0.2	bmjh	44	noun	list	2	6	nomatch	grenier	-1	1	y	0.76631
399.7861	0.0	+	44	noun	list	2	7	nomatch	grenier	-1	1	y	0.76631
400.1859	0.2	cendrier	44	noun	list	2	8	nomatch	grenier	-1	1	y	0.76631
400.38579999999996	0.0	+	44	noun	list	2	9	nomatch	grenier	-1	1	y	0.76631
400.7856	0.2	ainsi	44	noun	list	2	10	nomatch	grenier	-1	1	y	0.76631
400.9855	0.0	+	44	noun	list	2	11	nomatch	grenier	-1	1	y	0.76631
401.3855	0.0	+	44	noun	list	2	12	nomatch	grenier	-1	1	y	0.76631
403.3846	0.0	GRENIER	44	noun	list	2	13	nomatch	grenier	-1	1	y	0.76631
404.2174	0.0	+	44	noun	list	2	14	nomatch	grenier	-1	1	y	0.76631
404.1509	0.0	[response]	44	noun	list	2	15	nomatch	grenier	-1	1	y	0.76631
405.79999999999995	0.0	+	45	noun	phrase	3	1	match	mon	3	1	p	0.7755
406.34979999999996	0.2	jldbgqz	45	noun	phrase	3	2	match	mon	3	1	p	0.7755
406.5497	0.0	+	45	noun	phrase	3	3	match	mon	3	1	p	0.7755
406.9495	0.2	pcms	45	noun	phrase	3	4	match	mon	3	1	p	0.7755
407.14939999999996	0.0	+	45	noun	phrase	3	5	match	mon	3	1	p	0.7755
407.5492	0.2	mon	45	noun	phrase	3	6	match	mon	3	1	p	0.7755
407.7491	0.0	+	45	noun	phrase	3	7	match	mon	3	1	p	0.7755
408.149	0.2	beau	45	noun	phrase	3	8	match	mon	3	1	p	0.7755
408.34889999999996	0.0	+	45	noun	phrase	3	9	match	mon	3	1	p	0.7755
408.7492	0.2	panier	45	noun	phrase	3	10	match	mon	3	1	p	0.7755
408.94919999999996	0.0	+	45	noun	phrase	3	11	match	mon	3	1	p	0.7755
409.34839999999997	0.0	+	45	noun	phrase	3	12	match	mon	3	1	p	0.7755
411.3481	0.0	MON	45	noun	phrase	3	13	match	mon	3	1	p	0.7755
412.1805	0.0	+	45	noun	phrase	3	14	match	mon	3	1	p	0.7755
412.1236	0.0	[response]	45	noun	phrase	3	15	match	mon	3	1	p	0.7755
413.7464	0.0	+	46	noun	phrase	1	1	match	vieux	5	1	p	0.51039
414.2962	0.2	gjhbcwx	46	noun	phrase	1	2	match	vieux	5	1	p	0.51039
414.49609999999996	0.0	+	46	noun	phrase	1	3	match	vieux	5	1	p	0.51039
414.8959	0.2	lwsf	46	noun	phrase	1	4	match	vieux	5	1	p	0.51039
415.0958	0.0	+	46	noun	phrase	1	5	match	vieux	5	1	p	0.51039
415.4964	0.2	ncb	46	noun	phrase	1	6	match	vieux	5	1	p	0.51039
415.69559999999996	0.0	+	46	noun	phrase	1	7	match	vieux	5	1	p	0.51039
416.1128	0.2	zxpdsw	46	noun	phrase	1	8	match	vieux	5	1	p	0.51039
416.2953	0.0	+	46	noun	phrase	1	9	match	vieux	5	1	p	0.51039
416.69509999999997	0.2	vieux	46	noun	phrase	1	10	match	vieux	5	1	p	0.51039
416.895	0.0	+	46	noun	phrase	1	11	match	vieux	5	1	p	0.51039
417.29479999999995	0.0	+	46	noun	phrase	1	12	match	vieux	5	1	p	0.51039
419.29389999999995	0.0	VIEUX	46	noun	phrase	1	13	match	vieux	5	1	p	0.51039
419.86039999999997	0.0	+	46	noun	phrase	1	14	match	vieux	5	1	p	0.51039
419.80429999999996	0.0	[response]	46	noun	phrase	1	15	match	vieux	5	1	p	0.51039
421.69289999999995	0.0	+	47	verb	list	3	1	match	nouveau	4	1	p	0.69753
422.2426	0.2	cbklw	47	verb	list	3	2	match	nouveau	4	1	p	0.69753
422.4425	0.0	+	47	verb	list	3	3	match	nouveau	4	1	p	0.69753
422.8429	0.2	gfws	47	verb	list	3	4	match	nouveau	4	1	p	0.69753
423.0424	0.0	+	47	verb	list	3	5	match	nouveau	4	1	p	0.69753
423.4421	0.2	peut	47	verb	list	3	6	match	nouveau	4	1	p	0.69753
423.642	0.0	+	47	verb	list	3	7	match	nouveau	4	1	p	0.69753
424.05899999999997	0.2	nouveau	47	verb	list	3	8	match	nouveau	4	1	p	0.69753
424.2419	0.0	+	47	verb	list	3	9	match	nouveau	4	1	p	0.69753
424.6422	0.2	voyager	47	verb	list	3	10	match	nouveau	4	1	p	0.69753
424.85859999999997	0.0	+	47	verb	list	3	11	match	nouveau	4	1	p	0.69753
425.24199999999996	0.0	+	47	verb	list	3	12	match	nouveau	4	1	p	0.69753
427.24039999999997	0.0	NOUVEAU	47	verb	list	3	13	match	nouveau	4	1	p	0.69753
427.98999999999995	0.0	+	47	verb	list	3	14	match	nouveau	4	1	p	0.69753
427.93789999999996	0.0	[response]	47	verb	list	3	15	match	nouveau	4	1	p	0.69753
429.6393	0.0	+	48	noun	phrase	2	1	nomatch	leur	-1	1	y	0.92962
430.18899999999996	0.2	pkwxgd	48	noun	phrase	2	2	nomatch	leur	-1	1	y	0.92962
430.3889	0.0	+	48	noun	phrase	2	3	nomatch	leur	-1	1	y	0.92962
430.7888	0.2	pcms	48	noun	phrase	2	4	nomatch	leur	-1	1	y	0.92962
430.9887	0.0	+	48	noun	phrase	2	5	nomatch	leur	-1	1	y	0.92962
431.38849999999996	0.2	fbd	48	noun	phrase	2	6	nomatch	leur	-1	1	y	0.92962
431.5884	0.0	+	48	noun	phrase	2	7	nomatch	leur	-1	1	y	0.92962
431.9889	0.2	petit	48	noun	phrase	2	8	nomatch	leur	-1	1	y	0.92962
432.18879999999996	0.0	+	48	noun	phrase	2	9	nomatch	leur	-1	1	y	0.92962
432.58829999999995	0.2	boîtier	48	noun	phrase	2	10	nomatch	leur	-1	1	y	0.92962
432.7885	0.0	+	48	noun	phrase	2	11	nomatch	leur	-1	1	y	0.92962
433.18769999999995	0.0	+	48	noun	phrase	2	12	nomatch	leur	-1	1	y	0.92962
435.18719999999996	0.0	LEUR	48	noun	phrase	2	13	nomatch	leur	-1	1	y	0.92962
436.23699999999997	0.0	+	48	noun	phrase	2	14	nomatch	leur	-1	1	y	0.92962
436.11679999999996	0.0	[response]	48	noun	phrase	2	15	nomatch	leur	-1	1	y	0.92962
437.5857	0.0	+	49	verb	phrase	1	1	nomatch	beau	-1	1	y	0.97102
438.1355	0.2	rzx	49	verb	phrase	1	2	nomatch	beau	-1	1	y	0.97102
438.3354	0.0	+	49	verb	phrase	1	3	nomatch	beau	-1	1	y	0.97102
438.7526	0.2	ckf	49	verb	phrase	1	4	nomatch	beau	-1	1	y	0.97102
438.93559999999997	0.0	+	49	verb	phrase	1	5	nomatch	beau	-1	1	y	0.97102
439.35229999999996	0.2	ns	49	verb	phrase	1	6	nomatch	beau	-1	1	y	0.97102
439.53499999999997	0.0	+	49	verb	phrase	1	7	nomatch	beau	-1	1	y	0.97102
439.9518	0.2	cgzksdn	49	verb	phrase	1	8	nomatch	beau	-1	1	y	0.97102
440.1346	0.0	+	49	verb	phrase	1	9	nomatch	beau	-1	1	y	0.97102
440.53439999999995	0.2	ainsi	49	verb	phrase	1	10	nomatch	beau	-1	1	y	0.97102
440.73429999999996	0.0	+	49	verb	phrase	1	11	nomatch	beau	-1	1	y	0.97102
441.1341	0.0	+	49	verb	phrase	1	12	nomatch	beau	-1	1	y	0.97102
443.1499	0.0	BEAU	49	verb	phrase	1	13	nomatch	beau	-1	1	y	0.97102
444.18269999999995	0.0	+	49	verb	phrase	1	14	nomatch	beau	-1	1	y	0.97102
444.12089999999995	0.0	[response]	49	verb	phrase	1	15	nomatch	beau	-1	1	y	0.97102
445.54879999999997	0.0	+	50	noun	phrase	3	1	match	grenier	4	1	p	0.63566
446.0985	0.2	jhrgln	50	noun	phrase	3	2	match	grenier	4	1	p	0.63566
446.2985	0.0	+	50	noun	phrase	3	3	match	grenier	4	1	p	0.63566
446.6987	0.2	pcms	50	noun	phrase	3	4	match	grenier	4	1	p	0.63566
446.8982	0.0	+	50	noun	phrase	3	5	match	grenier	4	1	p	0.63566
447.298	0.2	mon	50	noun	phrase	3	6	match	grenier	4	1	p	0.63566
447.49789999999996	0.0	+	50	noun	phrase	3	7	match	grenier	4	1	p	0.63566
447.8977	0.2	grenier	50	noun	phrase	3	8	match	grenier	4	1	p	0.63566
448.0976	0.0	+	50	noun	phrase	3	9	match	grenier	4	1	p	0.63566
448.4975	0.2	noir	50	noun	phrase	3	10	match	grenier	4	1	p	0.63566
448.69739999999996	0.0	+	50	noun	phrase	3	11	match	grenier	4	1	p	0.63566
449.0972	0.0	+	50	noun	phrase	3	12	match	grenier	4	1	p	0.63566
451.0963	0.0	GRENIER	50	noun	phrase	3	13	match	grenier	4	1	p	0.63566
451.796	0.0	+	50	noun	phrase	3	14	match	grenier	4	1	p	0.63566
451.732	0.0	[response]	50	noun	phrase	3	15	match	grenier	4	1	p	0.63566
453.49519999999995	0.0	+	51	noun	list	1	1	nomatch	ainsi	-1	1	y	0.71338
454.04499999999996	0.2	cbkwvtr	51	noun	list	1	2	nomatch	ainsi	-1	1	y	0.71338
454.2449	0.0	+	51	noun	list	1	3	nomatch	ainsi	-1	1	y	0.71338
454.6447	0.2	lwsf	51	noun	list	1	4	nomatch	ainsi	-1	1	y	0.71338
454.86199999999997	0.0	+	51	noun	list	1	5	nomatch	ainsi	-1	1	y	0.71338
455.2616	0.2	bmjh	51	noun	list	1	6	nomatch	ainsi	-1	1	y	0.71338
455.4444	0.0	+	51	noun	list	1	7	nomatch	ainsi	-1	1	y	0.71338
455.84479999999996	0.2	srpmjfb	51	noun	list	1	8	nomatch	ainsi	-1	1	y	0.71338
456.04449999999997	0.0	+	51	noun	list	1	9	nomatch	ainsi	-1	1	y	0.71338
456.4439	0.2	tôt	51	noun	list	1	10	nomatch	ainsi	-1	1	y	0.71338
456.6438	0.0	+	51	noun	list	1	11	nomatch	ainsi	-1	1	y	0.71338
457.04359999999997	0.0	+	51	noun	list	1	12	nomatch	ainsi	-1	1	y	0.71338
459.04269999999997	0.0	AINSI	51	noun	list	1	13	nomatch	ainsi	-1	1	y	0.71338
459.9097	0.0	+	51	noun	list	1	14	nomatch	ainsi	-1	1	y	0.71338
459.7561	0.0	[response]	51	noun	list	1	15	nomatch	ainsi	-1	1	y	0.71338
461.44159999999994	0.0	+	52	verb	phrase	4	1	match	adam	2	1	p	1.2044
461.99189999999993	0.2	bxvkh	52	verb	phrase	4	2	match	adam	2	1	p	1.2044
462.1913	0.0	+	52	verb	phrase	4	3	match	adam	2	1	p	1.2044
462.5910999999999	0.2	adam	52	verb	phrase	4	4	match	adam	2	1	p	1.2044
462.791	0.0	+	52	verb	phrase	4	5	match	adam	2	1	p	1.2044
463.1909	0.2	va	52	verb	phrase	4	6	match	adam	2	1	p	1.2044
463.39079999999996	0.0	+	52	verb	phrase	4	7	match	adam	2	1	p	1.2044
463.7906	0.2	parader	52	verb	phrase	4	8	match	adam	2	1	p	1.2044
463.99060000000003	0.0	+	52	verb	phrase	4	9	match	adam	2	1	p	1.2044
464.39079999999996	0.2	loin	52	verb	phrase	4	10	match	adam	2	1	p	1.2044
464.6073999999999	0.0	+	52	verb	phrase	4	11	match	adam	2	1	p	1.2044
464.9908	0.0	+	52	verb	phrase	4	12	match	adam	2	1	p	1.2044
466.9891999999999	0.0	ADAM	52	verb	phrase	4	13	match	adam	2	1	p	1.2044
468.2552	0.0	+	52	verb	phrase	4	14	match	adam	2	1	p	1.2044
468.1936	0.0	[response]	52	verb	phrase	4	15	match	adam	2	1	p	1.2044
469.38809999999995	0.0	+	53	verb	phrase	1	1	match	danser	5	0	y	1.3341
469.9378	0.2	dpvbj	53	verb	phrase	1	2	match	danser	5	0	y	1.3341
470.13769999999994	0.0	+	53	verb	phrase	1	3	match	danser	5	0	y	1.3341
470.53759999999994	0.2	sxpw	53	verb	phrase	1	4	match	danser	5	0	y	1.3341
470.7375	0.0	+	53	verb	phrase	1	5	match	danser	5	0	y	1.3341
471.1372999999999	0.2	zhcb	53	verb	phrase	1	6	match	danser	5	0	y	1.3341
471.3372	0.0	+	53	verb	phrase	1	7	match	danser	5	0	y	1.3341
471.737	0.2	bznsg	53	verb	phrase	1	8	match	danser	5	0	y	1.3341
471.9369	0.0	+	53	verb	phrase	1	9	match	danser	5	0	y	1.3341
472.3367	0.2	danser	53	verb	phrase	1	10	match	danser	5	0	y	1.3341
472.5373	0.0	+	53	verb	phrase	1	11	match	danser	5	0	y	1.3341
472.93699999999995	0.0	+	53	verb	phrase	1	12	match	danser	5	0	y	1.3341
474.93559999999997	0.0	DANSER	53	verb	phrase	1	13	match	danser	5	0	y	1.3341
476.3349	0.0	+	53	verb	phrase	1	14	match	danser	5	0	y	1.3341
476.2696	0.0	[response]	53	verb	phrase	1	15	match	danser	5	0	y	1.3341
485.38100000000003	0.0	+	54	verb	phrase	4	1	nomatch	petit	-1	1	y	0.71665
485.8975	0.2	jfsmnp	54	verb	phrase	4	2	nomatch	petit	-1	1	y	0.71665
486.09729999999996	0.0	+	54	verb	phrase	4	3	nomatch	petit	-1	1	y	0.71665
486.497	0.2	jade	54	verb	phrase	4	4	nomatch	petit	-1	1	y	0.71665
486.69699999999995	0.0	+	54	verb	phrase	4	5	nomatch	petit	-1	1	y	0.71665
487.0968	0.2	va	54	verb	phrase	4	6	nomatch	petit	-1	1	y	0.71665
487.29669999999993	0.0	+	54	verb	phrase	4	7	nomatch	petit	-1	1	y	0.71665
487.69649999999996	0.2	trop	54	verb	phrase	4	8	nomatch	petit	-1	1	y	0.71665
487.8964	0.0	+	54	verb	phrase	4	9	nomatch	petit	-1	1	y	0.71665
488.29619999999994	0.2	chasser	54	verb	phrase	4	10	nomatch	petit	-1	1	y	0.71665
488.4961	0.0	+	54	verb	phrase	4	11	nomatch	petit	-1	1	y	0.71665
488.89669999999995	0.0	+	54	verb	phrase	4	12	nomatch	petit	-1	1	y	0.71665
490.8951	0.0	PETIT	54	verb	phrase	4	13	nomatch	petit	-1	1	y	0.71665
491.67799999999994	0.0	+	54	verb	phrase	4	14	nomatch	petit	-1	1	y	0.71665
491.6117	0.0	[response]	54	verb	phrase	4	15	nomatch	petit	-1	1	y	0.71665
493.2939999999999	0.0	+	55	verb	list	1	1	nomatch	jongler	-1	1	y	0.72635
493.84369999999996	0.2	wtb	55	verb	list	1	2	nomatch	jongler	-1	1	y	0.72635
494.0436	0.0	+	55	verb	list	1	3	nomatch	jongler	-1	1	y	0.72635
494.44350000000003	0.2	fcvw	55	verb	list	1	4	nomatch	jongler	-1	1	y	0.72635
494.6434	0.0	+	55	verb	list	1	5	nomatch	jongler	-1	1	y	0.72635
495.0436	0.2	ns	55	verb	list	1	6	nomatch	jongler	-1	1	y	0.72635
495.2601	0.0	+	55	verb	list	1	7	nomatch	jongler	-1	1	y	0.72635
495.65979999999996	0.2	dsnfm	55	verb	list	1	8	nomatch	jongler	-1	1	y	0.72635
495.84340000000003	0.0	+	55	verb	list	1	9	nomatch	jongler	-1	1	y	0.72635
496.243	0.2	rouler	55	verb	list	1	10	nomatch	jongler	-1	1	y	0.72635
496.4426	0.0	+	55	verb	list	1	11	nomatch	jongler	-1	1	y	0.72635
496.84239999999994	0.0	+	55	verb	list	1	12	nomatch	jongler	-1	1	y	0.72635
498.84149999999994	0.0	JONGLER	55	verb	list	1	13	nomatch	jongler	-1	1	y	0.72635
499.62449999999995	0.0	+	55	verb	list	1	14	nomatch	jongler	-1	1	y	0.72635
499.5678	0.0	[response]	55	verb	list	1	15	nomatch	jongler	-1	1	y	0.72635
501.24039999999997	0.0	+	56	noun	phrase	1	1	nomatch	nouveau	-1	1	y	0.8677700000000002
501.79019999999997	0.2	jpf	56	noun	phrase	1	2	nomatch	nouveau	-1	1	y	0.8677700000000002
501.9900999999999	0.0	+	56	noun	phrase	1	3	nomatch	nouveau	-1	1	y	0.8677700000000002
502.38989999999995	0.2	tdmv	56	noun	phrase	1	4	nomatch	nouveau	-1	1	y	0.8677700000000002
502.5898	0.0	+	56	noun	phrase	1	5	nomatch	nouveau	-1	1	y	0.8677700000000002
502.9902	0.2	fbd	56	noun	phrase	1	6	nomatch	nouveau	-1	1	y	0.8677700000000002
503.19019999999995	0.0	+	56	noun	phrase	1	7	nomatch	nouveau	-1	1	y	0.8677700000000002
503.59009999999995	0.2	ctfnlpq	56	noun	phrase	1	8	nomatch	nouveau	-1	1	y	0.8677700000000002
503.7892	0.0	+	56	noun	phrase	1	9	nomatch	nouveau	-1	1	y	0.8677700000000002
504.1891	0.2	beau	56	noun	phrase	1	10	nomatch	nouveau	-1	1	y	0.8677700000000002
504.38899999999995	0.0	+	56	noun	phrase	1	11	nomatch	nouveau	-1	1	y	0.8677700000000002
504.7888	0.0	+	56	noun	phrase	1	12	nomatch	nouveau	-1	1	y	0.8677700000000002
506.78809999999993	0.0	NOUVEAU	56	noun	phrase	1	13	nomatch	nouveau	-1	1	y	0.8677700000000002
507.7208	0.0	+	56	noun	phrase	1	14	nomatch	nouveau	-1	1	y	0.8677700000000002
507.65579999999994	0.0	[response]	56	noun	phrase	1	15	nomatch	nouveau	-1	1	y	0.8677700000000002
509.1868	0.0	+	57	verb	list	1	1	match	rouler	5	1	p	0.81714
509.73679999999996	0.2	lqz	57	verb	list	1	2	match	rouler	5	1	p	0.81714
509.95379999999994	0.0	+	57	verb	list	1	3	match	rouler	5	1	p	0.81714
510.35319999999996	0.2	sxpw	57	verb	list	1	4	match	rouler	5	1	p	0.81714
510.5362999999999	0.0	+	57	verb	list	1	5	match	rouler	5	1	p	0.81714
510.9368	0.2	fzjl	57	verb	list	1	6	match	rouler	5	1	p	0.81714
511.13589999999994	0.0	+	57	verb	list	1	7	match	rouler	5	1	p	0.81714
511.53579999999994	0.2	qmkf	57	verb	list	1	8	match	rouler	5	1	p	0.81714
511.7357	0.0	+	57	verb	list	1	9	match	rouler	5	1	p	0.81714
512.1355	0.2	rouler	57	verb	list	1	10	match	rouler	5	1	p	0.81714
512.3354	0.0	+	57	verb	list	1	11	match	rouler	5	1	p	0.81714
512.7353	0.0	+	57	verb	list	1	12	match	rouler	5	1	p	0.81714
514.7343000000001	0.0	ROULER	57	verb	list	1	13	match	rouler	5	1	p	0.81714
515.6173	0.0	+	57	verb	list	1	14	match	rouler	5	1	p	0.81714
515.5515	0.0	[response]	57	verb	list	1	15	match	rouler	5	1	p	0.81714
517.1499	0.0	+	58	verb	phrase	2	1	match	danser	5	1	p	0.59791
517.6997	0.2	rqg	58	verb	phrase	2	2	match	danser	5	1	p	0.59791
517.8996000000001	0.0	+	58	verb	phrase	2	3	match	danser	5	1	p	0.59791
518.2994	0.2	bgmp	58	verb	phrase	2	4	match	danser	5	1	p	0.59791
518.4993000000001	0.0	+	58	verb	phrase	2	5	match	danser	5	1	p	0.59791
518.9161	0.2	zhcb	58	verb	phrase	2	6	match	danser	5	1	p	0.59791
519.0991	0.0	+	58	verb	phrase	2	7	match	danser	5	1	p	0.59791
519.4994	0.2	plus	58	verb	phrase	2	8	match	danser	5	1	p	0.59791
519.7159	0.0	+	58	verb	phrase	2	9	match	danser	5	1	p	0.59791
520.0986	0.2	danser	58	verb	phrase	2	10	match	danser	5	1	p	0.59791
520.2985	0.0	+	58	verb	phrase	2	11	match	danser	5	1	p	0.59791
520.6983	0.0	+	58	verb	phrase	2	12	match	danser	5	1	p	0.59791
522.6974	0.0	DANSER	58	verb	phrase	2	13	match	danser	5	1	p	0.59791
523.3471000000001	0.0	+	58	verb	phrase	2	14	match	danser	5	1	p	0.59791
523.2953	0.0	[response]	58	verb	phrase	2	15	match	danser	5	1	p	0.59791
541.1564000000001	0.0	+	59	noun	list	3	1	match	trop	4	1	p	0.75315
541.6389	0.2	hcw	59	noun	list	3	2	match	trop	4	1	p	0.75315
541.8388	0.0	+	59	noun	list	3	3	match	trop	4	1	p	0.75315
542.2386	0.2	qskv	59	noun	list	3	4	match	trop	4	1	p	0.75315
542.4385	0.0	+	59	noun	list	3	5	match	trop	4	1	p	0.75315
542.8384	0.2	leur	59	noun	list	3	6	match	trop	4	1	p	0.75315
543.0383	0.0	+	59	noun	list	3	7	match	trop	4	1	p	0.75315
543.4381000000001	0.2	trop	59	noun	list	3	8	match	trop	4	1	p	0.75315
543.638	0.0	+	59	noun	list	3	9	match	trop	4	1	p	0.75315
544.0378000000001	0.2	rocher	59	noun	list	3	10	match	trop	4	1	p	0.75315
544.2377	0.0	+	59	noun	list	3	11	match	trop	4	1	p	0.75315
544.6375	0.0	+	59	noun	list	3	12	match	trop	4	1	p	0.75315
546.6366	0.0	TROP	59	noun	list	3	13	match	trop	4	1	p	0.75315
547.4529	0.0	+	59	noun	list	3	14	match	trop	4	1	p	0.75315
547.3898	0.0	[response]	59	noun	list	3	15	match	trop	4	1	p	0.75315
557.0486000000001	0.0	+	60	verb	phrase	1	1	match	beaucoup	5	1	p	1.0667
557.5984000000001	0.2	jwd	60	verb	phrase	1	2	match	beaucoup	5	1	p	1.0667
557.7983	0.0	+	60	verb	phrase	1	3	match	beaucoup	5	1	p	1.0667
558.1986	0.2	ckf	60	verb	phrase	1	4	match	beaucoup	5	1	p	1.0667
558.3982000000001	0.0	+	60	verb	phrase	1	5	match	beaucoup	5	1	p	1.0667
558.815	0.2	ns	60	verb	phrase	1	6	match	beaucoup	5	1	p	1.0667
558.9977	0.0	+	60	verb	phrase	1	7	match	beaucoup	5	1	p	1.0667
559.3976	0.2	mdjqzgp	60	verb	phrase	1	8	match	beaucoup	5	1	p	1.0667
559.5975000000001	0.0	+	60	verb	phrase	1	9	match	beaucoup	5	1	p	1.0667
559.9973	0.2	beaucoup	60	verb	phrase	1	10	match	beaucoup	5	1	p	1.0667
560.1972000000001	0.0	+	60	verb	phrase	1	11	match	beaucoup	5	1	p	1.0667
560.597	0.0	+	60	verb	phrase	1	12	match	beaucoup	5	1	p	1.0667
562.5961	0.0	BEAUCOUP	60	verb	phrase	1	13	match	beaucoup	5	1	p	1.0667
563.729	0.0	+	60	verb	phrase	1	14	match	beaucoup	5	1	p	1.0667
563.6629	0.0	[response]	60	verb	phrase	1	15	match	beaucoup	5	1	p	1.0667
564.995	0.0	+	61	verb	phrase	3	1	match	nager	4	1	p	0.59966
565.5448	0.2	fwbth	61	verb	phrase	3	2	match	nager	4	1	p	0.59966
565.7447000000001	0.0	+	61	verb	phrase	3	3	match	nager	4	1	p	0.59966
566.1445	0.2	ztfk	61	verb	phrase	3	4	match	nager	4	1	p	0.59966
566.3444000000001	0.0	+	61	verb	phrase	3	5	match	nager	4	1	p	0.59966
566.7443000000001	0.2	doit	61	verb	phrase	3	6	match	nager	4	1	p	0.59966
566.9442	0.0	+	61	verb	phrase	3	7	match	nager	4	1	p	0.59966
567.3446	0.2	nager	61	verb	phrase	3	8	match	nager	4	1	p	0.59966
567.5444	0.0	+	61	verb	phrase	3	9	match	nager	4	1	p	0.59966
567.9439	0.2	ainsi	61	verb	phrase	3	10	match	nager	4	1	p	0.59966
568.1436	0.0	+	61	verb	phrase	3	11	match	nager	4	1	p	0.59966
568.5434	0.0	+	61	verb	phrase	3	12	match	nager	4	1	p	0.59966
570.5429	0.0	NAGER	61	verb	phrase	3	13	match	nager	4	1	p	0.59966
571.2759	0.0	+	61	verb	phrase	3	14	match	nager	4	1	p	0.59966
571.1426	0.0	[response]	61	verb	phrase	3	15	match	nager	4	1	p	0.59966
572.9415	0.0	+	62	verb	phrase	1	1	nomatch	voyager	-1	1	y	1.1754000000000002
573.4912	0.2	qtz	62	verb	phrase	1	2	nomatch	voyager	-1	1	y	1.1754000000000002
573.7084	0.0	+	62	verb	phrase	1	3	nomatch	voyager	-1	1	y	1.1754000000000002
574.0914	0.2	wxqn	62	verb	phrase	1	4	nomatch	voyager	-1	1	y	1.1754000000000002
574.2912	0.0	+	62	verb	phrase	1	5	nomatch	voyager	-1	1	y	1.1754000000000002
574.6913000000001	0.2	ns	62	verb	phrase	1	6	nomatch	voyager	-1	1	y	1.1754000000000002
574.8913	0.0	+	62	verb	phrase	1	7	nomatch	voyager	-1	1	y	1.1754000000000002
575.2904	0.2	htmzb	62	verb	phrase	1	8	nomatch	voyager	-1	1	y	1.1754000000000002
575.4903	0.0	+	62	verb	phrase	1	9	nomatch	voyager	-1	1	y	1.1754000000000002
575.8909	0.2	chasser	62	verb	phrase	1	10	nomatch	voyager	-1	1	y	1.1754000000000002
576.0901	0.0	+	62	verb	phrase	1	11	nomatch	voyager	-1	1	y	1.1754000000000002
576.4899	0.0	+	62	verb	phrase	1	12	nomatch	voyager	-1	1	y	1.1754000000000002
578.489	0.0	VOYAGER	62	verb	phrase	1	13	nomatch	voyager	-1	1	y	1.1754000000000002
579.7218	0.0	+	62	verb	phrase	1	14	nomatch	voyager	-1	1	y	1.1754000000000002
579.6644	0.0	[response]	62	verb	phrase	1	15	nomatch	voyager	-1	1	y	1.1754000000000002
580.8883000000001	0.0	+	63	verb	phrase	1	1	match	ainsi	5	1	p	0.53163
581.4377000000001	0.2	ljrcnp	63	verb	phrase	1	2	match	ainsi	5	1	p	0.53163
581.6376	0.0	+	63	verb	phrase	1	3	match	ainsi	5	1	p	0.53163
582.0374	0.2	wcxg	63	verb	phrase	1	4	match	ainsi	5	1	p	0.53163
582.2373	0.0	+	63	verb	phrase	1	5	match	ainsi	5	1	p	0.53163
582.6371	0.2	bmjh	63	verb	phrase	1	6	match	ainsi	5	1	p	0.53163
582.837	0.0	+	63	verb	phrase	1	7	match	ainsi	5	1	p	0.53163
583.2376	0.2	pgmxrls	63	verb	phrase	1	8	match	ainsi	5	1	p	0.53163
583.4373	0.0	+	63	verb	phrase	1	9	match	ainsi	5	1	p	0.53163
583.8367000000001	0.2	ainsi	63	verb	phrase	1	10	match	ainsi	5	1	p	0.53163
584.0366	0.0	+	63	verb	phrase	1	11	match	ainsi	5	1	p	0.53163
584.4363000000001	0.0	+	63	verb	phrase	1	12	match	ainsi	5	1	p	0.53163
586.4354000000001	0.0	AINSI	63	verb	phrase	1	13	match	ainsi	5	1	p	0.53163
587.0185	0.0	+	63	verb	phrase	1	14	match	ainsi	5	1	p	0.53163
586.967	0.0	[response]	63	verb	phrase	1	15	match	ainsi	5	1	p	0.53163
588.8343	0.0	+	64	verb	list	1	1	match	danser	5	1	p	0.79355
589.3841	0.2	zdvx	64	verb	list	1	2	match	danser	5	1	p	0.79355
589.5840000000001	0.0	+	64	verb	list	1	3	match	danser	5	1	p	0.79355
589.9844	0.2	fcvw	64	verb	list	1	4	match	danser	5	1	p	0.79355
590.1842	0.0	+	64	verb	list	1	5	match	danser	5	1	p	0.79355
590.5837	0.2	ns	64	verb	list	1	6	match	danser	5	1	p	0.79355
590.8004000000001	0.0	+	64	verb	list	1	7	match	danser	5	1	p	0.79355
591.2005	0.2	zxmqw	64	verb	list	1	8	match	danser	5	1	p	0.79355
591.3998	0.0	+	64	verb	list	1	9	match	danser	5	1	p	0.79355
591.7997	0.2	danser	64	verb	list	1	10	match	danser	5	1	p	0.79355
591.9996	0.0	+	64	verb	list	1	11	match	danser	5	1	p	0.79355
592.3994	0.0	+	64	verb	list	1	12	match	danser	5	1	p	0.79355
594.3985	0.0	DANSER	64	verb	list	1	13	match	danser	5	1	p	0.79355
595.3153	0.0	+	64	verb	list	1	14	match	danser	5	1	p	0.79355
595.1921000000001	0.0	[response]	64	verb	list	1	15	match	danser	5	1	p	0.79355
604.811	0.0	+	65	verb	phrase	2	1	match	jongler	5	1	p	0.66111
605.3436	0.2	ltc	65	verb	phrase	2	2	match	jongler	5	1	p	0.66111
605.5435	0.0	+	65	verb	phrase	2	3	match	jongler	5	1	p	0.66111
605.9433	0.2	ckf	65	verb	phrase	2	4	match	jongler	5	1	p	0.66111
606.1432	0.0	+	65	verb	phrase	2	5	match	jongler	5	1	p	0.66111
606.543	0.2	zhcb	65	verb	phrase	2	6	match	jongler	5	1	p	0.66111
606.7429000000001	0.0	+	65	verb	phrase	2	7	match	jongler	5	1	p	0.66111
607.1428000000001	0.2	trop	65	verb	phrase	2	8	match	jongler	5	1	p	0.66111
607.3427	0.0	+	65	verb	phrase	2	9	match	jongler	5	1	p	0.66111
607.7425000000001	0.2	jongler	65	verb	phrase	2	10	match	jongler	5	1	p	0.66111
607.9424	0.0	+	65	verb	phrase	2	11	match	jongler	5	1	p	0.66111
608.3422	0.0	+	65	verb	phrase	2	12	match	jongler	5	1	p	0.66111
610.3413	0.0	JONGLER	65	verb	phrase	2	13	match	jongler	5	1	p	0.66111
611.0577000000001	0.0	+	65	verb	phrase	2	14	match	jongler	5	1	p	0.66111
611.0024000000001	0.0	[response]	65	verb	phrase	2	15	match	jongler	5	1	p	0.66111
612.7402000000001	0.0	+	66	noun	phrase	1	1	nomatch	adam	-1	1	y	1.1207
613.2900000000001	0.2	jlw	66	noun	phrase	1	2	nomatch	adam	-1	1	y	1.1207
613.4899	0.0	+	66	noun	phrase	1	3	nomatch	adam	-1	1	y	1.1207
613.8903	0.2	fcvw	66	noun	phrase	1	4	nomatch	adam	-1	1	y	1.1207
614.1068	0.0	+	66	noun	phrase	1	5	nomatch	adam	-1	1	y	1.1207
614.4896	0.2	ncb	66	noun	phrase	1	6	nomatch	adam	-1	1	y	1.1207
614.6901	0.0	+	66	noun	phrase	1	7	nomatch	adam	-1	1	y	1.1207
615.0896	0.2	xvlg	66	noun	phrase	1	8	nomatch	adam	-1	1	y	1.1207
615.2891000000001	0.0	+	66	noun	phrase	1	9	nomatch	adam	-1	1	y	1.1207
615.6889	0.2	sablier	66	noun	phrase	1	10	nomatch	adam	-1	1	y	1.1207
615.8888000000001	0.0	+	66	noun	phrase	1	11	nomatch	adam	-1	1	y	1.1207
616.2886000000001	0.0	+	66	noun	phrase	1	12	nomatch	adam	-1	1	y	1.1207
618.2877000000001	0.0	ADAM	66	noun	phrase	1	13	nomatch	adam	-1	1	y	1.1207
619.4705	0.0	+	66	noun	phrase	1	14	nomatch	adam	-1	1	y	1.1207
619.4085000000001	0.0	[response]	66	noun	phrase	1	15	nomatch	adam	-1	1	y	1.1207
620.6867000000001	0.0	+	67	verb	phrase	1	1	nomatch	jongler	-1	1	y	0.77509
621.2364	0.2	nbrc	67	verb	phrase	1	2	nomatch	jongler	-1	1	y	0.77509
621.4363000000001	0.0	+	67	verb	phrase	1	3	nomatch	jongler	-1	1	y	0.77509
621.8363	0.2	bgmp	67	verb	phrase	1	4	nomatch	jongler	-1	1	y	0.77509
622.0360000000001	0.0	+	67	verb	phrase	1	5	nomatch	jongler	-1	1	y	0.77509
622.4359000000001	0.2	zhcb	67	verb	phrase	1	6	nomatch	jongler	-1	1	y	0.77509
622.6358	0.0	+	67	verb	phrase	1	7	nomatch	jongler	-1	1	y	0.77509
623.0356	0.2	hkmwrl	67	verb	phrase	1	8	nomatch	jongler	-1	1	y	0.77509
623.2355	0.0	+	67	verb	phrase	1	9	nomatch	jongler	-1	1	y	0.77509
623.6357	0.2	moins	67	verb	phrase	1	10	nomatch	jongler	-1	1	y	0.77509
623.8521000000001	0.0	+	67	verb	phrase	1	11	nomatch	jongler	-1	1	y	0.77509
624.2524000000001	0.0	+	67	verb	phrase	1	12	nomatch	jongler	-1	1	y	0.77509
626.2342	0.0	JONGLER	67	verb	phrase	1	13	nomatch	jongler	-1	1	y	0.77509
627.0671	0.0	+	67	verb	phrase	1	14	nomatch	jongler	-1	1	y	0.77509
627.0092000000002	0.0	[response]	67	verb	phrase	1	15	nomatch	jongler	-1	1	y	0.77509
628.6497	0.0	+	68	verb	list	1	1	match	blanc	5	1	p	0.63908
629.1995000000001	0.2	qlvwstj	68	verb	list	1	2	match	blanc	5	1	p	0.63908
629.3994	0.0	+	68	verb	list	1	3	match	blanc	5	1	p	0.63908
629.7992	0.2	ckf	68	verb	list	1	4	match	blanc	5	1	p	0.63908
629.9997000000001	0.0	+	68	verb	list	1	5	match	blanc	5	1	p	0.63908
630.3992000000001	0.2	fbd	68	verb	list	1	6	match	blanc	5	1	p	0.63908
630.599	0.0	+	68	verb	list	1	7	match	blanc	5	1	p	0.63908
631.0159	0.2	gzchqw	68	verb	list	1	8	match	blanc	5	1	p	0.63908
631.1991	0.0	+	68	verb	list	1	9	match	blanc	5	1	p	0.63908
631.5984000000001	0.2	blanc	68	verb	list	1	10	match	blanc	5	1	p	0.63908
631.7983	0.0	+	68	verb	list	1	11	match	blanc	5	1	p	0.63908
632.1981000000001	0.0	+	68	verb	list	1	12	match	blanc	5	1	p	0.63908
634.1973	0.0	BLANC	68	verb	list	1	13	match	blanc	5	1	p	0.63908
634.9806	0.0	+	68	verb	list	1	14	match	blanc	5	1	p	0.63908
634.8363000000002	0.0	[response]	68	verb	list	1	15	match	blanc	5	1	p	0.63908
644.5926000000001	0.0	+	69	verb	phrase	3	1	nomatch	vite	-1	1	y	0.7632000000000001
645.1427	0.2	vds	69	verb	phrase	3	2	nomatch	vite	-1	1	y	0.7632000000000001
645.3422	0.0	+	69	verb	phrase	3	3	nomatch	vite	-1	1	y	0.7632000000000001
645.759	0.2	sxpw	69	verb	phrase	3	4	nomatch	vite	-1	1	y	0.7632000000000001
645.942	0.0	+	69	verb	phrase	3	5	nomatch	vite	-1	1	y	0.7632000000000001
646.3418	0.2	peut	69	verb	phrase	3	6	nomatch	vite	-1	1	y	0.7632000000000001
646.5417	0.0	+	69	verb	phrase	3	7	nomatch	vite	-1	1	y	0.7632000000000001
646.9415	0.2	voyager	69	verb	phrase	3	8	nomatch	vite	-1	1	y	0.7632000000000001
647.1414	0.0	+	69	verb	phrase	3	9	nomatch	vite	-1	1	y	0.7632000000000001
647.5412	0.2	ainsi	69	verb	phrase	3	10	nomatch	vite	-1	1	y	0.7632000000000001
647.7411000000001	0.0	+	69	verb	phrase	3	11	nomatch	vite	-1	1	y	0.7632000000000001
648.1410000000001	0.0	+	69	verb	phrase	3	12	nomatch	vite	-1	1	y	0.7632000000000001
650.1401000000001	0.0	VITE	69	verb	phrase	3	13	nomatch	vite	-1	1	y	0.7632000000000001
650.9564	0.0	+	69	verb	phrase	3	14	nomatch	vite	-1	1	y	0.7632000000000001
650.9033000000002	0.0	[response]	69	verb	phrase	3	15	nomatch	vite	-1	1	y	0.7632000000000001
652.539	0.0	+	70	verb	phrase	4	1	match	rouler	4	1	p	0.64549
653.0887	0.2	bwsl	70	verb	phrase	4	2	match	rouler	4	1	p	0.64549
653.2887000000001	0.0	+	70	verb	phrase	4	3	match	rouler	4	1	p	0.64549
653.6885	0.2	adam	70	verb	phrase	4	4	match	rouler	4	1	p	0.64549
653.9056	0.0	+	70	verb	phrase	4	5	match	rouler	4	1	p	0.64549
654.2884	0.2	va	70	verb	phrase	4	6	match	rouler	4	1	p	0.64549
654.4884000000001	0.0	+	70	verb	phrase	4	7	match	rouler	4	1	p	0.64549
654.8886	0.2	rouler	70	verb	phrase	4	8	match	rouler	4	1	p	0.64549
655.0882	0.0	+	70	verb	phrase	4	9	match	rouler	4	1	p	0.64549
655.4877	0.2	tôt	70	verb	phrase	4	10	match	rouler	4	1	p	0.64549
655.6876000000001	0.0	+	70	verb	phrase	4	11	match	rouler	4	1	p	0.64549
656.0874	0.0	+	70	verb	phrase	4	12	match	rouler	4	1	p	0.64549
658.0865	0.0	ROULER	70	verb	phrase	4	13	match	rouler	4	1	p	0.64549
658.8197	0.0	+	70	verb	phrase	4	14	match	rouler	4	1	p	0.64549
658.7320000000001	0.0	[response]	70	verb	phrase	4	15	match	rouler	4	1	p	0.64549
660.4854	0.0	+	71	verb	phrase	4	1	match	peut	3	1	p	0.7675300000000002
661.0352	0.2	pxsm	71	verb	phrase	4	2	match	peut	3	1	p	0.7675300000000002
661.2351	0.0	+	71	verb	phrase	4	3	match	peut	3	1	p	0.7675300000000002
661.6349	0.2	luc	71	verb	phrase	4	4	match	peut	3	1	p	0.7675300000000002
661.8348000000001	0.0	+	71	verb	phrase	4	5	match	peut	3	1	p	0.7675300000000002
662.2346	0.2	peut	71	verb	phrase	4	6	match	peut	3	1	p	0.7675300000000002
662.4345000000001	0.0	+	71	verb	phrase	4	7	match	peut	3	1	p	0.7675300000000002
662.8346	0.2	plus	71	verb	phrase	4	8	match	peut	3	1	p	0.7675300000000002
663.0348	0.0	+	71	verb	phrase	4	9	match	peut	3	1	p	0.7675300000000002
663.4345000000001	0.2	danser	71	verb	phrase	4	10	match	peut	3	1	p	0.7675300000000002
663.6345	0.0	+	71	verb	phrase	4	11	match	peut	3	1	p	0.7675300000000002
664.0339	0.0	+	71	verb	phrase	4	12	match	peut	3	1	p	0.7675300000000002
666.0496	0.0	PEUT	71	verb	phrase	4	13	match	peut	3	1	p	0.7675300000000002
666.8825	0.0	+	71	verb	phrase	4	14	match	peut	3	1	p	0.7675300000000002
666.8171000000001	0.0	[response]	71	verb	phrase	4	15	match	peut	3	1	p	0.7675300000000002
676.5286	0.0	+	72	noun	list	1	1	match	grenier	5	1	p	0.60129
676.9947000000001	0.2	wjpbvx	72	noun	list	1	2	match	grenier	5	1	p	0.60129
677.1946	0.0	+	72	noun	list	1	3	match	grenier	5	1	p	0.60129
677.5944000000001	0.2	ckf	72	noun	list	1	4	match	grenier	5	1	p	0.60129
677.7943	0.0	+	72	noun	list	1	5	match	grenier	5	1	p	0.60129
678.1941	0.2	fbd	72	noun	list	1	6	match	grenier	5	1	p	0.60129
678.394	0.0	+	72	noun	list	1	7	match	grenier	5	1	p	0.60129
678.7938	0.2	vtwbl	72	noun	list	1	8	match	grenier	5	1	p	0.60129
678.9938000000001	0.0	+	72	noun	list	1	9	match	grenier	5	1	p	0.60129
679.3942000000001	0.2	grenier	72	noun	list	1	10	match	grenier	5	1	p	0.60129
679.6108	0.0	+	72	noun	list	1	11	match	grenier	5	1	p	0.60129
679.9936	0.0	+	72	noun	list	1	12	match	grenier	5	1	p	0.60129
681.9924000000001	0.0	GRENIER	72	noun	list	1	13	match	grenier	5	1	p	0.60129
682.6754000000001	0.0	+	72	noun	list	1	14	match	grenier	5	1	p	0.60129
682.5937	0.0	[response]	72	noun	list	1	15	match	grenier	5	1	p	0.60129
684.3913	0.0	+	73	verb	list	1	1	nomatch	loin	-1	1	y	0.48363
684.9411	0.2	vmq	73	verb	list	1	2	nomatch	loin	-1	1	y	0.48363
685.1410000000001	0.0	+	73	verb	list	1	3	nomatch	loin	-1	1	y	0.48363
685.5408	0.2	fcvw	73	verb	list	1	4	nomatch	loin	-1	1	y	0.48363
685.7407000000001	0.0	+	73	verb	list	1	5	nomatch	loin	-1	1	y	0.48363
686.1405000000001	0.2	ns	73	verb	list	1	6	nomatch	loin	-1	1	y	0.48363
686.3405	0.0	+	73	verb	list	1	7	nomatch	loin	-1	1	y	0.48363
686.7403	0.2	bnhlw	73	verb	list	1	8	nomatch	loin	-1	1	y	0.48363
686.9409	0.0	+	73	verb	list	1	9	nomatch	loin	-1	1	y	0.48363
687.3572	0.2	beau	73	verb	list	1	10	nomatch	loin	-1	1	y	0.48363
687.5405000000001	0.0	+	73	verb	list	1	11	nomatch	loin	-1	1	y	0.48363
687.9403	0.0	+	73	verb	list	1	12	nomatch	loin	-1	1	y	0.48363
689.9388	0.0	LOIN	73	verb	list	1	13	nomatch	loin	-1	1	y	0.48363
690.4886	0.0	+	73	verb	list	1	14	nomatch	loin	-1	1	y	0.48363
690.4225000000001	0.0	[response]	73	verb	list	1	15	nomatch	loin	-1	1	y	0.48363
708.3472	0.0	+	74	verb	list	1	1	nomatch	rouge	-1	1	y	0.7192800000000001
708.9138	0.2	vsxzkt	74	verb	list	1	2	nomatch	rouge	-1	1	y	0.7192800000000001
709.0969	0.0	+	74	verb	list	1	3	nomatch	rouge	-1	1	y	0.7192800000000001
709.4970000000001	0.2	ckf	74	verb	list	1	4	nomatch	rouge	-1	1	y	0.7192800000000001
709.6969	0.0	+	74	verb	list	1	5	nomatch	rouge	-1	1	y	0.7192800000000001
710.0964	0.2	fzjl	74	verb	list	1	6	nomatch	rouge	-1	1	y	0.7192800000000001
710.2963000000001	0.0	+	74	verb	list	1	7	nomatch	rouge	-1	1	y	0.7192800000000001
710.6962	0.2	jtnhl	74	verb	list	1	8	nomatch	rouge	-1	1	y	0.7192800000000001
710.8961	0.0	+	74	verb	list	1	9	nomatch	rouge	-1	1	y	0.7192800000000001
711.2959000000001	0.2	chasser	74	verb	list	1	10	nomatch	rouge	-1	1	y	0.7192800000000001
711.4958	0.0	+	74	verb	list	1	11	nomatch	rouge	-1	1	y	0.7192800000000001
711.8956000000001	0.0	+	74	verb	list	1	12	nomatch	rouge	-1	1	y	0.7192800000000001
713.8947000000001	0.0	ROUGE	74	verb	list	1	13	nomatch	rouge	-1	1	y	0.7192800000000001
714.6777000000001	0.0	+	74	verb	list	1	14	nomatch	rouge	-1	1	y	0.7192800000000001
714.614	0.0	[response]	74	verb	list	1	15	nomatch	rouge	-1	1	y	0.7192800000000001
716.2936000000001	0.0	+	75	noun	phrase	1	1	nomatch	peut	-1	1	y	0.73537
716.8434000000001	0.2	rfvz	75	noun	phrase	1	2	nomatch	peut	-1	1	y	0.73537
717.0433	0.0	+	75	noun	phrase	1	3	nomatch	peut	-1	1	y	0.73537
717.4431000000001	0.2	pcms	75	noun	phrase	1	4	nomatch	peut	-1	1	y	0.73537
717.643	0.0	+	75	noun	phrase	1	5	nomatch	peut	-1	1	y	0.73537
718.0600000000001	0.2	ncb	75	noun	phrase	1	6	nomatch	peut	-1	1	y	0.73537
718.243	0.0	+	75	noun	phrase	1	7	nomatch	peut	-1	1	y	0.73537
718.6598	0.2	vdtj	75	noun	phrase	1	8	nomatch	peut	-1	1	y	0.73537
718.8430000000001	0.0	+	75	noun	phrase	1	9	nomatch	peut	-1	1	y	0.73537
719.2423	0.2	panier	75	noun	phrase	1	10	nomatch	peut	-1	1	y	0.73537
719.4422000000001	0.0	+	75	noun	phrase	1	11	nomatch	peut	-1	1	y	0.73537
719.8421000000001	0.0	+	75	noun	phrase	1	12	nomatch	peut	-1	1	y	0.73537
721.8411	0.0	PEUT	75	noun	phrase	1	13	nomatch	peut	-1	1	y	0.73537
722.6408	0.0	+	75	noun	phrase	1	14	nomatch	peut	-1	1	y	0.73537
722.5765000000001	0.0	[response]	75	noun	phrase	1	15	nomatch	peut	-1	1	y	0.73537
724.2401	0.0	+	76	verb	phrase	1	1	nomatch	nager	-1	1	y	0.55268
724.7898	0.2	wfctzqn	76	verb	phrase	1	2	nomatch	nager	-1	1	y	0.55268
724.9897000000001	0.0	+	76	verb	phrase	1	3	nomatch	nager	-1	1	y	0.55268
725.3896000000001	0.2	wxqn	76	verb	phrase	1	4	nomatch	nager	-1	1	y	0.55268
725.5895	0.0	+	76	verb	phrase	1	5	nomatch	nager	-1	1	y	0.55268
725.9893000000001	0.2	ns	76	verb	phrase	1	6	nomatch	nager	-1	1	y	0.55268
726.1892	0.0	+	76	verb	phrase	1	7	nomatch	nager	-1	1	y	0.55268
726.589	0.2	bznsg	76	verb	phrase	1	8	nomatch	nager	-1	1	y	0.55268
726.7889	0.0	+	76	verb	phrase	1	9	nomatch	nager	-1	1	y	0.55268
727.1894	0.2	rouler	76	verb	phrase	1	10	nomatch	nager	-1	1	y	0.55268
727.3892000000001	0.0	+	76	verb	phrase	1	11	nomatch	nager	-1	1	y	0.55268
727.8054000000001	0.0	+	76	verb	phrase	1	12	nomatch	nager	-1	1	y	0.55268
729.7876	0.0	NAGER	76	verb	phrase	1	13	nomatch	nager	-1	1	y	0.55268
730.404	0.0	+	76	verb	phrase	1	14	nomatch	nager	-1	1	y	0.55268
730.3403000000001	0.0	[response]	76	verb	phrase	1	15	nomatch	nager	-1	1	y	0.55268
732.1865	0.0	+	77	verb	list	2	1	match	rouge	5	1	p	0.42062
732.7362	0.2	mtlxgps	77	verb	list	2	2	match	rouge	5	1	p	0.42062
732.9362	0.0	+	77	verb	list	2	3	match	rouge	5	1	p	0.42062
733.336	0.2	bgmp	77	verb	list	2	4	match	rouge	5	1	p	0.42062
733.5359000000001	0.0	+	77	verb	list	2	5	match	rouge	5	1	p	0.42062
733.9357	0.2	ncb	77	verb	list	2	6	match	rouge	5	1	p	0.42062
734.1356000000001	0.0	+	77	verb	list	2	7	match	rouge	5	1	p	0.42062
734.5354	0.2	chasser	77	verb	list	2	8	match	rouge	5	1	p	0.42062
734.7527	0.0	+	77	verb	list	2	9	match	rouge	5	1	p	0.42062
735.1522	0.2	rouge	77	verb	list	2	10	match	rouge	5	1	p	0.42062
735.3353000000001	0.0	+	77	verb	list	2	11	match	rouge	5	1	p	0.42062
735.7355	0.0	+	77	verb	list	2	12	match	rouge	5	1	p	0.42062
737.734	0.0	ROUGE	77	verb	list	2	13	match	rouge	5	1	p	0.42062
738.2344	0.0	+	77	verb	list	2	14	match	rouge	5	1	p	0.42062
738.1546000000001	0.0	[response]	77	verb	list	2	15	match	rouge	5	1	p	0.42062
740.1496000000001	0.0	+	78	verb	phrase	2	1	nomatch	loin	-1	1	y	0.845
740.6993	0.2	jnk	78	verb	phrase	2	2	nomatch	loin	-1	1	y	0.845
740.8992000000001	0.0	+	78	verb	phrase	2	3	nomatch	loin	-1	1	y	0.845
741.2993	0.2	wcxg	78	verb	phrase	2	4	nomatch	loin	-1	1	y	0.845
741.4995	0.0	+	78	verb	phrase	2	5	nomatch	loin	-1	1	y	0.845
741.899	0.2	bmjh	78	verb	phrase	2	6	nomatch	loin	-1	1	y	0.845
742.0992	0.0	+	78	verb	phrase	2	7	nomatch	loin	-1	1	y	0.845
742.4985	0.2	beaucoup	78	verb	phrase	2	8	nomatch	loin	-1	1	y	0.845
742.6984	0.0	+	78	verb	phrase	2	9	nomatch	loin	-1	1	y	0.845
743.0982	0.2	parader	78	verb	phrase	2	10	nomatch	loin	-1	1	y	0.845
743.2982000000001	0.0	+	78	verb	phrase	2	11	nomatch	loin	-1	1	y	0.845
743.698	0.0	+	78	verb	phrase	2	12	nomatch	loin	-1	1	y	0.845
745.6971	0.0	LOIN	78	verb	phrase	2	13	nomatch	loin	-1	1	y	0.845
746.6802	0.0	+	78	verb	phrase	2	14	nomatch	loin	-1	1	y	0.845
746.5421	0.0	[response]	78	verb	phrase	2	15	nomatch	loin	-1	1	y	0.845
748.096	0.0	+	79	verb	list	2	1	match	petit	4	1	p	0.72895
748.6458	0.2	fcqg	79	verb	list	2	2	match	petit	4	1	p	0.72895
748.8457000000001	0.0	+	79	verb	list	2	3	match	petit	4	1	p	0.72895
749.2455	0.2	gfws	79	verb	list	2	4	match	petit	4	1	p	0.72895
749.4454000000001	0.0	+	79	verb	list	2	5	match	petit	4	1	p	0.72895
749.8452	0.2	ns	79	verb	list	2	6	match	petit	4	1	p	0.72895
750.0451	0.0	+	79	verb	list	2	7	match	petit	4	1	p	0.72895
750.445	0.2	petit	79	verb	list	2	8	match	petit	4	1	p	0.72895
750.6449	0.0	+	79	verb	list	2	9	match	petit	4	1	p	0.72895
751.0452	0.2	jongler	79	verb	list	2	10	match	petit	4	1	p	0.72895
751.2447000000001	0.0	+	79	verb	list	2	11	match	petit	4	1	p	0.72895
751.6451000000001	0.0	+	79	verb	list	2	12	match	petit	4	1	p	0.72895
753.6441	0.0	PETIT	79	verb	list	2	13	match	petit	4	1	p	0.72895
754.4265	0.0	+	79	verb	list	2	14	match	petit	4	1	p	0.72895
754.3731	0.0	[response]	79	verb	list	2	15	match	petit	4	1	p	0.72895
756.0424	0.0	+	80	verb	list	2	1	nomatch	bleu	-1	1	y	0.86118
756.5922	0.2	ckjg	80	verb	list	2	2	nomatch	bleu	-1	1	y	0.86118
756.7921	0.0	+	80	verb	list	2	3	nomatch	bleu	-1	1	y	0.86118
757.1919	0.2	wcxg	80	verb	list	2	4	nomatch	bleu	-1	1	y	0.86118
757.3918	0.0	+	80	verb	list	2	5	nomatch	bleu	-1	1	y	0.86118
757.7916	0.2	fzjl	80	verb	list	2	6	nomatch	bleu	-1	1	y	0.86118
757.9917	0.0	+	80	verb	list	2	7	nomatch	bleu	-1	1	y	0.86118
758.392	0.2	danser	80	verb	list	2	8	nomatch	bleu	-1	1	y	0.86118
758.5917000000001	0.0	+	80	verb	list	2	9	nomatch	bleu	-1	1	y	0.86118
758.9918	0.2	vert	80	verb	list	2	10	nomatch	bleu	-1	1	y	0.86118
759.191	0.0	+	80	verb	list	2	11	nomatch	bleu	-1	1	y	0.86118
759.5908000000001	0.0	+	80	verb	list	2	12	nomatch	bleu	-1	1	y	0.86118
761.5899000000001	0.0	BLEU	80	verb	list	2	13	nomatch	bleu	-1	1	y	0.86118
762.5062	0.0	+	80	verb	list	2	14	nomatch	bleu	-1	1	y	0.86118
763.9889000000001	0.0	+	80	verb	list	2	15	nomatch	bleu	-1	1	y	0.86118
765.0051000000001	0.0	+	80	verb	list	2	16	nomatch	bleu	-1	1	y	0.86118
765.105	0.0	+	80	verb	list	2	17	nomatch	bleu	-1	1	y	0.86118
766.5044	0.0	+	80	verb	list	2	18	nomatch	bleu	-1	1	y	0.86118
766.6043000000001	0.0	+	80	verb	list	2	19	nomatch	bleu	-1	1	y	0.86118
768.0037	0.0	+	80	verb	list	2	20	nomatch	bleu	-1	1	y	0.86118
768.1037	0.0	+	80	verb	list	2	21	nomatch	bleu	-1	1	y	0.86118
769.503	0.0	+	80	verb	list	2	22	nomatch	bleu	-1	1	y	0.86118
769.6030000000001	0.0	+	80	verb	list	2	23	nomatch	bleu	-1	1	y	0.86118
771.0024000000001	0.0	+	80	verb	list	2	24	nomatch	bleu	-1	1	y	0.86118
771.1023	0.0	+	80	verb	list	2	25	nomatch	bleu	-1	1	y	0.86118
772.5017	0.0	+	80	verb	list	2	26	nomatch	bleu	-1	1	y	0.86118
772.6016000000001	0.0	+	80	verb	list	2	27	nomatch	bleu	-1	1	y	0.86118
774.001	0.0	+	80	verb	list	2	28	nomatch	bleu	-1	1	y	0.86118
774.101	0.0	+	80	verb	list	2	29	nomatch	bleu	-1	1	y	0.86118
775.5003	0.0	+	80	verb	list	2	30	nomatch	bleu	-1	1	y	0.86118
775.6003000000001	0.0	+	80	verb	list	2	31	nomatch	bleu	-1	1	y	0.86118
776.9997000000001	0.0	+	80	verb	list	2	32	nomatch	bleu	-1	1	y	0.86118
777.0996	0.0	+	80	verb	list	2	33	nomatch	bleu	-1	1	y	0.86118
778.499	0.0	+	80	verb	list	2	34	nomatch	bleu	-1	1	y	0.86118
778.5989000000001	0.0	+	80	verb	list	2	35	nomatch	bleu	-1	1	y	0.86118
782.7637000000001	0.0	+	80	verb	list	2	36	nomatch	bleu	-1	1	y	0.86118
762.4511	0.0	[response]	80	verb	list	2	37	nomatch	bleu	-1	1	y	0.86118
