onset	duration	stim	trial_number	trial_type	trial_structure	trial_length	sequential_position	probe_type	probe	probe_position	response_correct	response_key	response_time
0.060000000000002274	0.0	+	1	noun	phrase	1	1	match	boîtier	5	1	p	0.97902
0.5430999999999955	0.2	vrhn	1	noun	phrase	1	2	match	boîtier	5	1	p	0.97902
0.742999999999995	0.0	+	1	noun	phrase	1	3	match	boîtier	5	1	p	0.97902
1.142799999999994	0.2	xpd	1	noun	phrase	1	4	match	boîtier	5	1	p	0.97902
1.3426999999999936	0.0	+	1	noun	phrase	1	5	match	boîtier	5	1	p	0.97902
1.7425000000000068	0.2	ncb	1	noun	phrase	1	6	match	boîtier	5	1	p	0.97902
1.9424999999999955	0.0	+	1	noun	phrase	1	7	match	boîtier	5	1	p	0.97902
2.3422999999999945	0.2	dsnfm	1	noun	phrase	1	8	match	boîtier	5	1	p	0.97902
2.542199999999994	0.0	+	1	noun	phrase	1	9	match	boîtier	5	1	p	0.97902
2.9420000000000073	0.2	boîtier	1	noun	phrase	1	10	match	boîtier	5	1	p	0.97902
3.141900000000007	0.0	+	1	noun	phrase	1	11	match	boîtier	5	1	p	0.97902
3.541700000000006	0.0	+	1	noun	phrase	1	12	match	boîtier	5	1	p	0.97902
5.540800000000004	0.0	BOÎTIER	1	noun	phrase	1	13	match	boîtier	5	1	p	0.97902
6.573700000000002	0.0	+	1	noun	phrase	1	14	match	boîtier	5	1	p	0.97902
6.519800000000004	0.0	[response]	1	noun	phrase	1	15	match	boîtier	5	1	p	0.97902
7.939800000000005	0.0	+	2	noun	phrase	4	1	match	sans	2	1	p	0.70127
8.489500000000007	0.2	xftb	2	noun	phrase	4	2	match	sans	2	1	p	0.70127
8.689400000000006	0.0	+	2	noun	phrase	4	3	match	sans	2	1	p	0.70127
9.089200000000005	0.2	sans	2	noun	phrase	4	4	match	sans	2	1	p	0.70127
9.289100000000005	0.0	+	2	noun	phrase	4	5	match	sans	2	1	p	0.70127
9.689000000000007	0.2	son	2	noun	phrase	4	6	match	sans	2	1	p	0.70127
9.888900000000007	0.0	+	2	noun	phrase	4	7	match	sans	2	1	p	0.70127
10.288899999999998	0.2	grand	2	noun	phrase	4	8	match	sans	2	1	p	0.70127
10.489199999999997	0.0	+	2	noun	phrase	4	9	match	sans	2	1	p	0.70127
10.8887	0.2	rocher	2	noun	phrase	4	10	match	sans	2	1	p	0.70127
11.088999999999999	0.0	+	2	noun	phrase	4	11	match	sans	2	1	p	0.70127
11.505399999999995	0.0	+	2	noun	phrase	4	12	match	sans	2	1	p	0.70127
13.487300000000005	0.0	SANS	2	noun	phrase	4	13	match	sans	2	1	p	0.70127
14.253600000000006	0.0	+	2	noun	phrase	4	14	match	sans	2	1	p	0.70127
14.188500000000005	0.0	[response]	2	noun	phrase	4	15	match	sans	2	1	p	0.70127
15.886200000000002	0.0	+	3	noun	list	3	1	nomatch	doit	-1	1	y	1.0455
16.435900000000004	0.2	fxbjlv	3	noun	list	3	2	nomatch	doit	-1	1	y	1.0455
16.635900000000007	0.0	+	3	noun	list	3	3	nomatch	doit	-1	1	y	1.0455
17.036199999999994	0.2	xpd	3	noun	list	3	4	nomatch	doit	-1	1	y	1.0455
17.235600000000005	0.0	+	3	noun	list	3	5	nomatch	doit	-1	1	y	1.0455
17.635400000000004	0.2	peut	3	noun	list	3	6	nomatch	doit	-1	1	y	1.0455
17.835300000000004	0.0	+	3	noun	list	3	7	nomatch	doit	-1	1	y	1.0455
18.235100000000003	0.2	tablier	3	noun	list	3	8	nomatch	doit	-1	1	y	1.0455
18.435000000000002	0.0	+	3	noun	list	3	9	nomatch	doit	-1	1	y	1.0455
18.8348	0.2	loin	3	noun	list	3	10	nomatch	doit	-1	1	y	1.0455
19.034800000000004	0.0	+	3	noun	list	3	11	nomatch	doit	-1	1	y	1.0455
19.434799999999996	0.0	+	3	noun	list	3	12	nomatch	doit	-1	1	y	1.0455
21.4337	0.0	DOIT	3	noun	list	3	13	nomatch	doit	-1	1	y	1.0455
22.533199999999994	0.0	+	3	noun	list	3	14	nomatch	doit	-1	1	y	1.0455
22.479299999999995	0.0	[response]	3	noun	list	3	15	nomatch	doit	-1	1	y	1.0455
23.8493	0.0	+	4	noun	phrase	2	1	nomatch	petit	-1	0	p	0.95819
24.399	0.2	bcqtp	4	noun	phrase	2	2	nomatch	petit	-1	0	p	0.95819
24.5989	0.0	+	4	noun	phrase	2	3	nomatch	petit	-1	0	p	0.95819
24.9987	0.2	pcms	4	noun	phrase	2	4	nomatch	petit	-1	0	p	0.95819
25.198700000000002	0.0	+	4	noun	phrase	2	5	nomatch	petit	-1	0	p	0.95819
25.5985	0.2	fbd	4	noun	phrase	2	6	nomatch	petit	-1	0	p	0.95819
25.7984	0.0	+	4	noun	phrase	2	7	nomatch	petit	-1	0	p	0.95819
26.1982	0.2	beau	4	noun	phrase	2	8	nomatch	petit	-1	0	p	0.95819
26.398700000000005	0.0	+	4	noun	phrase	2	9	nomatch	petit	-1	0	p	0.95819
26.814999999999998	0.2	grenier	4	noun	phrase	2	10	nomatch	petit	-1	0	p	0.95819
26.998099999999994	0.0	+	4	noun	phrase	2	11	nomatch	petit	-1	0	p	0.95819
27.3977	0.0	+	4	noun	phrase	2	12	nomatch	petit	-1	0	p	0.95819
29.397400000000005	0.0	PETIT	4	noun	phrase	2	13	nomatch	petit	-1	0	p	0.95819
30.496399999999994	0.0	+	4	noun	phrase	2	14	nomatch	petit	-1	0	p	0.95819
30.355599999999995	0.0	[response]	4	noun	phrase	2	15	nomatch	petit	-1	0	p	0.95819
31.795699999999997	0.0	+	5	verb	phrase	1	1	match	vite	5	1	p	0.84585
32.3454	0.2	xgj	5	verb	phrase	1	2	match	vite	5	1	p	0.84585
32.5453	0.0	+	5	verb	phrase	1	3	match	vite	5	1	p	0.84585
32.9452	0.2	bgmp	5	verb	phrase	1	4	match	vite	5	1	p	0.84585
33.1451	0.0	+	5	verb	phrase	1	5	match	vite	5	1	p	0.84585
33.5449	0.2	zhcb	5	verb	phrase	1	6	match	vite	5	1	p	0.84585
33.7448	0.0	+	5	verb	phrase	1	7	match	vite	5	1	p	0.84585
34.1452	0.2	vjwsmzp	5	verb	phrase	1	8	match	vite	5	1	p	0.84585
34.344899999999996	0.0	+	5	verb	phrase	1	9	match	vite	5	1	p	0.84585
34.7444	0.2	vite	5	verb	phrase	1	10	match	vite	5	1	p	0.84585
34.944900000000004	0.0	+	5	verb	phrase	1	11	match	vite	5	1	p	0.84585
35.3445	0.0	+	5	verb	phrase	1	12	match	vite	5	1	p	0.84585
37.343199999999996	0.0	VITE	5	verb	phrase	1	13	match	vite	5	1	p	0.84585
38.2428	0.0	+	5	verb	phrase	1	14	match	vite	5	1	p	0.84585
38.18900000000001	0.0	[response]	5	verb	phrase	1	15	match	vite	5	1	p	0.84585
39.74209999999999	0.0	+	6	verb	phrase	1	1	nomatch	voyager	-1	1	y	0.8296
40.2919	0.2	tfmnk	6	verb	phrase	1	2	nomatch	voyager	-1	1	y	0.8296
40.4918	0.0	+	6	verb	phrase	1	3	nomatch	voyager	-1	1	y	0.8296
40.8916	0.2	qskv	6	verb	phrase	1	4	nomatch	voyager	-1	1	y	0.8296
41.091499999999996	0.0	+	6	verb	phrase	1	5	nomatch	voyager	-1	1	y	0.8296
41.491299999999995	0.2	ns	6	verb	phrase	1	6	nomatch	voyager	-1	1	y	0.8296
41.691199999999995	0.0	+	6	verb	phrase	1	7	nomatch	voyager	-1	1	y	0.8296
42.0911	0.2	pnk	6	verb	phrase	1	8	nomatch	voyager	-1	1	y	0.8296
42.3077	0.0	+	6	verb	phrase	1	9	nomatch	voyager	-1	1	y	0.8296
42.6913	0.2	chasser	6	verb	phrase	1	10	nomatch	voyager	-1	1	y	0.8296
42.891000000000005	0.0	+	6	verb	phrase	1	11	nomatch	voyager	-1	1	y	0.8296
43.290499999999994	0.0	+	6	verb	phrase	1	12	nomatch	voyager	-1	1	y	0.8296
45.28960000000001	0.0	VOYAGER	6	verb	phrase	1	13	nomatch	voyager	-1	1	y	0.8296
46.2398	0.0	+	6	verb	phrase	1	14	nomatch	voyager	-1	1	y	0.8296
46.119200000000006	0.0	[response]	6	verb	phrase	1	15	nomatch	voyager	-1	1	y	0.8296
47.688500000000005	0.0	+	7	verb	phrase	4	1	nomatch	sous	-1	1	y	0.89345
48.238299999999995	0.2	pjqc	7	verb	phrase	4	2	nomatch	sous	-1	1	y	0.89345
48.438199999999995	0.0	+	7	verb	phrase	4	3	nomatch	sous	-1	1	y	0.89345
48.837999999999994	0.2	paul	7	verb	phrase	4	4	nomatch	sous	-1	1	y	0.89345
49.03830000000001	0.0	+	7	verb	phrase	4	5	nomatch	sous	-1	1	y	0.89345
49.437799999999996	0.2	doit	7	verb	phrase	4	6	nomatch	sous	-1	1	y	0.89345
49.6379	0.0	+	7	verb	phrase	4	7	nomatch	sous	-1	1	y	0.89345
50.0381	0.2	moins	7	verb	phrase	4	8	nomatch	sous	-1	1	y	0.89345
50.2375	0.0	+	7	verb	phrase	4	9	nomatch	sous	-1	1	y	0.89345
50.63720000000001	0.2	parader	7	verb	phrase	4	10	nomatch	sous	-1	1	y	0.89345
50.83710000000001	0.0	+	7	verb	phrase	4	11	nomatch	sous	-1	1	y	0.89345
51.236900000000006	0.0	+	7	verb	phrase	4	12	nomatch	sous	-1	1	y	0.89345
53.236000000000004	0.0	SOUS	7	verb	phrase	4	13	nomatch	sous	-1	1	y	0.89345
54.185599999999994	0.0	+	7	verb	phrase	4	14	nomatch	sous	-1	1	y	0.89345
54.12950000000001	0.0	[response]	7	verb	phrase	4	15	nomatch	sous	-1	1	y	0.89345
55.635000000000005	0.0	+	8	noun	phrase	4	1	nomatch	va	-1	1	y	0.91586
56.18470000000001	0.2	xpnmz	8	noun	phrase	4	2	nomatch	va	-1	1	y	0.91586
56.384600000000006	0.0	+	8	noun	phrase	4	3	nomatch	va	-1	1	y	0.91586
56.78490000000001	0.2	pour	8	noun	phrase	4	4	nomatch	va	-1	1	y	0.91586
56.984700000000004	0.0	+	8	noun	phrase	4	5	nomatch	va	-1	1	y	0.91586
57.38420000000001	0.2	mon	8	noun	phrase	4	6	nomatch	va	-1	1	y	0.91586
57.58410000000001	0.0	+	8	noun	phrase	4	7	nomatch	va	-1	1	y	0.91586
57.983900000000006	0.2	petit	8	noun	phrase	4	8	nomatch	va	-1	1	y	0.91586
58.183800000000005	0.0	+	8	noun	phrase	4	9	nomatch	va	-1	1	y	0.91586
58.583600000000004	0.2	boîtier	8	noun	phrase	4	10	nomatch	va	-1	1	y	0.91586
58.78360000000001	0.0	+	8	noun	phrase	4	11	nomatch	va	-1	1	y	0.91586
59.2	0.0	+	8	noun	phrase	4	12	nomatch	va	-1	1	y	0.91586
61.1991	0.0	VA	8	noun	phrase	4	13	nomatch	va	-1	1	y	0.91586
62.182	0.0	+	8	noun	phrase	4	14	nomatch	va	-1	1	y	0.91586
62.114999999999995	0.0	[response]	8	noun	phrase	4	15	nomatch	va	-1	1	y	0.91586
63.598	0.0	+	9	noun	phrase	1	1	match	casier	5	1	p	0.47456000000000004
64.1478	0.2	zhxcvld	9	noun	phrase	1	2	match	casier	5	1	p	0.47456000000000004
64.34769999999999	0.0	+	9	noun	phrase	1	3	match	casier	5	1	p	0.47456000000000004
64.74749999999999	0.2	lwsf	9	noun	phrase	1	4	match	casier	5	1	p	0.47456000000000004
64.9474	0.0	+	9	noun	phrase	1	5	match	casier	5	1	p	0.47456000000000004
65.34779999999999	0.2	fzjl	9	noun	phrase	1	6	match	casier	5	1	p	0.47456000000000004
65.56420000000001	0.0	+	9	noun	phrase	1	7	match	casier	5	1	p	0.47456000000000004
65.94770000000001	0.2	zxmqw	9	noun	phrase	1	8	match	casier	5	1	p	0.47456000000000004
66.1475	0.0	+	9	noun	phrase	1	9	match	casier	5	1	p	0.47456000000000004
66.5467	0.2	casier	9	noun	phrase	1	10	match	casier	5	1	p	0.47456000000000004
66.74659999999999	0.0	+	9	noun	phrase	1	11	match	casier	5	1	p	0.47456000000000004
67.14649999999999	0.0	+	9	noun	phrase	1	12	match	casier	5	1	p	0.47456000000000004
69.14550000000001	0.0	CASIER	9	noun	phrase	1	13	match	casier	5	1	p	0.47456000000000004
69.6786	0.0	+	9	noun	phrase	1	14	match	casier	5	1	p	0.47456000000000004
69.6201	0.0	[response]	9	noun	phrase	1	15	match	casier	5	1	p	0.47456000000000004
71.54450000000001	0.0	+	10	noun	phrase	2	1	nomatch	vieux	-1	1	y	0.93299
72.09419999999999	0.2	fwlvtc	10	noun	phrase	2	2	nomatch	vieux	-1	1	y	0.93299
72.2941	0.0	+	10	noun	phrase	2	3	nomatch	vieux	-1	1	y	0.93299
72.6939	0.2	pcms	10	noun	phrase	2	4	nomatch	vieux	-1	1	y	0.93299
72.89450000000001	0.0	+	10	noun	phrase	2	5	nomatch	vieux	-1	1	y	0.93299
73.2942	0.2	ncb	10	noun	phrase	2	6	nomatch	vieux	-1	1	y	0.93299
73.4936	0.0	+	10	noun	phrase	2	7	nomatch	vieux	-1	1	y	0.93299
73.8934	0.2	grenier	10	noun	phrase	2	8	nomatch	vieux	-1	1	y	0.93299
74.09330000000001	0.0	+	10	noun	phrase	2	9	nomatch	vieux	-1	1	y	0.93299
74.49310000000001	0.2	bleu	10	noun	phrase	2	10	nomatch	vieux	-1	1	y	0.93299
74.6931	0.0	+	10	noun	phrase	2	11	nomatch	vieux	-1	1	y	0.93299
75.0929	0.0	+	10	noun	phrase	2	12	nomatch	vieux	-1	1	y	0.93299
77.0922	0.0	VIEUX	10	noun	phrase	2	13	nomatch	vieux	-1	1	y	0.93299
78.15859999999999	0.0	+	10	noun	phrase	2	14	nomatch	vieux	-1	1	y	0.93299
78.0252	0.0	[response]	10	noun	phrase	2	15	nomatch	vieux	-1	1	y	0.93299
79.52489999999999	0.0	+	11	noun	phrase	1	1	match	petit	5	1	p	0.60138
80.04129999999999	0.2	hfrzc	11	noun	phrase	1	2	match	petit	5	1	p	0.60138
80.2412	0.0	+	11	noun	phrase	1	3	match	petit	5	1	p	0.60138
80.64040000000001	0.2	tdmv	11	noun	phrase	1	4	match	petit	5	1	p	0.60138
80.8403	0.0	+	11	noun	phrase	1	5	match	petit	5	1	p	0.60138
81.2401	0.2	fbd	11	noun	phrase	1	6	match	petit	5	1	p	0.60138
81.4403	0.0	+	11	noun	phrase	1	7	match	petit	5	1	p	0.60138
81.83980000000001	0.2	srpmjfb	11	noun	phrase	1	8	match	petit	5	1	p	0.60138
82.0398	0.0	+	11	noun	phrase	1	9	match	petit	5	1	p	0.60138
82.4396	0.2	petit	11	noun	phrase	1	10	match	petit	5	1	p	0.60138
82.63950000000001	0.0	+	11	noun	phrase	1	11	match	petit	5	1	p	0.60138
83.03930000000001	0.0	+	11	noun	phrase	1	12	match	petit	5	1	p	0.60138
85.0391	0.0	PETIT	11	noun	phrase	1	13	match	petit	5	1	p	0.60138
85.70479999999999	0.0	+	11	noun	phrase	1	14	match	petit	5	1	p	0.60138
85.64049999999999	0.0	[response]	11	noun	phrase	1	15	match	petit	5	1	p	0.60138
87.43730000000001	0.0	+	12	noun	list	1	1	nomatch	ainsi	-1	1	y	0.67549
87.98710000000001	0.2	nlmphbj	12	noun	list	1	2	nomatch	ainsi	-1	1	y	0.67549
88.187	0.0	+	12	noun	list	1	3	nomatch	ainsi	-1	1	y	0.67549
88.5868	0.2	xpd	12	noun	list	1	4	nomatch	ainsi	-1	1	y	0.67549
88.78670000000001	0.0	+	12	noun	list	1	5	nomatch	ainsi	-1	1	y	0.67549
89.20379999999999	0.2	zhcb	12	noun	list	1	6	nomatch	ainsi	-1	1	y	0.67549
89.38700000000001	0.0	+	12	noun	list	1	7	nomatch	ainsi	-1	1	y	0.67549
89.8036	0.2	zxpdsw	12	noun	list	1	8	nomatch	ainsi	-1	1	y	0.67549
89.9867	0.0	+	12	noun	list	1	9	nomatch	ainsi	-1	1	y	0.67549
90.38600000000001	0.2	vite	12	noun	list	1	10	nomatch	ainsi	-1	1	y	0.67549
90.5859	0.0	+	12	noun	list	1	11	nomatch	ainsi	-1	1	y	0.67549
90.9857	0.0	+	12	noun	list	1	12	nomatch	ainsi	-1	1	y	0.67549
92.9852	0.0	AINSI	12	noun	list	1	13	nomatch	ainsi	-1	1	y	0.67549
93.7178	0.0	+	12	noun	list	1	14	nomatch	ainsi	-1	1	y	0.67549
93.6607	0.0	[response]	12	noun	list	1	15	nomatch	ainsi	-1	1	y	0.67549
95.3838	0.0	+	13	verb	list	4	1	nomatch	moins	-1	1	y	0.78094
95.9337	0.2	zbgm	13	verb	list	4	2	nomatch	moins	-1	1	y	0.78094
96.1501	0.0	+	13	verb	list	4	3	nomatch	moins	-1	1	y	0.78094
96.5499	0.2	sous	13	verb	list	4	4	nomatch	moins	-1	1	y	0.78094
96.75009999999999	0.0	+	13	verb	list	4	5	nomatch	moins	-1	1	y	0.78094
97.1496	0.2	va	13	verb	list	4	6	nomatch	moins	-1	1	y	0.78094
97.35010000000001	0.0	+	13	verb	list	4	7	nomatch	moins	-1	1	y	0.78094
97.74929999999999	0.2	vieux	13	verb	list	4	8	nomatch	moins	-1	1	y	0.78094
97.94930000000001	0.0	+	13	verb	list	4	9	nomatch	moins	-1	1	y	0.78094
98.3491	0.2	patiner	13	verb	list	4	10	nomatch	moins	-1	1	y	0.78094
98.54899999999999	0.0	+	13	verb	list	4	11	nomatch	moins	-1	1	y	0.78094
98.94879999999999	0.0	+	13	verb	list	4	12	nomatch	moins	-1	1	y	0.78094
100.96470000000001	0.0	MOINS	13	verb	list	4	13	nomatch	moins	-1	1	y	0.78094
101.84750000000001	0.0	+	13	verb	list	4	14	nomatch	moins	-1	1	y	0.78094
101.74560000000001	0.0	[response]	13	verb	list	4	15	nomatch	moins	-1	1	y	0.78094
103.34679999999999	0.0	+	14	noun	list	1	1	nomatch	loin	-1	1	y	0.61233
103.89659999999999	0.2	pzfmbl	14	noun	list	1	2	nomatch	loin	-1	1	y	0.61233
104.0965	0.0	+	14	noun	list	1	3	nomatch	loin	-1	1	y	0.61233
104.4969	0.2	xpd	14	noun	list	1	4	nomatch	loin	-1	1	y	0.61233
104.6964	0.0	+	14	noun	list	1	5	nomatch	loin	-1	1	y	0.61233
105.0963	0.2	zhcb	14	noun	list	1	6	nomatch	loin	-1	1	y	0.61233
105.296	0.0	+	14	noun	list	1	7	nomatch	loin	-1	1	y	0.61233
105.6958	0.2	wbgzkc	14	noun	list	1	8	nomatch	loin	-1	1	y	0.61233
105.89569999999999	0.0	+	14	noun	list	1	9	nomatch	loin	-1	1	y	0.61233
106.29549999999999	0.2	ainsi	14	noun	list	1	10	nomatch	loin	-1	1	y	0.61233
106.4954	0.0	+	14	noun	list	1	11	nomatch	loin	-1	1	y	0.61233
106.8952	0.0	+	14	noun	list	1	12	nomatch	loin	-1	1	y	0.61233
108.8944	0.0	LOIN	14	noun	list	1	13	nomatch	loin	-1	1	y	0.61233
109.56070000000001	0.0	+	14	noun	list	1	14	nomatch	loin	-1	1	y	0.61233
109.50670000000001	0.0	[response]	14	noun	list	1	15	nomatch	loin	-1	1	y	0.61233
111.2933	0.0	+	15	noun	phrase	1	1	match	rouge	5	1	p	0.48171
111.843	0.2	gvwmlpd	15	noun	phrase	1	2	match	rouge	5	1	p	0.48171
112.04289999999999	0.0	+	15	noun	phrase	1	3	match	rouge	5	1	p	0.48171
112.44269999999999	0.2	gmcl	15	noun	phrase	1	4	match	rouge	5	1	p	0.48171
112.6426	0.0	+	15	noun	phrase	1	5	match	rouge	5	1	p	0.48171
113.0425	0.2	fbd	15	noun	phrase	1	6	match	rouge	5	1	p	0.48171
113.24239999999999	0.0	+	15	noun	phrase	1	7	match	rouge	5	1	p	0.48171
113.6426	0.2	tdjwhlg	15	noun	phrase	1	8	match	rouge	5	1	p	0.48171
113.8591	0.0	+	15	noun	phrase	1	9	match	rouge	5	1	p	0.48171
114.2419	0.2	rouge	15	noun	phrase	1	10	match	rouge	5	1	p	0.48171
114.44179999999999	0.0	+	15	noun	phrase	1	11	match	rouge	5	1	p	0.48171
114.84160000000001	0.0	+	15	noun	phrase	1	12	match	rouge	5	1	p	0.48171
116.84150000000001	0.0	ROUGE	15	noun	phrase	1	13	match	rouge	5	1	p	0.48171
117.39049999999999	0.0	+	15	noun	phrase	1	14	match	rouge	5	1	p	0.48171
117.3232	0.0	[response]	15	noun	phrase	1	15	match	rouge	5	1	p	0.48171
119.25699999999999	0.0	+	16	noun	phrase	3	1	match	petit	4	1	p	1.1499
119.79	0.2	ckwtb	16	noun	phrase	3	2	match	petit	4	1	p	1.1499
119.99	0.0	+	16	noun	phrase	3	3	match	petit	4	1	p	1.1499
120.38940000000001	0.2	lwsf	16	noun	phrase	3	4	match	petit	4	1	p	1.1499
120.58909999999999	0.0	+	16	noun	phrase	3	5	match	petit	4	1	p	1.1499
120.98889999999999	0.2	leur	16	noun	phrase	3	6	match	petit	4	1	p	1.1499
121.1888	0.0	+	16	noun	phrase	3	7	match	petit	4	1	p	1.1499
121.5886	0.2	petit	16	noun	phrase	3	8	match	petit	4	1	p	1.1499
121.78850000000001	0.0	+	16	noun	phrase	3	9	match	petit	4	1	p	1.1499
122.18830000000001	0.2	rocher	16	noun	phrase	3	10	match	petit	4	1	p	1.1499
122.3883	0.0	+	16	noun	phrase	3	11	match	petit	4	1	p	1.1499
122.7881	0.0	+	16	noun	phrase	3	12	match	petit	4	1	p	1.1499
124.8045	0.0	PETIT	16	noun	phrase	3	13	match	petit	4	1	p	1.1499
126.02	0.0	+	16	noun	phrase	3	14	match	petit	4	1	p	1.1499
125.95440000000004	0.0	[response]	16	noun	phrase	3	15	match	petit	4	1	p	1.1499
127.1861	0.0	+	17	verb	phrase	3	1	match	plus	4	1	p	0.81519
127.7359	0.2	qlbpsg	17	verb	phrase	3	2	match	plus	4	1	p	0.81519
127.93580000000001	0.0	+	17	verb	phrase	3	3	match	plus	4	1	p	0.81519
128.3356	0.2	ckf	17	verb	phrase	3	4	match	plus	4	1	p	0.81519
128.5355	0.0	+	17	verb	phrase	3	5	match	plus	4	1	p	0.81519
128.93529999999998	0.2	va	17	verb	phrase	3	6	match	plus	4	1	p	0.81519
129.152	0.0	+	17	verb	phrase	3	7	match	plus	4	1	p	0.81519
129.5356	0.2	plus	17	verb	phrase	3	8	match	plus	4	1	p	0.81519
129.7353	0.0	+	17	verb	phrase	3	9	match	plus	4	1	p	0.81519
130.13479999999998	0.2	danser	17	verb	phrase	3	10	match	plus	4	1	p	0.81519
130.33479999999997	0.0	+	17	verb	phrase	3	11	match	plus	4	1	p	0.81519
130.73450000000003	0.0	+	17	verb	phrase	3	12	match	plus	4	1	p	0.81519
132.75029999999998	0.0	PLUS	17	verb	phrase	3	13	match	plus	4	1	p	0.81519
133.6332	0.0	+	17	verb	phrase	3	14	match	plus	4	1	p	0.81519
133.5655	0.0	[response]	17	verb	phrase	3	15	match	plus	4	1	p	0.81519
135.1492	0.0	+	18	noun	list	4	1	nomatch	doit	-1	1	y	0.8635
135.69889999999998	0.2	vmgpcdw	18	noun	list	4	2	nomatch	doit	-1	1	y	0.8635
135.8988	0.0	+	18	noun	list	4	3	nomatch	doit	-1	1	y	0.8635
136.2987	0.2	marc	18	noun	list	4	4	nomatch	doit	-1	1	y	0.8635
136.4986	0.0	+	18	noun	list	4	5	nomatch	doit	-1	1	y	0.8635
136.89839999999998	0.2	mon	18	noun	list	4	6	nomatch	doit	-1	1	y	0.8635
137.0983	0.0	+	18	noun	list	4	7	nomatch	doit	-1	1	y	0.8635
137.4984	0.2	moins	18	noun	list	4	8	nomatch	doit	-1	1	y	0.8635
137.6981	0.0	+	18	noun	list	4	9	nomatch	doit	-1	1	y	0.8635
138.09840000000003	0.2	sablier	18	noun	list	4	10	nomatch	doit	-1	1	y	0.8635
138.2978	0.0	+	18	noun	list	4	11	nomatch	doit	-1	1	y	0.8635
138.69760000000002	0.0	+	18	noun	list	4	12	nomatch	doit	-1	1	y	0.8635
140.69670000000002	0.0	DOIT	18	noun	list	4	13	nomatch	doit	-1	1	y	0.8635
141.69619999999998	0.0	+	18	noun	list	4	14	nomatch	doit	-1	1	y	0.8635
141.5602	0.0	[response]	18	noun	list	4	15	nomatch	doit	-1	1	y	0.8635
159.1057	0.0	+	19	noun	list	1	1	nomatch	dans	-1	1	y	0.64841
159.63819999999998	0.2	dnfwkbx	19	noun	list	1	2	nomatch	dans	-1	1	y	0.64841
159.8381	0.0	+	19	noun	list	1	3	nomatch	dans	-1	1	y	0.64841
160.23790000000002	0.2	pcms	19	noun	list	1	4	nomatch	dans	-1	1	y	0.64841
160.43779999999998	0.0	+	19	noun	list	1	5	nomatch	dans	-1	1	y	0.64841
160.8376	0.2	bmjh	19	noun	list	1	6	nomatch	dans	-1	1	y	0.64841
161.03750000000002	0.0	+	19	noun	list	1	7	nomatch	dans	-1	1	y	0.64841
161.43740000000003	0.2	hrjx	19	noun	list	1	8	nomatch	dans	-1	1	y	0.64841
161.65410000000003	0.0	+	19	noun	list	1	9	nomatch	dans	-1	1	y	0.64841
162.03769999999997	0.2	tablier	19	noun	list	1	10	nomatch	dans	-1	1	y	0.64841
162.23700000000002	0.0	+	19	noun	list	1	11	nomatch	dans	-1	1	y	0.64841
162.6368	0.0	+	19	noun	list	1	12	nomatch	dans	-1	1	y	0.64841
164.6528	0.0	DANS	19	noun	list	1	13	nomatch	dans	-1	1	y	0.64841
165.4525	0.0	+	19	noun	list	1	14	nomatch	dans	-1	1	y	0.64841
165.3012	0.0	[response]	19	noun	list	1	15	nomatch	dans	-1	1	y	0.64841
167.03480000000002	0.0	+	20	verb	list	1	1	nomatch	yves	-1	1	y	0.65553
167.58460000000002	0.2	ljftdn	20	verb	list	1	2	nomatch	yves	-1	1	y	0.65553
167.78449999999998	0.0	+	20	verb	list	1	3	nomatch	yves	-1	1	y	0.65553
168.1843	0.2	sxpw	20	verb	list	1	4	nomatch	yves	-1	1	y	0.65553
168.38420000000002	0.0	+	20	verb	list	1	5	nomatch	yves	-1	1	y	0.65553
168.78410000000002	0.2	fzjl	20	verb	list	1	6	nomatch	yves	-1	1	y	0.65553
168.98399999999998	0.0	+	20	verb	list	1	7	nomatch	yves	-1	1	y	0.65553
169.3843	0.2	bnhlw	20	verb	list	1	8	nomatch	yves	-1	1	y	0.65553
169.601	0.0	+	20	verb	list	1	9	nomatch	yves	-1	1	y	0.65553
169.98379999999997	0.2	rouge	20	verb	list	1	10	nomatch	yves	-1	1	y	0.65553
170.20030000000003	0.0	+	20	verb	list	1	11	nomatch	yves	-1	1	y	0.65553
170.5999	0.0	+	20	verb	list	1	12	nomatch	yves	-1	1	y	0.65553
172.599	0.0	YVES	20	verb	list	1	13	nomatch	yves	-1	1	y	0.65553
173.31529999999998	0.0	+	20	verb	list	1	14	nomatch	yves	-1	1	y	0.65553
173.2545	0.0	[response]	20	verb	list	1	15	nomatch	yves	-1	1	y	0.65553
182.9943	0.0	+	21	noun	phrase	2	1	match	tablier	4	1	p	0.80675
183.54410000000001	0.2	lrztwgx	21	noun	phrase	2	2	match	tablier	4	1	p	0.80675
183.74400000000003	0.0	+	21	noun	phrase	2	3	match	tablier	4	1	p	0.80675
184.1443	0.2	xpd	21	noun	phrase	2	4	match	tablier	4	1	p	0.80675
184.34410000000003	0.0	+	21	noun	phrase	2	5	match	tablier	4	1	p	0.80675
184.74349999999998	0.2	fbd	21	noun	phrase	2	6	match	tablier	4	1	p	0.80675
184.9441	0.0	+	21	noun	phrase	2	7	match	tablier	4	1	p	0.80675
185.3433	0.2	tablier	21	noun	phrase	2	8	match	tablier	4	1	p	0.80675
185.5432	0.0	+	21	noun	phrase	2	9	match	tablier	4	1	p	0.80675
185.94299999999998	0.2	blanc	21	noun	phrase	2	10	match	tablier	4	1	p	0.80675
186.1429	0.0	+	21	noun	phrase	2	11	match	tablier	4	1	p	0.80675
186.54270000000002	0.0	+	21	noun	phrase	2	12	match	tablier	4	1	p	0.80675
188.54180000000002	0.0	TABLIER	21	noun	phrase	2	13	match	tablier	4	1	p	0.80675
189.4081	0.0	+	21	noun	phrase	2	14	match	tablier	4	1	p	0.80675
189.34860000000003	0.0	[response]	21	noun	phrase	2	15	match	tablier	4	1	p	0.80675
190.94079999999997	0.0	+	22	noun	list	1	1	match	trop	5	1	p	0.46602
191.4905	0.2	xvh	22	noun	list	1	2	match	trop	5	1	p	0.46602
191.7076	0.0	+	22	noun	list	1	3	match	trop	5	1	p	0.46602
192.1071	0.2	ztfk	22	noun	list	1	4	match	trop	5	1	p	0.46602
192.29019999999997	0.0	+	22	noun	list	1	5	match	trop	5	1	p	0.46602
192.69	0.2	fzjl	22	noun	list	1	6	match	trop	5	1	p	0.46602
192.8899	0.0	+	22	noun	list	1	7	match	trop	5	1	p	0.46602
193.28969999999998	0.2	tdjwhlg	22	noun	list	1	8	match	trop	5	1	p	0.46602
193.4896	0.0	+	22	noun	list	1	9	match	trop	5	1	p	0.46602
193.88939999999997	0.2	trop	22	noun	list	1	10	match	trop	5	1	p	0.46602
194.08929999999998	0.0	+	22	noun	list	1	11	match	trop	5	1	p	0.46602
194.48969999999997	0.0	+	22	noun	list	1	12	match	trop	5	1	p	0.46602
196.48829999999998	0.0	TROP	22	noun	list	1	13	match	trop	5	1	p	0.46602
197.0213	0.0	+	22	noun	list	1	14	match	trop	5	1	p	0.46602
196.9543	0.0	[response]	22	noun	list	1	15	match	trop	5	1	p	0.46602
198.8872	0.0	+	23	noun	phrase	3	1	nomatch	peut	-1	1	y	0.61088
199.43689999999998	0.2	xlrtnfk	23	noun	phrase	3	2	nomatch	peut	-1	1	y	0.61088
199.6368	0.0	+	23	noun	phrase	3	3	nomatch	peut	-1	1	y	0.61088
200.0367	0.2	gfws	23	noun	phrase	3	4	nomatch	peut	-1	1	y	0.61088
200.23699999999997	0.0	+	23	noun	phrase	3	5	nomatch	peut	-1	1	y	0.61088
200.637	0.2	leur	23	noun	phrase	3	6	nomatch	peut	-1	1	y	0.61088
200.837	0.0	+	23	noun	phrase	3	7	nomatch	peut	-1	1	y	0.61088
201.2366	0.2	beau	23	noun	phrase	3	8	nomatch	peut	-1	1	y	0.61088
201.43599999999998	0.0	+	23	noun	phrase	3	9	nomatch	peut	-1	1	y	0.61088
201.8358	0.2	tablier	23	noun	phrase	3	10	nomatch	peut	-1	1	y	0.61088
202.0358	0.0	+	23	noun	phrase	3	11	nomatch	peut	-1	1	y	0.61088
202.43559999999997	0.0	+	23	noun	phrase	3	12	nomatch	peut	-1	1	y	0.61088
204.43469999999996	0.0	PEUT	23	noun	phrase	3	13	nomatch	peut	-1	1	y	0.61088
205.15109999999999	0.0	+	23	noun	phrase	3	14	nomatch	peut	-1	1	y	0.61088
205.04559999999998	0.0	[response]	23	noun	phrase	3	15	nomatch	peut	-1	1	y	0.61088
214.8639	0.0	+	24	verb	phrase	1	1	nomatch	blanc	-1	1	y	0.80814
215.39709999999997	0.2	kgfb	24	verb	phrase	1	2	nomatch	blanc	-1	1	y	0.80814
215.59699999999998	0.0	+	24	verb	phrase	1	3	nomatch	blanc	-1	1	y	0.80814
216.01299999999998	0.2	wxqn	24	verb	phrase	1	4	nomatch	blanc	-1	1	y	0.80814
216.1966	0.0	+	24	verb	phrase	1	5	nomatch	blanc	-1	1	y	0.80814
216.59589999999997	0.2	bmjh	24	verb	phrase	1	6	nomatch	blanc	-1	1	y	0.80814
216.79579999999999	0.0	+	24	verb	phrase	1	7	nomatch	blanc	-1	1	y	0.80814
217.1956	0.2	nqsb	24	verb	phrase	1	8	nomatch	blanc	-1	1	y	0.80814
217.39549999999997	0.0	+	24	verb	phrase	1	9	nomatch	blanc	-1	1	y	0.80814
217.7953	0.2	patiner	24	verb	phrase	1	10	nomatch	blanc	-1	1	y	0.80814
217.9955	0.0	+	24	verb	phrase	1	11	nomatch	blanc	-1	1	y	0.80814
218.3956	0.0	+	24	verb	phrase	1	12	nomatch	blanc	-1	1	y	0.80814
220.3942	0.0	BLANC	24	verb	phrase	1	13	nomatch	blanc	-1	1	y	0.80814
221.2604	0.0	+	24	verb	phrase	1	14	nomatch	blanc	-1	1	y	0.80814
221.20229999999998	0.0	[response]	24	verb	phrase	1	15	nomatch	blanc	-1	1	y	0.80814
222.79309999999998	0.0	+	25	noun	list	1	1	nomatch	beaucoup	-1	1	y	0.85846
223.3428	0.2	brsvdx	25	noun	list	1	2	nomatch	beaucoup	-1	1	y	0.85846
223.54269999999997	0.0	+	25	noun	list	1	3	nomatch	beaucoup	-1	1	y	0.85846
223.94259999999997	0.2	ckf	25	noun	list	1	4	nomatch	beaucoup	-1	1	y	0.85846
224.14249999999998	0.0	+	25	noun	list	1	5	nomatch	beaucoup	-1	1	y	0.85846
224.5423	0.2	fbd	25	noun	list	1	6	nomatch	beaucoup	-1	1	y	0.85846
224.74289999999996	0.0	+	25	noun	list	1	7	nomatch	beaucoup	-1	1	y	0.85846
225.14249999999998	0.2	ctfnlpq	25	noun	list	1	8	nomatch	beaucoup	-1	1	y	0.85846
225.34229999999997	0.0	+	25	noun	list	1	9	nomatch	beaucoup	-1	1	y	0.85846
225.7418	0.2	mieux	25	noun	list	1	10	nomatch	beaucoup	-1	1	y	0.85846
225.94169999999997	0.0	+	25	noun	list	1	11	nomatch	beaucoup	-1	1	y	0.85846
226.3415	0.0	+	25	noun	list	1	12	nomatch	beaucoup	-1	1	y	0.85846
228.3406	0.0	BEAUCOUP	25	noun	list	1	13	nomatch	beaucoup	-1	1	y	0.85846
229.2568	0.0	+	25	noun	list	1	14	nomatch	beaucoup	-1	1	y	0.85846
229.199	0.0	[response]	25	noun	list	1	15	nomatch	beaucoup	-1	1	y	0.85846
238.73589999999996	0.0	+	26	noun	list	2	1	match	tôt	5	0	y	0.66823
239.28569999999996	0.2	ptqxwn	26	noun	list	2	2	match	tôt	5	0	y	0.66823
239.48559999999998	0.0	+	26	noun	list	2	3	match	tôt	5	0	y	0.66823
239.8854	0.2	xpd	26	noun	list	2	4	match	tôt	5	0	y	0.66823
240.08529999999996	0.0	+	26	noun	list	2	5	match	tôt	5	0	y	0.66823
240.4855	0.2	zhcb	26	noun	list	2	6	match	tôt	5	0	y	0.66823
240.685	0.0	+	26	noun	list	2	7	match	tôt	5	0	y	0.66823
241.08529999999996	0.2	boîtier	26	noun	list	2	8	match	tôt	5	0	y	0.66823
241.30199999999996	0.0	+	26	noun	list	2	9	match	tôt	5	0	y	0.66823
241.6846	0.2	tôt	26	noun	list	2	10	match	tôt	5	0	y	0.66823
241.8845	0.0	+	26	noun	list	2	11	match	tôt	5	0	y	0.66823
242.28429999999997	0.0	+	26	noun	list	2	12	match	tôt	5	0	y	0.66823
244.3001	0.0	TÔT	26	noun	list	2	13	match	tôt	5	0	y	0.66823
245.03339999999997	0.0	+	26	noun	list	2	14	match	tôt	5	0	y	0.66823
244.9683	0.0	[response]	26	noun	list	2	15	match	tôt	5	0	y	0.66823
246.699	0.0	+	27	noun	list	2	1	nomatch	blanc	-1	1	y	0.8162400000000001
247.24879999999996	0.2	qzcmbk	27	noun	list	2	2	nomatch	blanc	-1	1	y	0.8162400000000001
247.44869999999997	0.0	+	27	noun	list	2	3	nomatch	blanc	-1	1	y	0.8162400000000001
247.8485	0.2	ztfk	27	noun	list	2	4	nomatch	blanc	-1	1	y	0.8162400000000001
248.04839999999996	0.0	+	27	noun	list	2	5	nomatch	blanc	-1	1	y	0.8162400000000001
248.44829999999996	0.2	fbd	27	noun	list	2	6	nomatch	blanc	-1	1	y	0.8162400000000001
248.6651	0.0	+	27	noun	list	2	7	nomatch	blanc	-1	1	y	0.8162400000000001
249.0482	0.2	trop	27	noun	list	2	8	nomatch	blanc	-1	1	y	0.8162400000000001
249.24789999999996	0.0	+	27	noun	list	2	9	nomatch	blanc	-1	1	y	0.8162400000000001
249.6477	0.2	cendrier	27	noun	list	2	10	nomatch	blanc	-1	1	y	0.8162400000000001
249.8476	0.0	+	27	noun	list	2	11	nomatch	blanc	-1	1	y	0.8162400000000001
250.24739999999997	0.0	+	27	noun	list	2	12	nomatch	blanc	-1	1	y	0.8162400000000001
252.24649999999997	0.0	BLANC	27	noun	list	2	13	nomatch	blanc	-1	1	y	0.8162400000000001
253.12939999999998	0.0	+	27	noun	list	2	14	nomatch	blanc	-1	1	y	0.8162400000000001
253.0627	0.0	[response]	27	noun	list	2	15	nomatch	blanc	-1	1	y	0.8162400000000001
254.6454	0.0	+	28	noun	phrase	1	1	match	grand	5	1	p	0.6178300000000001
255.1952	0.2	pcd	28	noun	phrase	1	2	match	grand	5	1	p	0.6178300000000001
255.3951	0.0	+	28	noun	phrase	1	3	match	grand	5	1	p	0.6178300000000001
255.7951	0.2	pcms	28	noun	phrase	1	4	match	grand	5	1	p	0.6178300000000001
255.9955	0.0	+	28	noun	phrase	1	5	match	grand	5	1	p	0.6178300000000001
256.39459999999997	0.2	ncb	28	noun	phrase	1	6	match	grand	5	1	p	0.6178300000000001
256.5946	0.0	+	28	noun	phrase	1	7	match	grand	5	1	p	0.6178300000000001
256.9944	0.2	wbgzkc	28	noun	phrase	1	8	match	grand	5	1	p	0.6178300000000001
257.1943	0.0	+	28	noun	phrase	1	9	match	grand	5	1	p	0.6178300000000001
257.59409999999997	0.2	grand	28	noun	phrase	1	10	match	grand	5	1	p	0.6178300000000001
257.794	0.0	+	28	noun	phrase	1	11	match	grand	5	1	p	0.6178300000000001
258.1938	0.0	+	28	noun	phrase	1	12	match	grand	5	1	p	0.6178300000000001
260.1929	0.0	GRAND	28	noun	phrase	1	13	match	grand	5	1	p	0.6178300000000001
260.8759	0.0	+	28	noun	phrase	1	14	match	grand	5	1	p	0.6178300000000001
260.81080000000003	0.0	[response]	28	noun	phrase	1	15	match	grand	5	1	p	0.6178300000000001
270.5883	0.0	+	29	noun	phrase	4	1	match	dans	2	1	p	0.73324
271.1382	0.2	spt	29	noun	phrase	4	2	match	dans	2	1	p	0.73324
271.3379	0.0	+	29	noun	phrase	4	3	match	dans	2	1	p	0.73324
271.7381	0.2	dans	29	noun	phrase	4	4	match	dans	2	1	p	0.73324
271.9378	0.0	+	29	noun	phrase	4	5	match	dans	2	1	p	0.73324
272.3375	0.2	leur	29	noun	phrase	4	6	match	dans	2	1	p	0.73324
272.5374	0.0	+	29	noun	phrase	4	7	match	dans	2	1	p	0.73324
272.93719999999996	0.2	panier	29	noun	phrase	4	8	match	dans	2	1	p	0.73324
273.1371	0.0	+	29	noun	phrase	4	9	match	dans	2	1	p	0.73324
273.53749999999997	0.2	bleu	29	noun	phrase	4	10	match	dans	2	1	p	0.73324
273.7373	0.0	+	29	noun	phrase	4	11	match	dans	2	1	p	0.73324
274.1368	0.0	+	29	noun	phrase	4	12	match	dans	2	1	p	0.73324
276.13579999999996	0.0	DANS	29	noun	phrase	4	13	match	dans	2	1	p	0.73324
276.93539999999996	0.0	+	29	noun	phrase	4	14	match	dans	2	1	p	0.73324
276.86899999999997	0.0	[response]	29	noun	phrase	4	15	match	dans	2	1	p	0.73324
278.5347	0.0	+	30	noun	phrase	3	1	nomatch	nouveau	-1	1	y	0.66594
279.08439999999996	0.2	kfnq	30	noun	phrase	3	2	nomatch	nouveau	-1	1	y	0.66594
279.2843	0.0	+	30	noun	phrase	3	3	nomatch	nouveau	-1	1	y	0.66594
279.6843	0.2	xpd	30	noun	phrase	3	4	nomatch	nouveau	-1	1	y	0.66594
279.9011	0.0	+	30	noun	phrase	3	5	nomatch	nouveau	-1	1	y	0.66594
280.28389999999996	0.2	mon	30	noun	phrase	3	6	nomatch	nouveau	-1	1	y	0.66594
280.4838	0.0	+	30	noun	phrase	3	7	nomatch	nouveau	-1	1	y	0.66594
280.8836	0.2	sablier	30	noun	phrase	3	8	nomatch	nouveau	-1	1	y	0.66594
281.0836	0.0	+	30	noun	phrase	3	9	nomatch	nouveau	-1	1	y	0.66594
281.5	0.2	blanc	30	noun	phrase	3	10	nomatch	nouveau	-1	1	y	0.66594
281.6999	0.0	+	30	noun	phrase	3	11	nomatch	nouveau	-1	1	y	0.66594
282.0997	0.0	+	30	noun	phrase	3	12	nomatch	nouveau	-1	1	y	0.66594
284.0988	0.0	NOUVEAU	30	noun	phrase	3	13	nomatch	nouveau	-1	1	y	0.66594
284.8318	0.0	+	30	noun	phrase	3	14	nomatch	nouveau	-1	1	y	0.66594
284.7648	0.0	[response]	30	noun	phrase	3	15	nomatch	nouveau	-1	1	y	0.66594
286.4978	0.0	+	31	verb	phrase	1	1	nomatch	danser	-1	1	y	0.87187
287.0475	0.2	xwp	31	verb	phrase	1	2	nomatch	danser	-1	1	y	0.87187
287.24739999999997	0.0	+	31	verb	phrase	1	3	nomatch	danser	-1	1	y	0.87187
287.6472	0.2	wcxg	31	verb	phrase	1	4	nomatch	danser	-1	1	y	0.87187
287.8472	0.0	+	31	verb	phrase	1	5	nomatch	danser	-1	1	y	0.87187
288.247	0.2	zhcb	31	verb	phrase	1	6	nomatch	danser	-1	1	y	0.87187
288.44689999999997	0.0	+	31	verb	phrase	1	7	nomatch	danser	-1	1	y	0.87187
288.8472	0.2	ghpj	31	verb	phrase	1	8	nomatch	danser	-1	1	y	0.87187
289.0472	0.0	+	31	verb	phrase	1	9	nomatch	danser	-1	1	y	0.87187
289.4464	0.2	rouler	31	verb	phrase	1	10	nomatch	danser	-1	1	y	0.87187
289.6463	0.0	+	31	verb	phrase	1	11	nomatch	danser	-1	1	y	0.87187
290.0462	0.0	+	31	verb	phrase	1	12	nomatch	danser	-1	1	y	0.87187
292.0455	0.0	DANSER	31	verb	phrase	1	13	nomatch	danser	-1	1	y	0.87187
292.97819999999996	0.0	+	31	verb	phrase	1	14	nomatch	danser	-1	1	y	0.87187
292.9174	0.0	[response]	31	verb	phrase	1	15	nomatch	danser	-1	1	y	0.87187
294.44419999999997	0.0	+	32	noun	list	2	1	nomatch	peut	-1	1	y	0.8708900000000002
294.9939	0.2	lfm	32	noun	list	2	2	nomatch	peut	-1	1	y	0.8708900000000002
295.1938	0.0	+	32	noun	list	2	3	nomatch	peut	-1	1	y	0.8708900000000002
295.5937	0.2	qskv	32	noun	list	2	4	nomatch	peut	-1	1	y	0.8708900000000002
295.794	0.0	+	32	noun	list	2	5	nomatch	peut	-1	1	y	0.8708900000000002
296.19399999999996	0.2	fbd	32	noun	list	2	6	nomatch	peut	-1	1	y	0.8708900000000002
296.3933	0.0	+	32	noun	list	2	7	nomatch	peut	-1	1	y	0.8708900000000002
296.7931	0.2	moins	32	noun	list	2	8	nomatch	peut	-1	1	y	0.8708900000000002
296.993	0.0	+	32	noun	list	2	9	nomatch	peut	-1	1	y	0.8708900000000002
297.3929	0.2	panier	32	noun	list	2	10	nomatch	peut	-1	1	y	0.8708900000000002
297.5928	0.0	+	32	noun	list	2	11	nomatch	peut	-1	1	y	0.8708900000000002
297.9926	0.0	+	32	noun	list	2	12	nomatch	peut	-1	1	y	0.8708900000000002
299.9917	0.0	PEUT	32	noun	list	2	13	nomatch	peut	-1	1	y	0.8708900000000002
301.0586	0.0	+	32	noun	list	2	14	nomatch	peut	-1	1	y	0.8708900000000002
300.8626	0.0	[response]	32	noun	list	2	15	nomatch	peut	-1	1	y	0.8708900000000002
302.3906	0.0	+	33	verb	list	3	1	match	rouge	5	1	p	0.72303
302.9404	0.2	jtkhxsr	33	verb	list	3	2	match	rouge	5	1	p	0.72303
303.14029999999997	0.0	+	33	verb	list	3	3	match	rouge	5	1	p	0.72303
303.5408	0.2	bgmp	33	verb	list	3	4	match	rouge	5	1	p	0.72303
303.7406	0.0	+	33	verb	list	3	5	match	rouge	5	1	p	0.72303
304.1398	0.2	leur	33	verb	list	3	6	match	rouge	5	1	p	0.72303
304.3397	0.0	+	33	verb	list	3	7	match	rouge	5	1	p	0.72303
304.7396	0.2	jongler	33	verb	list	3	8	match	rouge	5	1	p	0.72303
304.9395	0.0	+	33	verb	list	3	9	match	rouge	5	1	p	0.72303
305.3393	0.2	rouge	33	verb	list	3	10	match	rouge	5	1	p	0.72303
305.5392	0.0	+	33	verb	list	3	11	match	rouge	5	1	p	0.72303
305.93899999999996	0.0	+	33	verb	list	3	12	match	rouge	5	1	p	0.72303
307.93809999999996	0.0	ROUGE	33	verb	list	3	13	match	rouge	5	1	p	0.72303
308.7211	0.0	+	33	verb	list	3	14	match	rouge	5	1	p	0.72303
308.6612	0.0	[response]	33	verb	list	3	15	match	rouge	5	1	p	0.72303
310.337	0.0	+	34	noun	list	3	1	nomatch	bleu	-1	1	y	0.88897
310.8868	0.2	xmhgvc	34	noun	list	3	2	nomatch	bleu	-1	1	y	0.88897
311.0867	0.0	+	34	noun	list	3	3	nomatch	bleu	-1	1	y	0.88897
311.4865	0.2	pcms	34	noun	list	3	4	nomatch	bleu	-1	1	y	0.88897
311.6864	0.0	+	34	noun	list	3	5	nomatch	bleu	-1	1	y	0.88897
312.08619999999996	0.2	peut	34	noun	list	3	6	nomatch	bleu	-1	1	y	0.88897
312.2861	0.0	+	34	noun	list	3	7	nomatch	bleu	-1	1	y	0.88897
312.68649999999997	0.2	rocher	34	noun	list	3	8	nomatch	bleu	-1	1	y	0.88897
312.88599999999997	0.0	+	34	noun	list	3	9	nomatch	bleu	-1	1	y	0.88897
313.28569999999996	0.2	tôt	34	noun	list	3	10	nomatch	bleu	-1	1	y	0.88897
313.4856	0.0	+	34	noun	list	3	11	nomatch	bleu	-1	1	y	0.88897
313.8854	0.0	+	34	noun	list	3	12	nomatch	bleu	-1	1	y	0.88897
315.9018	0.0	BLEU	34	noun	list	3	13	nomatch	bleu	-1	1	y	0.88897
316.8508	0.0	+	34	noun	list	3	14	nomatch	bleu	-1	1	y	0.88897
316.7908	0.0	[response]	34	noun	list	3	15	nomatch	bleu	-1	1	y	0.88897
318.2835	0.0	+	35	noun	list	1	1	match	plus	5	1	p	0.4621
318.84999999999997	0.2	zqj	35	noun	list	1	2	match	plus	5	1	p	0.4621
319.0503	0.0	+	35	noun	list	1	3	match	plus	5	1	p	0.4621
319.4498	0.2	wxqn	35	noun	list	1	4	match	plus	5	1	p	0.4621
319.6495	0.0	+	35	noun	list	1	5	match	plus	5	1	p	0.4621
320.0498	0.2	fbd	35	noun	list	1	6	match	plus	5	1	p	0.4621
320.25	0.0	+	35	noun	list	1	7	match	plus	5	1	p	0.4621
320.6491	0.2	ndvsxp	35	noun	list	1	8	match	plus	5	1	p	0.4621
320.849	0.0	+	35	noun	list	1	9	match	plus	5	1	p	0.4621
321.24879999999996	0.2	plus	35	noun	list	1	10	match	plus	5	1	p	0.4621
321.4487	0.0	+	35	noun	list	1	11	match	plus	5	1	p	0.4621
321.8485	0.0	+	35	noun	list	1	12	match	plus	5	1	p	0.4621
323.8476	0.0	PLUS	35	noun	list	1	13	match	plus	5	1	p	0.4621
324.3641	0.0	+	35	noun	list	1	14	match	plus	5	1	p	0.4621
324.30969999999996	0.0	[response]	35	noun	list	1	15	match	plus	5	1	p	0.4621
326.33029999999997	0.0	+	36	noun	list	3	1	nomatch	loin	-1	1	y	0.62319
326.7963	0.2	bwnsckf	36	noun	list	3	2	nomatch	loin	-1	1	y	0.62319
326.9962	0.0	+	36	noun	list	3	3	nomatch	loin	-1	1	y	0.62319
327.39599999999996	0.2	pcms	36	noun	list	3	4	nomatch	loin	-1	1	y	0.62319
327.5959	0.0	+	36	noun	list	3	5	nomatch	loin	-1	1	y	0.62319
327.9958	0.2	peut	36	noun	list	3	6	nomatch	loin	-1	1	y	0.62319
328.1957	0.0	+	36	noun	list	3	7	nomatch	loin	-1	1	y	0.62319
328.59549999999996	0.2	sablier	36	noun	list	3	8	nomatch	loin	-1	1	y	0.62319
328.7954	0.0	+	36	noun	list	3	9	nomatch	loin	-1	1	y	0.62319
329.1952	0.2	tard	36	noun	list	3	10	nomatch	loin	-1	1	y	0.62319
329.3951	0.0	+	36	noun	list	3	11	nomatch	loin	-1	1	y	0.62319
329.7949	0.0	+	36	noun	list	3	12	nomatch	loin	-1	1	y	0.62319
331.7941	0.0	LOIN	36	noun	list	3	13	nomatch	loin	-1	1	y	0.62319
332.4771	0.0	+	36	noun	list	3	14	nomatch	loin	-1	1	y	0.62319
332.4172	0.0	[response]	36	noun	list	3	15	nomatch	loin	-1	1	y	0.62319
334.193	0.0	+	37	verb	phrase	3	1	nomatch	boîtier	-1	1	y	0.93314
334.7427	0.2	dwbg	37	verb	phrase	3	2	nomatch	boîtier	-1	1	y	0.93314
334.94259999999997	0.0	+	37	verb	phrase	3	3	nomatch	boîtier	-1	1	y	0.93314
335.3425	0.2	wxqn	37	verb	phrase	3	4	nomatch	boîtier	-1	1	y	0.93314
335.5424	0.0	+	37	verb	phrase	3	5	nomatch	boîtier	-1	1	y	0.93314
335.9422	0.2	doit	37	verb	phrase	3	6	nomatch	boîtier	-1	1	y	0.93314
336.14209999999997	0.0	+	37	verb	phrase	3	7	nomatch	boîtier	-1	1	y	0.93314
336.542	0.2	danser	37	verb	phrase	3	8	nomatch	boîtier	-1	1	y	0.93314
336.7425	0.0	+	37	verb	phrase	3	9	nomatch	boîtier	-1	1	y	0.93314
337.1416	0.2	tôt	37	verb	phrase	3	10	nomatch	boîtier	-1	1	y	0.93314
337.3415	0.0	+	37	verb	phrase	3	11	nomatch	boîtier	-1	1	y	0.93314
337.7414	0.0	+	37	verb	phrase	3	12	nomatch	boîtier	-1	1	y	0.93314
339.74109999999996	0.0	BOÎTIER	37	verb	phrase	3	13	nomatch	boîtier	-1	1	y	0.93314
340.74	0.0	+	37	verb	phrase	3	14	nomatch	boîtier	-1	1	y	0.93314
340.6742	0.0	[response]	37	verb	phrase	3	15	nomatch	boîtier	-1	1	y	0.93314
342.13939999999997	0.0	+	38	verb	list	1	1	nomatch	son	-1	1	y	0.8463700000000001
342.6891	0.2	tjbwlxd	38	verb	list	1	2	nomatch	son	-1	1	y	0.8463700000000001
342.906	0.0	+	38	verb	list	1	3	nomatch	son	-1	1	y	0.8463700000000001
343.3057	0.2	ztfk	38	verb	list	1	4	nomatch	son	-1	1	y	0.8463700000000001
343.4894	0.0	+	38	verb	list	1	5	nomatch	son	-1	1	y	0.8463700000000001
343.8889	0.2	fbd	38	verb	list	1	6	nomatch	son	-1	1	y	0.8463700000000001
344.0892	0.0	+	38	verb	list	1	7	nomatch	son	-1	1	y	0.8463700000000001
344.4883	0.2	xvlg	38	verb	list	1	8	nomatch	son	-1	1	y	0.8463700000000001
344.68829999999997	0.0	+	38	verb	list	1	9	nomatch	son	-1	1	y	0.8463700000000001
345.0881	0.2	parader	38	verb	list	1	10	nomatch	son	-1	1	y	0.8463700000000001
345.288	0.0	+	38	verb	list	1	11	nomatch	son	-1	1	y	0.8463700000000001
345.6878	0.0	+	38	verb	list	1	12	nomatch	son	-1	1	y	0.8463700000000001
347.6876	0.0	SON	38	verb	list	1	13	nomatch	son	-1	1	y	0.8463700000000001
348.5865	0.0	+	38	verb	list	1	14	nomatch	son	-1	1	y	0.8463700000000001
348.534	0.0	[response]	38	verb	list	1	15	nomatch	son	-1	1	y	0.8463700000000001
350.0858	0.0	+	39	verb	phrase	2	1	match	danser	4	1	p	0.57566
350.6356	0.2	twd	39	verb	phrase	2	2	match	danser	4	1	p	0.57566
350.83549999999997	0.0	+	39	verb	phrase	2	3	match	danser	4	1	p	0.57566
351.2353	0.2	wxqn	39	verb	phrase	2	4	match	danser	4	1	p	0.57566
351.4352	0.0	+	39	verb	phrase	2	5	match	danser	4	1	p	0.57566
351.835	0.2	bmjh	39	verb	phrase	2	6	match	danser	4	1	p	0.57566
352.0349	0.0	+	39	verb	phrase	2	7	match	danser	4	1	p	0.57566
352.4348	0.2	danser	39	verb	phrase	2	8	match	danser	4	1	p	0.57566
352.652	0.0	+	39	verb	phrase	2	9	match	danser	4	1	p	0.57566
353.0347	0.2	vite	39	verb	phrase	2	10	match	danser	4	1	p	0.57566
353.2349	0.0	+	39	verb	phrase	2	11	match	danser	4	1	p	0.57566
353.63419999999996	0.0	+	39	verb	phrase	2	12	match	danser	4	1	p	0.57566
355.6667	0.0	DANSER	39	verb	phrase	2	13	match	danser	4	1	p	0.57566
356.2997	0.0	+	39	verb	phrase	2	14	match	danser	4	1	p	0.57566
356.2424	0.0	[response]	39	verb	phrase	2	15	match	danser	4	1	p	0.57566
366.0453	0.0	+	40	verb	phrase	1	1	match	jongler	5	1	p	0.64187
366.59499999999997	0.2	tlvqcw	40	verb	phrase	1	2	match	jongler	5	1	p	0.64187
366.79499999999996	0.0	+	40	verb	phrase	1	3	match	jongler	5	1	p	0.64187
367.1948	0.2	sxpw	40	verb	phrase	1	4	match	jongler	5	1	p	0.64187
367.3947	0.0	+	40	verb	phrase	1	5	match	jongler	5	1	p	0.64187
367.79449999999997	0.2	zhcb	40	verb	phrase	1	6	match	jongler	5	1	p	0.64187
367.99449999999996	0.0	+	40	verb	phrase	1	7	match	jongler	5	1	p	0.64187
368.3945	0.2	htmzb	40	verb	phrase	1	8	match	jongler	5	1	p	0.64187
368.5945	0.0	+	40	verb	phrase	1	9	match	jongler	5	1	p	0.64187
368.99449999999996	0.2	jongler	40	verb	phrase	1	10	match	jongler	5	1	p	0.64187
369.1945	0.0	+	40	verb	phrase	1	11	match	jongler	5	1	p	0.64187
369.5937	0.0	+	40	verb	phrase	1	12	match	jongler	5	1	p	0.64187
371.5928	0.0	JONGLER	40	verb	phrase	1	13	match	jongler	5	1	p	0.64187
372.29249999999996	0.0	+	40	verb	phrase	1	14	match	jongler	5	1	p	0.64187
372.2347	0.0	[response]	40	verb	phrase	1	15	match	jongler	5	1	p	0.64187
373.9917	0.0	+	41	noun	phrase	1	1	nomatch	bleu	-1	1	y	0.83453
374.5415	0.2	xrnbtpm	41	noun	phrase	1	2	nomatch	bleu	-1	1	y	0.83453
374.7414	0.0	+	41	noun	phrase	1	3	nomatch	bleu	-1	1	y	0.83453
375.14119999999997	0.2	gfws	41	noun	phrase	1	4	nomatch	bleu	-1	1	y	0.83453
375.3411	0.0	+	41	noun	phrase	1	5	nomatch	bleu	-1	1	y	0.83453
375.7409	0.2	fbd	41	noun	phrase	1	6	nomatch	bleu	-1	1	y	0.83453
375.9414	0.0	+	41	noun	phrase	1	7	nomatch	bleu	-1	1	y	0.83453
376.3408	0.2	zxpdsw	41	noun	phrase	1	8	nomatch	bleu	-1	1	y	0.83453
376.5573	0.0	+	41	noun	phrase	1	9	nomatch	bleu	-1	1	y	0.83453
376.9405	0.2	rouge	41	noun	phrase	1	10	nomatch	bleu	-1	1	y	0.83453
377.1406	0.0	+	41	noun	phrase	1	11	nomatch	bleu	-1	1	y	0.83453
377.5401	0.0	+	41	noun	phrase	1	12	nomatch	bleu	-1	1	y	0.83453
379.53999999999996	0.0	BLEU	41	noun	phrase	1	13	nomatch	bleu	-1	1	y	0.83453
380.4726	0.0	+	41	noun	phrase	1	14	nomatch	bleu	-1	1	y	0.83453
380.3745	0.0	[response]	41	noun	phrase	1	15	nomatch	bleu	-1	1	y	0.83453
381.93809999999996	0.0	+	42	noun	list	4	1	nomatch	sous	-1	1	y	0.9263600000000001
382.48789999999997	0.2	bqsclfh	42	noun	list	4	2	nomatch	sous	-1	1	y	0.9263600000000001
382.6878	0.0	+	42	noun	list	4	3	nomatch	sous	-1	1	y	0.9263600000000001
383.1044	0.2	sur	42	noun	list	4	4	nomatch	sous	-1	1	y	0.9263600000000001
383.3049	0.0	+	42	noun	list	4	5	nomatch	sous	-1	1	y	0.9263600000000001
383.6877	0.2	va	42	noun	list	4	6	nomatch	sous	-1	1	y	0.9263600000000001
383.9045	0.0	+	42	noun	list	4	7	nomatch	sous	-1	1	y	0.9263600000000001
384.2871	0.2	cendrier	42	noun	list	4	8	nomatch	sous	-1	1	y	0.9263600000000001
384.48699999999997	0.0	+	42	noun	list	4	9	nomatch	sous	-1	1	y	0.9263600000000001
384.8868	0.2	tôt	42	noun	list	4	10	nomatch	sous	-1	1	y	0.9263600000000001
385.0867	0.0	+	42	noun	list	4	11	nomatch	sous	-1	1	y	0.9263600000000001
385.4865	0.0	+	42	noun	list	4	12	nomatch	sous	-1	1	y	0.9263600000000001
387.4857	0.0	SOUS	42	noun	list	4	13	nomatch	sous	-1	1	y	0.9263600000000001
388.4686	0.0	+	42	noun	list	4	14	nomatch	sous	-1	1	y	0.9263600000000001
388.412	0.0	[response]	42	noun	list	4	15	nomatch	sous	-1	1	y	0.9263600000000001
389.8846	0.0	+	43	noun	phrase	3	1	match	son	3	1	p	0.76739
390.4343	0.2	fzp	43	noun	phrase	3	2	match	son	3	1	p	0.76739
390.63419999999996	0.0	+	43	noun	phrase	3	3	match	son	3	1	p	0.76739
391.03409999999997	0.2	lwsf	43	noun	phrase	3	4	match	son	3	1	p	0.76739
391.234	0.0	+	43	noun	phrase	3	5	match	son	3	1	p	0.76739
391.6338	0.2	son	43	noun	phrase	3	6	match	son	3	1	p	0.76739
391.83369999999996	0.0	+	43	noun	phrase	3	7	match	son	3	1	p	0.76739
392.23359999999997	0.2	grand	43	noun	phrase	3	8	match	son	3	1	p	0.76739
392.45009999999996	0.0	+	43	noun	phrase	3	9	match	son	3	1	p	0.76739
392.8673	0.2	boîtier	43	noun	phrase	3	10	match	son	3	1	p	0.76739
393.067	0.0	+	43	noun	phrase	3	11	match	son	3	1	p	0.76739
393.4496	0.0	+	43	noun	phrase	3	12	match	son	3	1	p	0.76739
395.4487	0.0	SON	43	noun	phrase	3	13	match	son	3	1	p	0.76739
396.2817	0.0	+	43	noun	phrase	3	14	match	son	3	1	p	0.76739
396.2161	0.0	[response]	43	noun	phrase	3	15	match	son	3	1	p	0.76739
405.84409999999997	0.0	+	44	noun	list	4	1	match	sans	2	1	p	0.74933
406.3939	0.2	tdnbvhc	44	noun	list	4	2	match	sans	2	1	p	0.74933
406.5937	0.0	+	44	noun	list	4	3	match	sans	2	1	p	0.74933
406.9935	0.2	sans	44	noun	list	4	4	match	sans	2	1	p	0.74933
407.1935	0.0	+	44	noun	list	4	5	match	sans	2	1	p	0.74933
407.5933	0.2	doit	44	noun	list	4	6	match	sans	2	1	p	0.74933
407.7932	0.0	+	44	noun	list	4	7	match	sans	2	1	p	0.74933
408.1934	0.2	rocher	44	noun	list	4	8	match	sans	2	1	p	0.74933
408.3929	0.0	+	44	noun	list	4	9	match	sans	2	1	p	0.74933
408.80969999999996	0.2	vite	44	noun	list	4	10	match	sans	2	1	p	0.74933
408.9932	0.0	+	44	noun	list	4	11	match	sans	2	1	p	0.74933
409.4096	0.0	+	44	noun	list	4	12	match	sans	2	1	p	0.74933
411.3916	0.0	SANS	44	noun	list	4	13	match	sans	2	1	p	0.74933
412.2079	0.0	+	44	noun	list	4	14	match	sans	2	1	p	0.74933
412.1409	0.0	[response]	44	noun	list	4	15	match	sans	2	1	p	0.74933
413.7905	0.0	+	45	noun	phrase	4	1	nomatch	danser	-1	1	y	0.81825
414.3402	0.2	rxmd	45	noun	phrase	4	2	nomatch	danser	-1	1	y	0.81825
414.5401	0.0	+	45	noun	phrase	4	3	nomatch	danser	-1	1	y	0.81825
414.9404	0.2	vers	45	noun	phrase	4	4	nomatch	danser	-1	1	y	0.81825
415.1405	0.0	+	45	noun	phrase	4	5	nomatch	danser	-1	1	y	0.81825
415.5397	0.2	son	45	noun	phrase	4	6	nomatch	danser	-1	1	y	0.81825
415.7396	0.0	+	45	noun	phrase	4	7	nomatch	danser	-1	1	y	0.81825
416.13939999999997	0.2	nouveau	45	noun	phrase	4	8	nomatch	danser	-1	1	y	0.81825
416.3393	0.0	+	45	noun	phrase	4	9	nomatch	danser	-1	1	y	0.81825
416.7392	0.2	tablier	45	noun	phrase	4	10	nomatch	danser	-1	1	y	0.81825
416.9391	0.0	+	45	noun	phrase	4	11	nomatch	danser	-1	1	y	0.81825
417.339	0.0	+	45	noun	phrase	4	12	nomatch	danser	-1	1	y	0.81825
419.33799999999997	0.0	DANSER	45	noun	phrase	4	13	nomatch	danser	-1	1	y	0.81825
420.2209	0.0	+	45	noun	phrase	4	14	nomatch	danser	-1	1	y	0.81825
420.1562	0.0	[response]	45	noun	phrase	4	15	nomatch	danser	-1	1	y	0.81825
429.75	0.0	+	46	verb	list	1	1	match	beau	5	1	p	0.54399
430.2997	0.2	wfjrl	46	verb	list	1	2	match	beau	5	1	p	0.54399
430.4996	0.0	+	46	verb	list	1	3	match	beau	5	1	p	0.54399
430.8995	0.2	tdmv	46	verb	list	1	4	match	beau	5	1	p	0.54399
431.0994	0.0	+	46	verb	list	1	5	match	beau	5	1	p	0.54399
431.4994	0.2	zhcb	46	verb	list	1	6	match	beau	5	1	p	0.54399
431.69939999999997	0.0	+	46	verb	list	1	7	match	beau	5	1	p	0.54399
432.0989	0.2	hkmwrl	46	verb	list	1	8	match	beau	5	1	p	0.54399
432.29879999999997	0.0	+	46	verb	list	1	9	match	beau	5	1	p	0.54399
432.6986	0.2	beau	46	verb	list	1	10	match	beau	5	1	p	0.54399
432.8986	0.0	+	46	verb	list	1	11	match	beau	5	1	p	0.54399
433.29839999999996	0.0	+	46	verb	list	1	12	match	beau	5	1	p	0.54399
435.2975	0.0	BEAU	46	verb	list	1	13	match	beau	5	1	p	0.54399
435.8972	0.0	+	46	verb	list	1	14	match	beau	5	1	p	0.54399
435.8415	0.0	[response]	46	verb	list	1	15	match	beau	5	1	p	0.54399
437.6964	0.0	+	47	noun	phrase	1	1	nomatch	panier	-1	1	y	0.7137900000000001
438.2462	0.2	sltdrgk	47	noun	phrase	1	2	nomatch	panier	-1	1	y	0.7137900000000001
438.4461	0.0	+	47	noun	phrase	1	3	nomatch	panier	-1	1	y	0.7137900000000001
438.8459	0.2	pcms	47	noun	phrase	1	4	nomatch	panier	-1	1	y	0.7137900000000001
439.0458	0.0	+	47	noun	phrase	1	5	nomatch	panier	-1	1	y	0.7137900000000001
439.4457	0.2	fzjl	47	noun	phrase	1	6	nomatch	panier	-1	1	y	0.7137900000000001
439.6461	0.0	+	47	noun	phrase	1	7	nomatch	panier	-1	1	y	0.7137900000000001
440.0456	0.2	jskf	47	noun	phrase	1	8	nomatch	panier	-1	1	y	0.7137900000000001
440.2453	0.0	+	47	noun	phrase	1	9	nomatch	panier	-1	1	y	0.7137900000000001
440.6451	0.2	casier	47	noun	phrase	1	10	nomatch	panier	-1	1	y	0.7137900000000001
440.84499999999997	0.0	+	47	noun	phrase	1	11	nomatch	panier	-1	1	y	0.7137900000000001
441.2448	0.0	+	47	noun	phrase	1	12	nomatch	panier	-1	1	y	0.7137900000000001
443.2439	0.0	PANIER	47	noun	phrase	1	13	nomatch	panier	-1	1	y	0.7137900000000001
444.0102	0.0	+	47	noun	phrase	1	14	nomatch	panier	-1	1	y	0.7137900000000001
443.9577	0.0	[response]	47	noun	phrase	1	15	nomatch	panier	-1	1	y	0.7137900000000001
445.64279999999997	0.0	+	48	verb	phrase	3	1	nomatch	tôt	-1	1	y	1.2773
446.19259999999997	0.2	cwbsxg	48	verb	phrase	3	2	nomatch	tôt	-1	1	y	1.2773
446.3925	0.0	+	48	verb	phrase	3	3	nomatch	tôt	-1	1	y	1.2773
446.7923	0.2	wxqn	48	verb	phrase	3	4	nomatch	tôt	-1	1	y	1.2773
446.9926	0.0	+	48	verb	phrase	3	5	nomatch	tôt	-1	1	y	1.2773
447.39219999999995	0.2	peut	48	verb	phrase	3	6	nomatch	tôt	-1	1	y	1.2773
447.6089	0.0	+	48	verb	phrase	3	7	nomatch	tôt	-1	1	y	1.2773
447.9925	0.2	rouler	48	verb	phrase	3	8	nomatch	tôt	-1	1	y	1.2773
448.2089	0.0	+	48	verb	phrase	3	9	nomatch	tôt	-1	1	y	1.2773
448.59149999999994	0.2	tard	48	verb	phrase	3	10	nomatch	tôt	-1	1	y	1.2773
448.7914	0.0	+	48	verb	phrase	3	11	nomatch	tôt	-1	1	y	1.2773
449.19120000000004	0.0	+	48	verb	phrase	3	12	nomatch	tôt	-1	1	y	1.2773
451.1908	0.0	TÔT	48	verb	phrase	3	13	nomatch	tôt	-1	1	y	1.2773
452.52309999999994	0.0	+	48	verb	phrase	3	14	nomatch	tôt	-1	1	y	1.2773
452.4681	0.0	[response]	48	verb	phrase	3	15	nomatch	tôt	-1	1	y	1.2773
453.58930000000004	0.0	+	49	verb	list	2	1	match	rouge	5	1	p	0.68748
454.13899999999995	0.2	fzklbg	49	verb	list	2	2	match	rouge	5	1	p	0.68748
454.3389	0.0	+	49	verb	list	2	3	match	rouge	5	1	p	0.68748
454.73869999999994	0.2	sxpw	49	verb	list	2	4	match	rouge	5	1	p	0.68748
454.9386	0.0	+	49	verb	list	2	5	match	rouge	5	1	p	0.68748
455.3385	0.2	ncb	49	verb	list	2	6	match	rouge	5	1	p	0.68748
455.53839999999997	0.0	+	49	verb	list	2	7	match	rouge	5	1	p	0.68748
455.9382	0.2	voyager	49	verb	list	2	8	match	rouge	5	1	p	0.68748
456.13809999999995	0.0	+	49	verb	list	2	9	match	rouge	5	1	p	0.68748
456.5379	0.2	rouge	49	verb	list	2	10	match	rouge	5	1	p	0.68748
456.7384	0.0	+	49	verb	list	2	11	match	rouge	5	1	p	0.68748
457.15450000000004	0.0	+	49	verb	list	2	12	match	rouge	5	1	p	0.68748
459.15360000000004	0.0	ROUGE	49	verb	list	2	13	match	rouge	5	1	p	0.68748
459.90309999999994	0.0	+	49	verb	list	2	14	match	rouge	5	1	p	0.68748
459.84110000000004	0.0	[response]	49	verb	list	2	15	match	rouge	5	1	p	0.68748
461.53569999999996	0.0	+	50	verb	phrase	3	1	nomatch	pour	-1	1	y	0.77377
462.0854	0.2	vmxf	50	verb	phrase	3	2	nomatch	pour	-1	1	y	0.77377
462.28529999999995	0.0	+	50	verb	phrase	3	3	nomatch	pour	-1	1	y	0.77377
462.6851	0.2	wcxg	50	verb	phrase	3	4	nomatch	pour	-1	1	y	0.77377
462.8851	0.0	+	50	verb	phrase	3	5	nomatch	pour	-1	1	y	0.77377
463.28540000000004	0.2	peut	50	verb	phrase	3	6	nomatch	pour	-1	1	y	0.77377
463.4852	0.0	+	50	verb	phrase	3	7	nomatch	pour	-1	1	y	0.77377
463.8847	0.2	parader	50	verb	phrase	3	8	nomatch	pour	-1	1	y	0.77377
464.08520000000004	0.0	+	50	verb	phrase	3	9	nomatch	pour	-1	1	y	0.77377
464.4844	0.2	loin	50	verb	phrase	3	10	nomatch	pour	-1	1	y	0.77377
464.68429999999995	0.0	+	50	verb	phrase	3	11	nomatch	pour	-1	1	y	0.77377
465.0841	0.0	+	50	verb	phrase	3	12	nomatch	pour	-1	1	y	0.77377
467.0998	0.0	POUR	50	verb	phrase	3	13	nomatch	pour	-1	1	y	0.77377
467.9328	0.0	+	50	verb	phrase	3	14	nomatch	pour	-1	1	y	0.77377
467.87359999999995	0.0	[response]	50	verb	phrase	3	15	nomatch	pour	-1	1	y	0.77377
469.49949999999995	0.0	+	51	noun	list	1	1	nomatch	sous	-1	1	y	0.83157
470.04849999999993	0.2	cvq	51	noun	list	1	2	nomatch	sous	-1	1	y	0.83157
470.2484	0.0	+	51	noun	list	1	3	nomatch	sous	-1	1	y	0.83157
470.64820000000003	0.2	qskv	51	noun	list	1	4	nomatch	sous	-1	1	y	0.83157
470.8481	0.0	+	51	noun	list	1	5	nomatch	sous	-1	1	y	0.83157
471.248	0.2	fbd	51	noun	list	1	6	nomatch	sous	-1	1	y	0.83157
471.46469999999994	0.0	+	51	noun	list	1	7	nomatch	sous	-1	1	y	0.83157
471.84819999999996	0.2	htmzb	51	noun	list	1	8	nomatch	sous	-1	1	y	0.83157
472.0482	0.0	+	51	noun	list	1	9	nomatch	sous	-1	1	y	0.83157
472.44739999999996	0.2	boîtier	51	noun	list	1	10	nomatch	sous	-1	1	y	0.83157
472.64730000000003	0.0	+	51	noun	list	1	11	nomatch	sous	-1	1	y	0.83157
473.04720000000003	0.0	+	51	noun	list	1	12	nomatch	sous	-1	1	y	0.83157
475.04630000000003	0.0	SOUS	51	noun	list	1	13	nomatch	sous	-1	1	y	0.83157
475.9459	0.0	+	51	noun	list	1	14	nomatch	sous	-1	1	y	0.83157
475.8779	0.0	[response]	51	noun	list	1	15	nomatch	sous	-1	1	y	0.83157
477.44519999999994	0.0	+	52	verb	list	1	1	match	jongler	5	1	p	0.8553100000000001
477.99549999999994	0.2	jlrdkh	52	verb	list	1	2	match	jongler	5	1	p	0.8553100000000001
478.21199999999993	0.0	+	52	verb	list	1	3	match	jongler	5	1	p	0.8553100000000001
478.59499999999997	0.2	wcxg	52	verb	list	1	4	match	jongler	5	1	p	0.8553100000000001
478.81149999999997	0.0	+	52	verb	list	1	5	match	jongler	5	1	p	0.8553100000000001
479.19440000000003	0.2	ncb	52	verb	list	1	6	match	jongler	5	1	p	0.8553100000000001
479.3943	0.0	+	52	verb	list	1	7	match	jongler	5	1	p	0.8553100000000001
479.7941	0.2	rtsdg	52	verb	list	1	8	match	jongler	5	1	p	0.8553100000000001
479.99399999999997	0.0	+	52	verb	list	1	9	match	jongler	5	1	p	0.8553100000000001
480.3939	0.2	jongler	52	verb	list	1	10	match	jongler	5	1	p	0.8553100000000001
480.59379999999993	0.0	+	52	verb	list	1	11	match	jongler	5	1	p	0.8553100000000001
480.99359999999996	0.0	+	52	verb	list	1	12	match	jongler	5	1	p	0.8553100000000001
482.99269999999996	0.0	JONGLER	52	verb	list	1	13	match	jongler	5	1	p	0.8553100000000001
483.90889999999996	0.0	+	52	verb	list	1	14	match	jongler	5	1	p	0.8553100000000001
483.848	0.0	[response]	52	verb	list	1	15	match	jongler	5	1	p	0.8553100000000001
485.3916	0.0	+	53	noun	list	2	1	match	tablier	5	1	p	0.72812
485.9414	0.2	sblj	53	noun	list	2	2	match	tablier	5	1	p	0.72812
486.14129999999994	0.0	+	53	noun	list	2	3	match	tablier	5	1	p	0.72812
486.5411	0.2	sxpw	53	noun	list	2	4	match	tablier	5	1	p	0.72812
486.74100000000004	0.0	+	53	noun	list	2	5	match	tablier	5	1	p	0.72812
487.14079999999996	0.2	fzjl	53	noun	list	2	6	match	tablier	5	1	p	0.72812
487.3407	0.0	+	53	noun	list	2	7	match	tablier	5	1	p	0.72812
487.7412	0.2	beaucoup	53	noun	list	2	8	match	tablier	5	1	p	0.72812
487.941	0.0	+	53	noun	list	2	9	match	tablier	5	1	p	0.72812
488.3404	0.2	tablier	53	noun	list	2	10	match	tablier	5	1	p	0.72812
488.5409	0.0	+	53	noun	list	2	11	match	tablier	5	1	p	0.72812
488.94069999999994	0.0	+	53	noun	list	2	12	match	tablier	5	1	p	0.72812
490.9391	0.0	TABLIER	53	noun	list	2	13	match	tablier	5	1	p	0.72812
491.7221	0.0	+	53	noun	list	2	14	match	tablier	5	1	p	0.72812
491.66720000000004	0.0	[response]	53	noun	list	2	15	match	tablier	5	1	p	0.72812
517.4111	0.0	+	54	noun	list	3	1	match	tôt	5	1	p	0.71256
517.9110000000001	0.2	cgtjv	54	noun	list	3	2	match	tôt	5	1	p	0.71256
518.0938	0.0	+	54	noun	list	3	3	match	tôt	5	1	p	0.71256
518.494	0.2	pcms	54	noun	list	3	4	match	tôt	5	1	p	0.71256
518.6933	0.0	+	54	noun	list	3	5	match	tôt	5	1	p	0.71256
519.0931	0.2	va	54	noun	list	3	6	match	tôt	5	1	p	0.71256
519.293	0.0	+	54	noun	list	3	7	match	tôt	5	1	p	0.71256
519.6928	0.2	grenier	54	noun	list	3	8	match	tôt	5	1	p	0.71256
519.8927	0.0	+	54	noun	list	3	9	match	tôt	5	1	p	0.71256
520.2926	0.2	tôt	54	noun	list	3	10	match	tôt	5	1	p	0.71256
520.4925000000001	0.0	+	54	noun	list	3	11	match	tôt	5	1	p	0.71256
520.8923000000001	0.0	+	54	noun	list	3	12	match	tôt	5	1	p	0.71256
522.8918	0.0	TÔT	54	noun	list	3	13	match	tôt	5	1	p	0.71256
523.6577000000001	0.0	+	54	noun	list	3	14	match	tôt	5	1	p	0.71256
523.6043000000001	0.0	[response]	54	noun	list	3	15	match	tôt	5	1	p	0.71256
525.2903	0.0	+	55	verb	phrase	4	1	match	loin	5	1	p	0.67006
525.8401	0.2	jncg	55	verb	phrase	4	2	match	loin	5	1	p	0.67006
526.0400000000001	0.0	+	55	verb	phrase	4	3	match	loin	5	1	p	0.67006
526.4398	0.2	yves	55	verb	phrase	4	4	match	loin	5	1	p	0.67006
526.6397000000001	0.0	+	55	verb	phrase	4	5	match	loin	5	1	p	0.67006
527.0401	0.2	doit	55	verb	phrase	4	6	match	loin	5	1	p	0.67006
527.2567	0.0	+	55	verb	phrase	4	7	match	loin	5	1	p	0.67006
527.6396000000001	0.2	voyager	55	verb	phrase	4	8	match	loin	5	1	p	0.67006
527.8397	0.0	+	55	verb	phrase	4	9	match	loin	5	1	p	0.67006
528.2392000000001	0.2	loin	55	verb	phrase	4	10	match	loin	5	1	p	0.67006
528.4389	0.0	+	55	verb	phrase	4	11	match	loin	5	1	p	0.67006
528.8387	0.0	+	55	verb	phrase	4	12	match	loin	5	1	p	0.67006
530.8378	0.0	LOIN	55	verb	phrase	4	13	match	loin	5	1	p	0.67006
531.5708000000001	0.0	+	55	verb	phrase	4	14	match	loin	5	1	p	0.67006
531.5079000000001	0.0	[response]	55	verb	phrase	4	15	match	loin	5	1	p	0.67006
533.2367	0.0	+	56	verb	list	1	1	match	nager	5	1	p	0.64384
533.7865	0.2	cmljn	56	verb	list	1	2	match	nager	5	1	p	0.64384
533.9864	0.0	+	56	verb	list	1	3	match	nager	5	1	p	0.64384
534.3862	0.2	gmcl	56	verb	list	1	4	match	nager	5	1	p	0.64384
534.5861	0.0	+	56	verb	list	1	5	match	nager	5	1	p	0.64384
534.986	0.2	zhcb	56	verb	list	1	6	match	nager	5	1	p	0.64384
535.1859000000001	0.0	+	56	verb	list	1	7	match	nager	5	1	p	0.64384
535.5864	0.2	whdml	56	verb	list	1	8	match	nager	5	1	p	0.64384
535.7862	0.0	+	56	verb	list	1	9	match	nager	5	1	p	0.64384
536.1854000000001	0.2	nager	56	verb	list	1	10	match	nager	5	1	p	0.64384
536.3853	0.0	+	56	verb	list	1	11	match	nager	5	1	p	0.64384
536.7851	0.0	+	56	verb	list	1	12	match	nager	5	1	p	0.64384
538.8015	0.0	NAGER	56	verb	list	1	13	match	nager	5	1	p	0.64384
539.5678	0.0	+	56	verb	list	1	14	match	nager	5	1	p	0.64384
539.4453000000001	0.0	[response]	56	verb	list	1	15	match	nager	5	1	p	0.64384
541.1998000000001	0.0	+	57	verb	phrase	2	1	nomatch	sous	-1	1	y	0.74418
541.7496	0.2	rwgpb	57	verb	phrase	2	2	nomatch	sous	-1	1	y	0.74418
541.9495000000001	0.0	+	57	verb	phrase	2	3	nomatch	sous	-1	1	y	0.74418
542.3493000000001	0.2	qskv	57	verb	phrase	2	4	nomatch	sous	-1	1	y	0.74418
542.5492	0.0	+	57	verb	phrase	2	5	nomatch	sous	-1	1	y	0.74418
542.9490000000001	0.2	bmjh	57	verb	phrase	2	6	nomatch	sous	-1	1	y	0.74418
543.1489	0.0	+	57	verb	phrase	2	7	nomatch	sous	-1	1	y	0.74418
543.5659	0.2	moins	57	verb	phrase	2	8	nomatch	sous	-1	1	y	0.74418
543.7657	0.0	+	57	verb	phrase	2	9	nomatch	sous	-1	1	y	0.74418
544.1492000000001	0.2	rouler	57	verb	phrase	2	10	nomatch	sous	-1	1	y	0.74418
544.349	0.0	+	57	verb	phrase	2	11	nomatch	sous	-1	1	y	0.74418
544.7482	0.0	+	57	verb	phrase	2	12	nomatch	sous	-1	1	y	0.74418
546.7473	0.0	SOUS	57	verb	phrase	2	13	nomatch	sous	-1	1	y	0.74418
547.547	0.0	+	57	verb	phrase	2	14	nomatch	sous	-1	1	y	0.74418
547.4915000000001	0.0	[response]	57	verb	phrase	2	15	nomatch	sous	-1	1	y	0.74418
549.1463	0.0	+	58	verb	list	4	1	match	jean	2	1	p	0.80875
549.696	0.2	csfp	58	verb	list	4	2	match	jean	2	1	p	0.80875
549.8959000000001	0.0	+	58	verb	list	4	3	match	jean	2	1	p	0.80875
550.2957	0.2	jean	58	verb	list	4	4	match	jean	2	1	p	0.80875
550.4956000000001	0.0	+	58	verb	list	4	5	match	jean	2	1	p	0.80875
550.9128000000001	0.2	son	58	verb	list	4	6	match	jean	2	1	p	0.80875
551.0958	0.0	+	58	verb	list	4	7	match	jean	2	1	p	0.80875
551.4959	0.2	parader	58	verb	list	4	8	match	jean	2	1	p	0.80875
551.712	0.0	+	58	verb	list	4	9	match	jean	2	1	p	0.80875
552.1120000000001	0.2	noir	58	verb	list	4	10	match	jean	2	1	p	0.80875
552.2948	0.0	+	58	verb	list	4	11	match	jean	2	1	p	0.80875
552.6947	0.0	+	58	verb	list	4	12	match	jean	2	1	p	0.80875
554.6944000000001	0.0	JEAN	58	verb	list	4	13	match	jean	2	1	p	0.80875
555.5600000000001	0.0	+	58	verb	list	4	14	match	jean	2	1	p	0.80875
555.5032	0.0	[response]	58	verb	list	4	15	match	jean	2	1	p	0.80875
557.0927	0.0	+	59	verb	list	2	1	nomatch	moins	-1	1	y	0.77891
557.6424000000001	0.2	wkq	59	verb	list	2	2	nomatch	moins	-1	1	y	0.77891
557.8423	0.0	+	59	verb	list	2	3	nomatch	moins	-1	1	y	0.77891
558.2422	0.2	wcxg	59	verb	list	2	4	nomatch	moins	-1	1	y	0.77891
558.4421000000001	0.0	+	59	verb	list	2	5	nomatch	moins	-1	1	y	0.77891
558.8422	0.2	fzjl	59	verb	list	2	6	nomatch	moins	-1	1	y	0.77891
559.0422000000001	0.0	+	59	verb	list	2	7	nomatch	moins	-1	1	y	0.77891
559.4416	0.2	rouler	59	verb	list	2	8	nomatch	moins	-1	1	y	0.77891
559.6415000000001	0.0	+	59	verb	list	2	9	nomatch	moins	-1	1	y	0.77891
560.0413000000001	0.2	bleu	59	verb	list	2	10	nomatch	moins	-1	1	y	0.77891
560.2413	0.0	+	59	verb	list	2	11	nomatch	moins	-1	1	y	0.77891
560.6411	0.0	+	59	verb	list	2	12	nomatch	moins	-1	1	y	0.77891
562.6402	0.0	MOINS	59	verb	list	2	13	nomatch	moins	-1	1	y	0.77891
563.4732	0.0	+	59	verb	list	2	14	nomatch	moins	-1	1	y	0.77891
563.4191000000001	0.0	[response]	59	verb	list	2	15	nomatch	moins	-1	1	y	0.77891
565.0391000000001	0.0	+	60	verb	list	1	1	nomatch	vieux	-1	1	y	0.8202100000000001
565.5889000000001	0.2	wlxsfc	60	verb	list	1	2	nomatch	vieux	-1	1	y	0.8202100000000001
565.7888	0.0	+	60	verb	list	1	3	nomatch	vieux	-1	1	y	0.8202100000000001
566.1886000000001	0.2	xpd	60	verb	list	1	4	nomatch	vieux	-1	1	y	0.8202100000000001
566.3885	0.0	+	60	verb	list	1	5	nomatch	vieux	-1	1	y	0.8202100000000001
566.7883	0.2	bmjh	60	verb	list	1	6	nomatch	vieux	-1	1	y	0.8202100000000001
566.9882	0.0	+	60	verb	list	1	7	nomatch	vieux	-1	1	y	0.8202100000000001
567.388	0.2	pgmxrls	60	verb	list	1	8	nomatch	vieux	-1	1	y	0.8202100000000001
567.5880000000001	0.0	+	60	verb	list	1	9	nomatch	vieux	-1	1	y	0.8202100000000001
567.9882	0.2	petit	60	verb	list	1	10	nomatch	vieux	-1	1	y	0.8202100000000001
568.188	0.0	+	60	verb	list	1	11	nomatch	vieux	-1	1	y	0.8202100000000001
568.5876000000001	0.0	+	60	verb	list	1	12	nomatch	vieux	-1	1	y	0.8202100000000001
570.5866000000001	0.0	VIEUX	60	verb	list	1	13	nomatch	vieux	-1	1	y	0.8202100000000001
571.4696	0.0	+	60	verb	list	1	14	nomatch	vieux	-1	1	y	0.8202100000000001
571.4068000000001	0.0	[response]	60	verb	list	1	15	nomatch	vieux	-1	1	y	0.8202100000000001
572.9855	0.0	+	61	verb	phrase	4	1	match	nager	5	0	y	0.71497
573.5353	0.2	zsfpdv	61	verb	phrase	4	2	match	nager	5	0	y	0.71497
573.7352000000001	0.0	+	61	verb	phrase	4	3	match	nager	5	0	y	0.71497
574.135	0.2	yves	61	verb	phrase	4	4	match	nager	5	0	y	0.71497
574.3349000000001	0.0	+	61	verb	phrase	4	5	match	nager	5	0	y	0.71497
574.7347000000001	0.2	va	61	verb	phrase	4	6	match	nager	5	0	y	0.71497
574.9347	0.0	+	61	verb	phrase	4	7	match	nager	5	0	y	0.71497
575.3345	0.2	plus	61	verb	phrase	4	8	match	nager	5	0	y	0.71497
575.5349	0.0	+	61	verb	phrase	4	9	match	nager	5	0	y	0.71497
575.9344000000001	0.2	nager	61	verb	phrase	4	10	match	nager	5	0	y	0.71497
576.1508	0.0	+	61	verb	phrase	4	11	match	nager	5	0	y	0.71497
576.5339	0.0	+	61	verb	phrase	4	12	match	nager	5	0	y	0.71497
578.5502	0.0	NAGER	61	verb	phrase	4	13	match	nager	5	0	y	0.71497
579.3834	0.0	+	61	verb	phrase	4	14	match	nager	5	0	y	0.71497
579.2652	0.0	[response]	61	verb	phrase	4	15	match	nager	5	0	y	0.71497
580.9486	0.0	+	62	verb	list	4	1	nomatch	ainsi	-1	1	y	1.2144
581.4984000000001	0.2	jkxm	62	verb	list	4	2	nomatch	ainsi	-1	1	y	1.2144
581.6983	0.0	+	62	verb	list	4	3	nomatch	ainsi	-1	1	y	1.2144
582.0987	0.2	dans	62	verb	list	4	4	nomatch	ainsi	-1	1	y	1.2144
582.3151	0.0	+	62	verb	list	4	5	nomatch	ainsi	-1	1	y	1.2144
582.7146	0.2	peut	62	verb	list	4	6	nomatch	ainsi	-1	1	y	1.2144
582.9151	0.0	+	62	verb	list	4	7	nomatch	ainsi	-1	1	y	1.2144
583.2976	0.2	nouveau	62	verb	list	4	8	nomatch	ainsi	-1	1	y	1.2144
583.4975000000001	0.0	+	62	verb	list	4	9	nomatch	ainsi	-1	1	y	1.2144
583.8973000000001	0.2	jongler	62	verb	list	4	10	nomatch	ainsi	-1	1	y	1.2144
584.0972	0.0	+	62	verb	list	4	11	nomatch	ainsi	-1	1	y	1.2144
584.4970000000001	0.0	+	62	verb	list	4	12	nomatch	ainsi	-1	1	y	1.2144
586.4962	0.0	AINSI	62	verb	list	4	13	nomatch	ainsi	-1	1	y	1.2144
587.7622	0.0	+	62	verb	list	4	14	nomatch	ainsi	-1	1	y	1.2144
587.7105	0.0	[response]	62	verb	list	4	15	nomatch	ainsi	-1	1	y	1.2144
588.8950000000001	0.0	+	63	verb	phrase	1	1	match	patiner	5	1	p	0.45657
589.4448	0.2	gfx	63	verb	phrase	1	2	match	patiner	5	1	p	0.45657
589.6447000000001	0.0	+	63	verb	phrase	1	3	match	patiner	5	1	p	0.45657
590.0445000000001	0.2	qskv	63	verb	phrase	1	4	match	patiner	5	1	p	0.45657
590.2444	0.0	+	63	verb	phrase	1	5	match	patiner	5	1	p	0.45657
590.6442000000001	0.2	zhcb	63	verb	phrase	1	6	match	patiner	5	1	p	0.45657
590.8442	0.0	+	63	verb	phrase	1	7	match	patiner	5	1	p	0.45657
591.244	0.2	kzvg	63	verb	phrase	1	8	match	patiner	5	1	p	0.45657
591.4439000000001	0.0	+	63	verb	phrase	1	9	match	patiner	5	1	p	0.45657
591.844	0.2	patiner	63	verb	phrase	1	10	match	patiner	5	1	p	0.45657
592.0440000000001	0.0	+	63	verb	phrase	1	11	match	patiner	5	1	p	0.45657
592.4435000000001	0.0	+	63	verb	phrase	1	12	match	patiner	5	1	p	0.45657
594.4599000000001	0.0	PATINER	63	verb	phrase	1	13	match	patiner	5	1	p	0.45657
594.9756000000001	0.0	+	63	verb	phrase	1	14	match	patiner	5	1	p	0.45657
594.9164000000001	0.0	[response]	63	verb	phrase	1	15	match	patiner	5	1	p	0.45657
604.8379	0.0	+	64	verb	phrase	4	1	match	doit	3	1	p	0.64816
605.3878000000001	0.2	hnvwsdf	64	verb	phrase	4	2	match	doit	3	1	p	0.64816
605.5876000000001	0.0	+	64	verb	phrase	4	3	match	doit	3	1	p	0.64816
605.9874000000001	0.2	jean	64	verb	phrase	4	4	match	doit	3	1	p	0.64816
606.1876000000001	0.0	+	64	verb	phrase	4	5	match	doit	3	1	p	0.64816
606.5871000000001	0.2	doit	64	verb	phrase	4	6	match	doit	3	1	p	0.64816
606.787	0.0	+	64	verb	phrase	4	7	match	doit	3	1	p	0.64816
607.1868000000001	0.2	beaucoup	64	verb	phrase	4	8	match	doit	3	1	p	0.64816
607.3867	0.0	+	64	verb	phrase	4	9	match	doit	3	1	p	0.64816
607.7865	0.2	rouler	64	verb	phrase	4	10	match	doit	3	1	p	0.64816
607.9865000000001	0.0	+	64	verb	phrase	4	11	match	doit	3	1	p	0.64816
608.3863	0.0	+	64	verb	phrase	4	12	match	doit	3	1	p	0.64816
610.4022	0.0	DOIT	64	verb	phrase	4	13	match	doit	3	1	p	0.64816
611.1025000000001	0.0	+	64	verb	phrase	4	14	match	doit	3	1	p	0.64816
611.0503	0.0	[response]	64	verb	phrase	4	15	match	doit	3	1	p	0.64816
612.8182	0.0	+	65	verb	list	2	1	nomatch	adam	-1	1	y	0.81104
613.3347	0.2	hcqgsb	65	verb	list	2	2	nomatch	adam	-1	1	y	0.81104
613.5339	0.0	+	65	verb	list	2	3	nomatch	adam	-1	1	y	0.81104
613.9338	0.2	lwsf	65	verb	list	2	4	nomatch	adam	-1	1	y	0.81104
614.1337000000001	0.0	+	65	verb	list	2	5	nomatch	adam	-1	1	y	0.81104
614.5335	0.2	bmjh	65	verb	list	2	6	nomatch	adam	-1	1	y	0.81104
614.7501000000001	0.0	+	65	verb	list	2	7	nomatch	adam	-1	1	y	0.81104
615.1499	0.2	beau	65	verb	list	2	8	nomatch	adam	-1	1	y	0.81104
615.3498000000001	0.0	+	65	verb	list	2	9	nomatch	adam	-1	1	y	0.81104
615.7496	0.2	patiner	65	verb	list	2	10	nomatch	adam	-1	1	y	0.81104
615.9495000000001	0.0	+	65	verb	list	2	11	nomatch	adam	-1	1	y	0.81104
616.3494000000001	0.0	+	65	verb	list	2	12	nomatch	adam	-1	1	y	0.81104
618.349	0.0	ADAM	65	verb	list	2	13	nomatch	adam	-1	1	y	0.81104
619.2147	0.0	+	65	verb	list	2	14	nomatch	adam	-1	1	y	0.81104
619.1601	0.0	[response]	65	verb	list	2	15	nomatch	adam	-1	1	y	0.81104
620.7474000000001	0.0	+	66	noun	list	1	1	match	rocher	5	1	p	0.42118
621.2971	0.2	gdxpv	66	noun	list	1	2	match	rocher	5	1	p	0.42118
621.4970000000001	0.0	+	66	noun	list	1	3	match	rocher	5	1	p	0.42118
621.8969000000001	0.2	qskv	66	noun	list	1	4	match	rocher	5	1	p	0.42118
622.0973	0.0	+	66	noun	list	1	5	match	rocher	5	1	p	0.42118
622.5135	0.2	fbd	66	noun	list	1	6	match	rocher	5	1	p	0.42118
622.6969	0.0	+	66	noun	list	1	7	match	rocher	5	1	p	0.42118
623.0967	0.2	htmzb	66	noun	list	1	8	match	rocher	5	1	p	0.42118
623.2965	0.0	+	66	noun	list	1	9	match	rocher	5	1	p	0.42118
623.696	0.2	rocher	66	noun	list	1	10	match	rocher	5	1	p	0.42118
623.8960000000001	0.0	+	66	noun	list	1	11	match	rocher	5	1	p	0.42118
624.2958000000001	0.0	+	66	noun	list	1	12	match	rocher	5	1	p	0.42118
626.2949000000001	0.0	ROCHER	66	noun	list	1	13	match	rocher	5	1	p	0.42118
626.778	0.0	+	66	noun	list	1	14	match	rocher	5	1	p	0.42118
626.716	0.0	[response]	66	noun	list	1	15	match	rocher	5	1	p	0.42118
628.6938	0.0	+	67	verb	phrase	1	1	match	parader	5	1	p	0.7231
629.2436	0.2	bfmqd	67	verb	phrase	1	2	match	parader	5	1	p	0.7231
629.4435000000001	0.0	+	67	verb	phrase	1	3	match	parader	5	1	p	0.7231
629.8603	0.2	ckf	67	verb	phrase	1	4	match	parader	5	1	p	0.7231
630.0434	0.0	+	67	verb	phrase	1	5	match	parader	5	1	p	0.7231
630.4430000000001	0.2	bmjh	67	verb	phrase	1	6	match	parader	5	1	p	0.7231
630.6429	0.0	+	67	verb	phrase	1	7	match	parader	5	1	p	0.7231
631.0427000000001	0.2	hrjx	67	verb	phrase	1	8	match	parader	5	1	p	0.7231
631.2427	0.0	+	67	verb	phrase	1	9	match	parader	5	1	p	0.7231
631.6425	0.2	parader	67	verb	phrase	1	10	match	parader	5	1	p	0.7231
631.8424	0.0	+	67	verb	phrase	1	11	match	parader	5	1	p	0.7231
632.2422	0.0	+	67	verb	phrase	1	12	match	parader	5	1	p	0.7231
634.2413	0.0	PARADER	67	verb	phrase	1	13	match	parader	5	1	p	0.7231
635.0243	0.0	+	67	verb	phrase	1	14	match	parader	5	1	p	0.7231
634.9644000000001	0.0	[response]	67	verb	phrase	1	15	match	parader	5	1	p	0.7231
636.6402	0.0	+	68	noun	list	4	1	match	plus	4	1	p	0.64798
637.19	0.2	mqtf	68	noun	list	4	2	match	plus	4	1	p	0.64798
637.3899	0.0	+	68	noun	list	4	3	match	plus	4	1	p	0.64798
637.7897	0.2	yves	68	noun	list	4	4	match	plus	4	1	p	0.64798
637.9896	0.0	+	68	noun	list	4	5	match	plus	4	1	p	0.64798
638.39	0.2	mon	68	noun	list	4	6	match	plus	4	1	p	0.64798
638.5895	0.0	+	68	noun	list	4	7	match	plus	4	1	p	0.64798
638.9898000000001	0.2	plus	68	noun	list	4	8	match	plus	4	1	p	0.64798
639.1895000000001	0.0	+	68	noun	list	4	9	match	plus	4	1	p	0.64798
639.5889000000001	0.2	casier	68	noun	list	4	10	match	plus	4	1	p	0.64798
639.7888	0.0	+	68	noun	list	4	11	match	plus	4	1	p	0.64798
640.1886000000001	0.0	+	68	noun	list	4	12	match	plus	4	1	p	0.64798
642.1877000000001	0.0	PLUS	68	noun	list	4	13	match	plus	4	1	p	0.64798
642.8874000000001	0.0	+	68	noun	list	4	14	match	plus	4	1	p	0.64798
642.8357000000002	0.0	[response]	68	noun	list	4	15	match	plus	4	1	p	0.64798
644.5867000000001	0.0	+	69	verb	list	4	1	nomatch	chasser	-1	1	y	0.82986
645.1364000000001	0.2	bsz	69	verb	list	4	2	nomatch	chasser	-1	1	y	0.82986
645.3363	0.0	+	69	verb	list	4	3	nomatch	chasser	-1	1	y	0.82986
645.7361000000001	0.2	pour	69	verb	list	4	4	nomatch	chasser	-1	1	y	0.82986
645.9364	0.0	+	69	verb	list	4	5	nomatch	chasser	-1	1	y	0.82986
646.3526	0.2	va	69	verb	list	4	6	nomatch	chasser	-1	1	y	0.82986
646.5363000000001	0.0	+	69	verb	list	4	7	nomatch	chasser	-1	1	y	0.82986
646.9526000000001	0.2	petit	69	verb	list	4	8	nomatch	chasser	-1	1	y	0.82986
647.1356000000001	0.0	+	69	verb	list	4	9	nomatch	chasser	-1	1	y	0.82986
647.5353	0.2	danser	69	verb	list	4	10	nomatch	chasser	-1	1	y	0.82986
647.7352000000001	0.0	+	69	verb	list	4	11	nomatch	chasser	-1	1	y	0.82986
648.1351000000001	0.0	+	69	verb	list	4	12	nomatch	chasser	-1	1	y	0.82986
650.1346000000001	0.0	CHASSER	69	verb	list	4	13	nomatch	chasser	-1	1	y	0.82986
651.0171	0.0	+	69	verb	list	4	14	nomatch	chasser	-1	1	y	0.82986
650.9644000000001	0.0	[response]	69	verb	list	4	15	nomatch	chasser	-1	1	y	0.82986
652.5497	0.0	+	70	verb	phrase	2	1	nomatch	doit	-1	1	y	0.71341
653.0999	0.2	hxckj	70	verb	phrase	2	2	nomatch	doit	-1	1	y	0.71341
653.2999000000001	0.0	+	70	verb	phrase	2	3	nomatch	doit	-1	1	y	0.71341
653.6994000000001	0.2	ckf	70	verb	phrase	2	4	nomatch	doit	-1	1	y	0.71341
653.8991000000001	0.0	+	70	verb	phrase	2	5	nomatch	doit	-1	1	y	0.71341
654.2990000000001	0.2	zhcb	70	verb	phrase	2	6	nomatch	doit	-1	1	y	0.71341
654.4989	0.0	+	70	verb	phrase	2	7	nomatch	doit	-1	1	y	0.71341
654.8987000000001	0.2	trop	70	verb	phrase	2	8	nomatch	doit	-1	1	y	0.71341
655.0986	0.0	+	70	verb	phrase	2	9	nomatch	doit	-1	1	y	0.71341
655.4984000000001	0.2	voyager	70	verb	phrase	2	10	nomatch	doit	-1	1	y	0.71341
655.6983	0.0	+	70	verb	phrase	2	11	nomatch	doit	-1	1	y	0.71341
656.0981	0.0	+	70	verb	phrase	2	12	nomatch	doit	-1	1	y	0.71341
658.0973	0.0	DOIT	70	verb	phrase	2	13	nomatch	doit	-1	1	y	0.71341
658.8636	0.0	+	70	verb	phrase	2	14	nomatch	doit	-1	1	y	0.71341
658.8107	0.0	[response]	70	verb	phrase	2	15	nomatch	doit	-1	1	y	0.71341
660.4962	0.0	+	71	verb	phrase	2	1	match	parader	4	1	p	0.73347
661.0459000000001	0.2	hbk	71	verb	phrase	2	2	match	parader	4	1	p	0.73347
661.2458	0.0	+	71	verb	phrase	2	3	match	parader	4	1	p	0.73347
661.6457	0.2	bgmp	71	verb	phrase	2	4	match	parader	4	1	p	0.73347
661.8456	0.0	+	71	verb	phrase	2	5	match	parader	4	1	p	0.73347
662.2622	0.2	ns	71	verb	phrase	2	6	match	parader	4	1	p	0.73347
662.462	0.0	+	71	verb	phrase	2	7	match	parader	4	1	p	0.73347
662.8455	0.2	parader	71	verb	phrase	2	8	match	parader	4	1	p	0.73347
663.0454000000001	0.0	+	71	verb	phrase	2	9	match	parader	4	1	p	0.73347
663.4448	0.2	tard	71	verb	phrase	2	10	match	parader	4	1	p	0.73347
663.6447000000001	0.0	+	71	verb	phrase	2	11	match	parader	4	1	p	0.73347
664.0446000000001	0.0	+	71	verb	phrase	2	12	match	parader	4	1	p	0.73347
666.0437000000001	0.0	PARADER	71	verb	phrase	2	13	match	parader	4	1	p	0.73347
666.8433	0.0	+	71	verb	phrase	2	14	match	parader	4	1	p	0.73347
666.7771	0.0	[response]	71	verb	phrase	2	15	match	parader	4	1	p	0.73347
668.4426000000001	0.0	+	72	verb	list	1	1	nomatch	ainsi	-1	1	y	1.6263000000000003
668.9923	0.2	tbcdn	72	verb	list	1	2	nomatch	ainsi	-1	1	y	1.6263000000000003
669.1923	0.0	+	72	verb	list	1	3	nomatch	ainsi	-1	1	y	1.6263000000000003
669.5921000000001	0.2	wcxg	72	verb	list	1	4	nomatch	ainsi	-1	1	y	1.6263000000000003
669.792	0.0	+	72	verb	list	1	5	nomatch	ainsi	-1	1	y	1.6263000000000003
670.1918000000001	0.2	ncb	72	verb	list	1	6	nomatch	ainsi	-1	1	y	1.6263000000000003
670.3917	0.0	+	72	verb	list	1	7	nomatch	ainsi	-1	1	y	1.6263000000000003
670.7915	0.2	mdjqzgp	72	verb	list	1	8	nomatch	ainsi	-1	1	y	1.6263000000000003
670.9914	0.0	+	72	verb	list	1	9	nomatch	ainsi	-1	1	y	1.6263000000000003
671.4083	0.2	noir	72	verb	list	1	10	nomatch	ainsi	-1	1	y	1.6263000000000003
671.5914	0.0	+	72	verb	list	1	11	nomatch	ainsi	-1	1	y	1.6263000000000003
671.9917	0.0	+	72	verb	list	1	12	nomatch	ainsi	-1	1	y	1.6263000000000003
673.9901000000001	0.0	AINSI	72	verb	list	1	13	nomatch	ainsi	-1	1	y	1.6263000000000003
675.6727000000001	0.0	+	72	verb	list	1	14	nomatch	ainsi	-1	1	y	1.6263000000000003
675.6164	0.0	[response]	72	verb	list	1	15	nomatch	ainsi	-1	1	y	1.6263000000000003
684.3854	0.0	+	73	verb	phrase	1	1	nomatch	mieux	-1	1	y	0.84601
684.9352	0.2	gbxmrw	73	verb	phrase	1	2	nomatch	mieux	-1	1	y	0.84601
685.1351000000001	0.0	+	73	verb	phrase	1	3	nomatch	mieux	-1	1	y	0.84601
685.5521	0.2	qskv	73	verb	phrase	1	4	nomatch	mieux	-1	1	y	0.84601
685.7352000000001	0.0	+	73	verb	phrase	1	5	nomatch	mieux	-1	1	y	0.84601
686.1352	0.2	ns	73	verb	phrase	1	6	nomatch	mieux	-1	1	y	0.84601
686.3519	0.0	+	73	verb	phrase	1	7	nomatch	mieux	-1	1	y	0.84601
686.7344	0.2	pgmxrls	73	verb	phrase	1	8	nomatch	mieux	-1	1	y	0.84601
686.9343	0.0	+	73	verb	phrase	1	9	nomatch	mieux	-1	1	y	0.84601
687.3341	0.2	plus	73	verb	phrase	1	10	nomatch	mieux	-1	1	y	0.84601
687.534	0.0	+	73	verb	phrase	1	11	nomatch	mieux	-1	1	y	0.84601
687.9338	0.0	+	73	verb	phrase	1	12	nomatch	mieux	-1	1	y	0.84601
689.9496	0.0	MIEUX	73	verb	phrase	1	13	nomatch	mieux	-1	1	y	0.84601
690.966	0.0	+	73	verb	phrase	1	14	nomatch	mieux	-1	1	y	0.84601
690.7956	0.0	[response]	73	verb	phrase	1	15	nomatch	mieux	-1	1	y	0.84601
692.3485000000001	0.0	+	74	verb	list	2	1	nomatch	grand	-1	1	y	0.75489
692.8982000000001	0.2	vdb	74	verb	list	2	2	nomatch	grand	-1	1	y	0.75489
693.0982	0.0	+	74	verb	list	2	3	nomatch	grand	-1	1	y	0.75489
693.498	0.2	gmcl	74	verb	list	2	4	nomatch	grand	-1	1	y	0.75489
693.6979	0.0	+	74	verb	list	2	5	nomatch	grand	-1	1	y	0.75489
694.0977	0.2	zhcb	74	verb	list	2	6	nomatch	grand	-1	1	y	0.75489
694.2976	0.0	+	74	verb	list	2	7	nomatch	grand	-1	1	y	0.75489
694.6974	0.2	petit	74	verb	list	2	8	nomatch	grand	-1	1	y	0.75489
694.8974000000001	0.0	+	74	verb	list	2	9	nomatch	grand	-1	1	y	0.75489
695.2975	0.2	voyager	74	verb	list	2	10	nomatch	grand	-1	1	y	0.75489
695.514	0.0	+	74	verb	list	2	11	nomatch	grand	-1	1	y	0.75489
695.9143	0.0	+	74	verb	list	2	12	nomatch	grand	-1	1	y	0.75489
697.9133	0.0	GRAND	74	verb	list	2	13	nomatch	grand	-1	1	y	0.75489
698.7289000000001	0.0	+	74	verb	list	2	14	nomatch	grand	-1	1	y	0.75489
698.6682000000001	0.0	[response]	74	verb	list	2	15	nomatch	grand	-1	1	y	0.75489
700.2949000000001	0.0	+	75	noun	phrase	2	1	match	cendrier	5	1	p	0.45318
700.8447	0.2	wvj	75	noun	phrase	2	2	match	cendrier	5	1	p	0.45318
701.0446000000001	0.0	+	75	noun	phrase	2	3	match	cendrier	5	1	p	0.45318
701.4444000000001	0.2	gfws	75	noun	phrase	2	4	match	cendrier	5	1	p	0.45318
701.6443	0.0	+	75	noun	phrase	2	5	match	cendrier	5	1	p	0.45318
702.0441000000001	0.2	fzjl	75	noun	phrase	2	6	match	cendrier	5	1	p	0.45318
702.2442000000001	0.0	+	75	noun	phrase	2	7	match	cendrier	5	1	p	0.45318
702.6444	0.2	nouveau	75	noun	phrase	2	8	match	cendrier	5	1	p	0.45318
702.8608	0.0	+	75	noun	phrase	2	9	match	cendrier	5	1	p	0.45318
703.2443000000001	0.2	cendrier	75	noun	phrase	2	10	match	cendrier	5	1	p	0.45318
703.4441	0.0	+	75	noun	phrase	2	11	match	cendrier	5	1	p	0.45318
703.8433	0.0	+	75	noun	phrase	2	12	match	cendrier	5	1	p	0.45318
705.8424	0.0	CENDRIER	75	noun	phrase	2	13	match	cendrier	5	1	p	0.45318
706.3591	0.0	+	75	noun	phrase	2	14	match	cendrier	5	1	p	0.45318
706.2956	0.0	[response]	75	noun	phrase	2	15	match	cendrier	5	1	p	0.45318
716.2884	0.0	+	76	verb	list	1	1	nomatch	rouler	-1	1	y	0.9128
716.8049000000001	0.2	wfrmnqv	76	verb	list	1	2	nomatch	rouler	-1	1	y	0.9128
716.9881	0.0	+	76	verb	list	1	3	nomatch	rouler	-1	1	y	0.9128
717.3874000000001	0.2	xpd	76	verb	list	1	4	nomatch	rouler	-1	1	y	0.9128
717.5872	0.0	+	76	verb	list	1	5	nomatch	rouler	-1	1	y	0.9128
717.9870000000001	0.2	ns	76	verb	list	1	6	nomatch	rouler	-1	1	y	0.9128
718.1869	0.0	+	76	verb	list	1	7	nomatch	rouler	-1	1	y	0.9128
718.5867000000001	0.2	rnhfxqj	76	verb	list	1	8	nomatch	rouler	-1	1	y	0.9128
718.7866	0.0	+	76	verb	list	1	9	nomatch	rouler	-1	1	y	0.9128
719.1864	0.2	chasser	76	verb	list	1	10	nomatch	rouler	-1	1	y	0.9128
719.3863	0.0	+	76	verb	list	1	11	nomatch	rouler	-1	1	y	0.9128
719.7862	0.0	+	76	verb	list	1	12	nomatch	rouler	-1	1	y	0.9128
721.7856	0.0	ROULER	76	verb	list	1	13	nomatch	rouler	-1	1	y	0.9128
722.7515000000001	0.0	+	76	verb	list	1	14	nomatch	rouler	-1	1	y	0.9128
722.6984	0.0	[response]	76	verb	list	1	15	nomatch	rouler	-1	1	y	0.9128
724.1842	0.0	+	77	verb	list	3	1	nomatch	beau	-1	1	y	0.84656
724.7339000000001	0.2	rkjvszx	77	verb	list	3	2	nomatch	beau	-1	1	y	0.84656
724.9338	0.0	+	77	verb	list	3	3	nomatch	beau	-1	1	y	0.84656
725.3337	0.2	lwsf	77	verb	list	3	4	nomatch	beau	-1	1	y	0.84656
725.5336000000001	0.0	+	77	verb	list	3	5	nomatch	beau	-1	1	y	0.84656
725.95	0.2	va	77	verb	list	3	6	nomatch	beau	-1	1	y	0.84656
726.1672000000001	0.0	+	77	verb	list	3	7	nomatch	beau	-1	1	y	0.84656
726.567	0.2	grand	77	verb	list	3	8	nomatch	beau	-1	1	y	0.84656
726.75	0.0	+	77	verb	list	3	9	nomatch	beau	-1	1	y	0.84656
727.1500000000001	0.2	nager	77	verb	list	3	10	nomatch	beau	-1	1	y	0.84656
727.35	0.0	+	77	verb	list	3	11	nomatch	beau	-1	1	y	0.84656
727.7492000000001	0.0	+	77	verb	list	3	12	nomatch	beau	-1	1	y	0.84656
729.7483000000001	0.0	BEAU	77	verb	list	3	13	nomatch	beau	-1	1	y	0.84656
730.6479	0.0	+	77	verb	list	3	14	nomatch	beau	-1	1	y	0.84656
730.5949	0.0	[response]	77	verb	list	3	15	nomatch	beau	-1	1	y	0.84656
740.1437000000001	0.0	+	78	verb	list	3	1	nomatch	rocher	-1	1	y	0.8805000000000001
740.6934	0.2	rpvjnc	78	verb	list	3	2	nomatch	rocher	-1	1	y	0.8805000000000001
740.8933000000001	0.0	+	78	verb	list	3	3	nomatch	rocher	-1	1	y	0.8805000000000001
741.2932000000001	0.2	wcxg	78	verb	list	3	4	nomatch	rocher	-1	1	y	0.8805000000000001
741.4931	0.0	+	78	verb	list	3	5	nomatch	rocher	-1	1	y	0.8805000000000001
741.8929	0.2	leur	78	verb	list	3	6	nomatch	rocher	-1	1	y	0.8805000000000001
742.0928	0.0	+	78	verb	list	3	7	nomatch	rocher	-1	1	y	0.8805000000000001
742.4933000000001	0.2	voyager	78	verb	list	3	8	nomatch	rocher	-1	1	y	0.8805000000000001
742.6931000000001	0.0	+	78	verb	list	3	9	nomatch	rocher	-1	1	y	0.8805000000000001
743.0930000000001	0.2	rouge	78	verb	list	3	10	nomatch	rocher	-1	1	y	0.8805000000000001
743.2928	0.0	+	78	verb	list	3	11	nomatch	rocher	-1	1	y	0.8805000000000001
743.6921000000001	0.0	+	78	verb	list	3	12	nomatch	rocher	-1	1	y	0.8805000000000001
745.6912000000001	0.0	ROCHER	78	verb	list	3	13	nomatch	rocher	-1	1	y	0.8805000000000001
746.6241	0.0	+	78	verb	list	3	14	nomatch	rocher	-1	1	y	0.8805000000000001
746.5717000000002	0.0	[response]	78	verb	list	3	15	nomatch	rocher	-1	1	y	0.8805000000000001
748.0901	0.0	+	79	noun	phrase	1	1	match	panier	5	1	p	0.69799
748.6398	0.2	dmwbztx	79	noun	phrase	1	2	match	panier	5	1	p	0.69799
748.8397	0.0	+	79	noun	phrase	1	3	match	panier	5	1	p	0.69799
749.2396	0.2	pcms	79	noun	phrase	1	4	match	panier	5	1	p	0.69799
749.4395000000001	0.0	+	79	noun	phrase	1	5	match	panier	5	1	p	0.69799
749.8393000000001	0.2	ncb	79	noun	phrase	1	6	match	panier	5	1	p	0.69799
750.0400000000001	0.0	+	79	noun	phrase	1	7	match	panier	5	1	p	0.69799
750.4394000000001	0.2	qmkf	79	noun	phrase	1	8	match	panier	5	1	p	0.69799
750.6559000000001	0.0	+	79	noun	phrase	1	9	match	panier	5	1	p	0.69799
751.0389	0.2	panier	79	noun	phrase	1	10	match	panier	5	1	p	0.69799
751.2393000000001	0.0	+	79	noun	phrase	1	11	match	panier	5	1	p	0.69799
751.6385	0.0	+	79	noun	phrase	1	12	match	panier	5	1	p	0.69799
753.6549	0.0	PANIER	79	noun	phrase	1	13	match	panier	5	1	p	0.69799
754.4206	0.0	+	79	noun	phrase	1	14	match	panier	5	1	p	0.69799
754.3529000000001	0.0	[response]	79	noun	phrase	1	15	match	panier	5	1	p	0.69799
756.0365	0.0	+	80	verb	list	3	1	match	vert	5	1	p	1.049
756.5863	0.2	psjwhgm	80	verb	list	3	2	match	vert	5	1	p	1.049
756.7862	0.0	+	80	verb	list	3	3	match	vert	5	1	p	1.049
757.186	0.2	bgmp	80	verb	list	3	4	match	vert	5	1	p	1.049
757.3859	0.0	+	80	verb	list	3	5	match	vert	5	1	p	1.049
757.7863000000001	0.2	son	80	verb	list	3	6	match	vert	5	1	p	1.049
757.9861000000001	0.0	+	80	verb	list	3	7	match	vert	5	1	p	1.049
758.3854	0.2	nager	80	verb	list	3	8	match	vert	5	1	p	1.049
758.5854	0.0	+	80	verb	list	3	9	match	vert	5	1	p	1.049
758.9852000000001	0.2	vert	80	verb	list	3	10	match	vert	5	1	p	1.049
759.1851	0.0	+	80	verb	list	3	11	match	vert	5	1	p	1.049
759.5849000000001	0.0	+	80	verb	list	3	12	match	vert	5	1	p	1.049
761.5840000000001	0.0	VERT	80	verb	list	3	13	match	vert	5	1	p	1.049
762.7002	0.0	+	80	verb	list	3	14	match	vert	5	1	p	1.049
763.9996	0.0	+	80	verb	list	3	15	match	vert	5	1	p	1.049
783.1077	0.0	+	80	verb	list	3	16	match	vert	5	1	p	1.049
762.633	0.0	[response]	80	verb	list	3	17	match	vert	5	1	p	1.049
