onset	duration	stim	trial_number	trial_type	trial_structure	trial_length	sequential_position	probe_type	probe	probe_position	response_correct	response_key	response_time
0.06729999999999592	0.0	+	1	verb	phrase	1	1	nomatch	ainsi	-1	1	p	0.58584
0.5503999999999962	0.2	chdxvkq	1	verb	phrase	1	2	nomatch	ainsi	-1	1	p	0.58584
0.7502999999999957	0.0	+	1	verb	phrase	1	3	nomatch	ainsi	-1	1	p	0.58584
1.1500999999999948	0.2	dgtf	1	verb	phrase	1	4	nomatch	ainsi	-1	1	p	0.58584
1.3500000000000014	0.0	+	1	verb	phrase	1	5	nomatch	ainsi	-1	1	p	0.58584
1.7498000000000005	0.2	vdfh	1	verb	phrase	1	6	nomatch	ainsi	-1	1	p	0.58584
1.9497	0.0	+	1	verb	phrase	1	7	nomatch	ainsi	-1	1	p	0.58584
2.3495999999999952	0.2	tjq	1	verb	phrase	1	8	nomatch	ainsi	-1	1	p	0.58584
2.5494999999999948	0.0	+	1	verb	phrase	1	9	nomatch	ainsi	-1	1	p	0.58584
2.949300000000001	0.2	jongler	1	verb	phrase	1	10	nomatch	ainsi	-1	1	p	0.58584
3.1492000000000004	0.0	+	1	verb	phrase	1	11	nomatch	ainsi	-1	1	p	0.58584
3.5489999999999995	0.0	+	1	verb	phrase	1	12	nomatch	ainsi	-1	1	p	0.58584
5.548099999999998	0.0	AINSI	1	verb	phrase	1	13	nomatch	ainsi	-1	1	p	0.58584
6.197800000000001	0.0	+	1	verb	phrase	1	14	nomatch	ainsi	-1	1	p	0.58584
6.134	0.0	[response]	1	verb	phrase	1	15	nomatch	ainsi	-1	1	p	0.58584
7.947099999999999	0.0	+	2	noun	list	1	1	match	boîtier	5	1	y	0.55073
8.4968	0.2	pmhs	2	noun	list	1	2	match	boîtier	5	1	y	0.55073
8.6967	0.0	+	2	noun	list	1	3	match	boîtier	5	1	y	0.55073
9.096600000000002	0.2	dnmw	2	noun	list	1	4	match	boîtier	5	1	y	0.55073
9.296500000000002	0.0	+	2	noun	list	1	5	match	boîtier	5	1	y	0.55073
9.6963	0.2	qgfj	2	noun	list	1	6	match	boîtier	5	1	y	0.55073
9.8962	0.0	+	2	noun	list	1	7	match	boîtier	5	1	y	0.55073
10.296	0.2	gmfb	2	noun	list	1	8	match	boîtier	5	1	y	0.55073
10.496000000000002	0.0	+	2	noun	list	1	9	match	boîtier	5	1	y	0.55073
10.895800000000001	0.2	boîtier	2	noun	list	1	10	match	boîtier	5	1	y	0.55073
11.0957	0.0	+	2	noun	list	1	11	match	boîtier	5	1	y	0.55073
11.4955	0.0	+	2	noun	list	1	12	match	boîtier	5	1	y	0.55073
13.494599999999998	0.0	BOÎTIER	2	noun	list	1	13	match	boîtier	5	1	y	0.55073
14.110999999999997	0.0	+	2	noun	list	1	14	match	boîtier	5	1	y	0.55073
14.045399999999994	0.0	[response]	2	noun	list	1	15	match	boîtier	5	1	y	0.55073
15.8936	0.0	+	3	noun	list	2	1	nomatch	mieux	-1	1	p	0.63151
16.4433	0.2	sbpmz	3	noun	list	2	2	nomatch	mieux	-1	1	p	0.63151
16.6432	0.0	+	3	noun	list	2	3	nomatch	mieux	-1	1	p	0.63151
17.043100000000003	0.2	jvbz	3	noun	list	2	4	nomatch	mieux	-1	1	p	0.63151
17.243000000000002	0.0	+	3	noun	list	2	5	nomatch	mieux	-1	1	p	0.63151
17.6428	0.2	gkpq	3	noun	list	2	6	nomatch	mieux	-1	1	p	0.63151
17.8427	0.0	+	3	noun	list	2	7	nomatch	mieux	-1	1	p	0.63151
18.2425	0.2	moins	3	noun	list	2	8	nomatch	mieux	-1	1	p	0.63151
18.4424	0.0	+	3	noun	list	2	9	nomatch	mieux	-1	1	p	0.63151
18.8423	0.2	rocher	3	noun	list	2	10	nomatch	mieux	-1	1	p	0.63151
19.0422	0.0	+	3	noun	list	2	11	nomatch	mieux	-1	1	p	0.63151
19.442	0.0	+	3	noun	list	2	12	nomatch	mieux	-1	1	p	0.63151
21.4411	0.0	MIEUX	3	noun	list	2	13	nomatch	mieux	-1	1	p	0.63151
22.12409999999999	0.0	+	3	noun	list	2	14	nomatch	mieux	-1	1	p	0.63151
22.0726	0.0	[response]	3	noun	list	2	15	nomatch	mieux	-1	1	p	0.63151
23.8401	0.0	+	4	noun	list	2	1	match	beaucoup	4	1	y	0.7008200000000001
24.3898	0.2	rmfcx	4	noun	list	2	2	match	beaucoup	4	1	y	0.7008200000000001
24.5897	0.0	+	4	noun	list	2	3	match	beaucoup	4	1	y	0.7008200000000001
24.9895	0.2	mqnx	4	noun	list	2	4	match	beaucoup	4	1	y	0.7008200000000001
25.1894	0.0	+	4	noun	list	2	5	match	beaucoup	4	1	y	0.7008200000000001
25.5893	0.2	jvp	4	noun	list	2	6	match	beaucoup	4	1	y	0.7008200000000001
25.7892	0.0	+	4	noun	list	2	7	match	beaucoup	4	1	y	0.7008200000000001
26.189	0.2	beaucoup	4	noun	list	2	8	match	beaucoup	4	1	y	0.7008200000000001
26.3889	0.0	+	4	noun	list	2	9	match	beaucoup	4	1	y	0.7008200000000001
26.7887	0.2	sablier	4	noun	list	2	10	match	beaucoup	4	1	y	0.7008200000000001
26.988599999999998	0.0	+	4	noun	list	2	11	match	beaucoup	4	1	y	0.7008200000000001
27.3885	0.0	+	4	noun	list	2	12	match	beaucoup	4	1	y	0.7008200000000001
29.3876	0.0	BEAUCOUP	4	noun	list	2	13	match	beaucoup	4	1	y	0.7008200000000001
30.1539	0.0	+	4	noun	list	2	14	match	beaucoup	4	1	y	0.7008200000000001
30.0884	0.0	[response]	4	noun	list	2	15	match	beaucoup	4	1	y	0.7008200000000001
31.786499999999997	0.0	+	5	verb	phrase	4	1	match	adam	2	1	y	0.55602
32.3363	0.2	sbp	5	verb	phrase	4	2	match	adam	2	1	y	0.55602
32.5362	0.0	+	5	verb	phrase	4	3	match	adam	2	1	y	0.55602
32.936	0.2	adam	5	verb	phrase	4	4	match	adam	2	1	y	0.55602
33.1359	0.0	+	5	verb	phrase	4	5	match	adam	2	1	y	0.55602
33.5357	0.2	va	5	verb	phrase	4	6	match	adam	2	1	y	0.55602
33.7357	0.0	+	5	verb	phrase	4	7	match	adam	2	1	y	0.55602
34.1355	0.2	danser	5	verb	phrase	4	8	match	adam	2	1	y	0.55602
34.3354	0.0	+	5	verb	phrase	4	9	match	adam	2	1	y	0.55602
34.7352	0.2	tôt	5	verb	phrase	4	10	match	adam	2	1	y	0.55602
34.9351	0.0	+	5	verb	phrase	4	11	match	adam	2	1	y	0.55602
35.3349	0.0	+	5	verb	phrase	4	12	match	adam	2	1	y	0.55602
37.3341	0.0	ADAM	5	verb	phrase	4	13	match	adam	2	1	y	0.55602
37.9506	0.0	+	5	verb	phrase	4	14	match	adam	2	1	y	0.55602
37.8901	0.0	[response]	5	verb	phrase	4	15	match	adam	2	1	y	0.55602
39.750099999999996	0.0	+	6	verb	list	2	1	match	grand	4	0	TIMEOUT	-1.0
40.2994	0.2	nvcjrbp	6	verb	list	2	2	match	grand	4	0	TIMEOUT	-1.0
40.4993	0.0	+	6	verb	list	2	3	match	grand	4	0	TIMEOUT	-1.0
40.8991	0.2	cxgm	6	verb	list	2	4	match	grand	4	0	TIMEOUT	-1.0
41.0991	0.0	+	6	verb	list	2	5	match	grand	4	0	TIMEOUT	-1.0
41.4989	0.2	qgfj	6	verb	list	2	6	match	grand	4	0	TIMEOUT	-1.0
41.6988	0.0	+	6	verb	list	2	7	match	grand	4	0	TIMEOUT	-1.0
42.0986	0.2	grand	6	verb	list	2	8	match	grand	4	0	TIMEOUT	-1.0
42.2985	0.0	+	6	verb	list	2	9	match	grand	4	0	TIMEOUT	-1.0
42.6984	0.2	jongler	6	verb	list	2	10	match	grand	4	0	TIMEOUT	-1.0
42.8983	0.0	+	6	verb	list	2	11	match	grand	4	0	TIMEOUT	-1.0
43.2981	0.0	+	6	verb	list	2	12	match	grand	4	0	TIMEOUT	-1.0
45.2972	0.0	GRAND	6	verb	list	2	13	match	grand	4	0	TIMEOUT	-1.0
47.696099999999994	0.0	+	7	noun	list	4	1	nomatch	parader	-1	1	p	0.6754500000000001
48.295899999999996	0.2	ktfg	7	noun	list	4	2	nomatch	parader	-1	1	p	0.6754500000000001
48.495799999999996	0.0	+	7	noun	list	4	3	nomatch	parader	-1	1	p	0.6754500000000001
48.895599999999995	0.2	jean	7	noun	list	4	4	nomatch	parader	-1	1	p	0.6754500000000001
49.095499999999994	0.0	+	7	noun	list	4	5	nomatch	parader	-1	1	p	0.6754500000000001
49.49529999999999	0.2	leur	7	noun	list	4	6	nomatch	parader	-1	1	p	0.6754500000000001
49.695299999999996	0.0	+	7	noun	list	4	7	nomatch	parader	-1	1	p	0.6754500000000001
50.095099999999995	0.2	beaucoup	7	noun	list	4	8	nomatch	parader	-1	1	p	0.6754500000000001
50.294999999999995	0.0	+	7	noun	list	4	9	nomatch	parader	-1	1	p	0.6754500000000001
50.694799999999994	0.2	boîtier	7	noun	list	4	10	nomatch	parader	-1	1	p	0.6754500000000001
50.89469999999999	0.0	+	7	noun	list	4	11	nomatch	parader	-1	1	p	0.6754500000000001
51.29449999999999	0.0	+	7	noun	list	4	12	nomatch	parader	-1	1	p	0.6754500000000001
53.293699999999994	0.0	PARADER	7	noun	list	4	13	nomatch	parader	-1	1	p	0.6754500000000001
54.0267	0.0	+	7	noun	list	4	14	nomatch	parader	-1	1	p	0.6754500000000001
53.969100000000005	0.0	[response]	7	noun	list	4	15	nomatch	parader	-1	1	p	0.6754500000000001
55.69259999999999	0.0	+	8	noun	list	2	1	match	cendrier	4	1	y	0.50585
56.242399999999996	0.2	fkrzm	8	noun	list	2	2	match	cendrier	4	1	y	0.50585
56.442299999999996	0.0	+	8	noun	list	2	3	match	cendrier	4	1	y	0.50585
56.842099999999995	0.2	dnmw	8	noun	list	2	4	match	cendrier	4	1	y	0.50585
57.041999999999994	0.0	+	8	noun	list	2	5	match	cendrier	4	1	y	0.50585
57.44179999999999	0.2	vdfh	8	noun	list	2	6	match	cendrier	4	1	y	0.50585
57.64169999999999	0.0	+	8	noun	list	2	7	match	cendrier	4	1	y	0.50585
58.041599999999995	0.2	cendrier	8	noun	list	2	8	match	cendrier	4	1	y	0.50585
58.241499999999995	0.0	+	8	noun	list	2	9	match	cendrier	4	1	y	0.50585
58.641299999999994	0.2	loin	8	noun	list	2	10	match	cendrier	4	1	y	0.50585
58.84119999999999	0.0	+	8	noun	list	2	11	match	cendrier	4	1	y	0.50585
59.24099999999999	0.0	+	8	noun	list	2	12	match	cendrier	4	1	y	0.50585
61.24009999999999	0.0	CENDRIER	8	noun	list	2	13	match	cendrier	4	1	y	0.50585
61.806599999999996	0.0	+	8	noun	list	2	14	match	cendrier	4	1	y	0.50585
61.746	0.0	[response]	8	noun	list	2	15	match	cendrier	4	1	y	0.50585
71.63549999999998	0.0	+	9	verb	list	2	1	match	nager	4	1	y	0.5416000000000001
72.18529999999998	0.2	kcqd	9	verb	list	2	2	match	nager	4	1	y	0.5416000000000001
72.3852	0.0	+	9	verb	list	2	3	match	nager	4	1	y	0.5416000000000001
72.785	0.2	bcs	9	verb	list	2	4	match	nager	4	1	y	0.5416000000000001
72.98489999999998	0.0	+	9	verb	list	2	5	match	nager	4	1	y	0.5416000000000001
73.38479999999998	0.2	jvp	9	verb	list	2	6	match	nager	4	1	y	0.5416000000000001
73.5847	0.0	+	9	verb	list	2	7	match	nager	4	1	y	0.5416000000000001
73.9845	0.2	nager	9	verb	list	2	8	match	nager	4	1	y	0.5416000000000001
74.18439999999998	0.0	+	9	verb	list	2	9	match	nager	4	1	y	0.5416000000000001
74.58419999999998	0.2	rouge	9	verb	list	2	10	match	nager	4	1	y	0.5416000000000001
74.7841	0.0	+	9	verb	list	2	11	match	nager	4	1	y	0.5416000000000001
75.184	0.0	+	9	verb	list	2	12	match	nager	4	1	y	0.5416000000000001
77.19969999999998	0.0	NAGER	9	verb	list	2	13	match	nager	4	1	y	0.5416000000000001
77.7995	0.0	+	9	verb	list	2	14	match	nager	4	1	y	0.5416000000000001
77.7413	0.0	[response]	9	verb	list	2	15	match	nager	4	1	y	0.5416000000000001
79.59869999999998	0.0	+	10	noun	list	1	1	match	tard	5	1	y	0.44741
80.14839999999998	0.2	rdglm	10	noun	list	1	2	match	tard	5	1	y	0.44741
80.3484	0.0	+	10	noun	list	1	3	match	tard	5	1	y	0.44741
80.7482	0.2	bldw	10	noun	list	1	4	match	tard	5	1	y	0.44741
80.94809999999998	0.0	+	10	noun	list	1	5	match	tard	5	1	y	0.44741
81.34789999999998	0.2	qgfj	10	noun	list	1	6	match	tard	5	1	y	0.44741
81.5478	0.0	+	10	noun	list	1	7	match	tard	5	1	y	0.44741
81.9476	0.2	wfclmhx	10	noun	list	1	8	match	tard	5	1	y	0.44741
82.14759999999998	0.0	+	10	noun	list	1	9	match	tard	5	1	y	0.44741
82.54739999999998	0.2	tard	10	noun	list	1	10	match	tard	5	1	y	0.44741
82.7473	0.0	+	10	noun	list	1	11	match	tard	5	1	y	0.44741
83.1471	0.0	+	10	noun	list	1	12	match	tard	5	1	y	0.44741
85.1462	0.0	TARD	10	noun	list	1	13	match	tard	5	1	y	0.44741
85.64599999999999	0.0	+	10	noun	list	1	14	match	tard	5	1	y	0.44741
85.59359999999998	0.0	[response]	10	noun	list	1	15	match	tard	5	1	y	0.44741
95.54159999999999	0.0	+	11	noun	phrase	1	1	match	vert	5	1	y	0.48196
96.0914	0.2	cmxtp	11	noun	phrase	1	2	match	vert	5	1	y	0.48196
96.29129999999998	0.0	+	11	noun	phrase	1	3	match	vert	5	1	y	0.48196
96.69109999999998	0.2	cfhm	11	noun	phrase	1	4	match	vert	5	1	y	0.48196
96.89099999999999	0.0	+	11	noun	phrase	1	5	match	vert	5	1	y	0.48196
97.29079999999999	0.2	jvp	11	noun	phrase	1	6	match	vert	5	1	y	0.48196
97.49079999999998	0.0	+	11	noun	phrase	1	7	match	vert	5	1	y	0.48196
97.89059999999998	0.2	hfjwbdx	11	noun	phrase	1	8	match	vert	5	1	y	0.48196
98.09049999999999	0.0	+	11	noun	phrase	1	9	match	vert	5	1	y	0.48196
98.49029999999999	0.2	vert	11	noun	phrase	1	10	match	vert	5	1	y	0.48196
98.6902	0.0	+	11	noun	phrase	1	11	match	vert	5	1	y	0.48196
99.09	0.0	+	11	noun	phrase	1	12	match	vert	5	1	y	0.48196
101.08919999999998	0.0	VERT	11	noun	phrase	1	13	match	vert	5	1	y	0.48196
101.63889999999998	0.0	+	11	noun	phrase	1	14	match	vert	5	1	y	0.48196
101.57110000000003	0.0	[response]	11	noun	phrase	1	15	match	vert	5	1	y	0.48196
111.4846	0.0	+	12	noun	phrase	3	1	match	leur	3	0	p	0.82692
112.0343	0.2	nsvptq	12	noun	phrase	3	2	match	leur	3	0	p	0.82692
112.23419999999999	0.0	+	12	noun	phrase	3	3	match	leur	3	0	p	0.82692
112.63409999999999	0.2	bldw	12	noun	phrase	3	4	match	leur	3	0	p	0.82692
112.834	0.0	+	12	noun	phrase	3	5	match	leur	3	0	p	0.82692
113.25039999999998	0.2	leur	12	noun	phrase	3	6	match	leur	3	0	p	0.82692
113.4504	0.0	+	12	noun	phrase	3	7	match	leur	3	0	p	0.82692
113.8502	0.2	cendrier	12	noun	phrase	3	8	match	leur	3	0	p	0.82692
114.05009999999999	0.0	+	12	noun	phrase	3	9	match	leur	3	0	p	0.82692
114.44989999999999	0.2	rouge	12	noun	phrase	3	10	match	leur	3	0	p	0.82692
114.6498	0.0	+	12	noun	phrase	3	11	match	leur	3	0	p	0.82692
115.0497	0.0	+	12	noun	phrase	3	12	match	leur	3	0	p	0.82692
117.0488	0.0	LEUR	12	noun	phrase	3	13	match	leur	3	0	p	0.82692
117.93169999999998	0.0	+	12	noun	phrase	3	14	match	leur	3	0	p	0.82692
117.8757	0.0	[response]	12	noun	phrase	3	15	match	leur	3	0	p	0.82692
119.4479	0.0	+	13	noun	phrase	4	1	match	voilier	4	1	y	0.75751
119.9975	0.2	lkwvsmh	13	noun	phrase	4	2	match	voilier	4	1	y	0.75751
120.19739999999999	0.0	+	13	noun	phrase	4	3	match	voilier	4	1	y	0.75751
120.59719999999999	0.2	avec	13	noun	phrase	4	4	match	voilier	4	1	y	0.75751
120.7971	0.0	+	13	noun	phrase	4	5	match	voilier	4	1	y	0.75751
121.1969	0.2	mon	13	noun	phrase	4	6	match	voilier	4	1	y	0.75751
121.39679999999998	0.0	+	13	noun	phrase	4	7	match	voilier	4	1	y	0.75751
121.79669999999999	0.2	voilier	13	noun	phrase	4	8	match	voilier	4	1	y	0.75751
121.9966	0.0	+	13	noun	phrase	4	9	match	voilier	4	1	y	0.75751
122.3964	0.2	bleu	13	noun	phrase	4	10	match	voilier	4	1	y	0.75751
122.59629999999999	0.0	+	13	noun	phrase	4	11	match	voilier	4	1	y	0.75751
122.99609999999998	0.0	+	13	noun	phrase	4	12	match	voilier	4	1	y	0.75751
124.99519999999998	0.0	VOILIER	13	noun	phrase	4	13	match	voilier	4	1	y	0.75751
125.8115	0.0	+	13	noun	phrase	4	14	match	voilier	4	1	y	0.75751
125.75279999999998	0.0	[response]	13	noun	phrase	4	15	match	voilier	4	1	y	0.75751
127.39419999999998	0.0	+	14	noun	list	1	1	nomatch	ainsi	-1	1	p	1.0405
127.94389999999999	0.2	prlkc	14	noun	list	1	2	nomatch	ainsi	-1	1	p	1.0405
128.1439	0.0	+	14	noun	list	1	3	nomatch	ainsi	-1	1	p	1.0405
128.5437	0.2	bcs	14	noun	list	1	4	nomatch	ainsi	-1	1	p	1.0405
128.7436	0.0	+	14	noun	list	1	5	nomatch	ainsi	-1	1	p	1.0405
129.14339999999999	0.2	jwq	14	noun	list	1	6	nomatch	ainsi	-1	1	p	1.0405
129.3433	0.0	+	14	noun	list	1	7	nomatch	ainsi	-1	1	p	1.0405
129.7431	0.2	wfclmhx	14	noun	list	1	8	nomatch	ainsi	-1	1	p	1.0405
129.9431	0.0	+	14	noun	list	1	9	nomatch	ainsi	-1	1	p	1.0405
130.3429	0.2	moins	14	noun	list	1	10	nomatch	ainsi	-1	1	p	1.0405
130.5428	0.0	+	14	noun	list	1	11	nomatch	ainsi	-1	1	p	1.0405
130.9426	0.0	+	14	noun	list	1	12	nomatch	ainsi	-1	1	p	1.0405
132.9417	0.0	AINSI	14	noun	list	1	13	nomatch	ainsi	-1	1	p	1.0405
134.04129999999998	0.0	+	14	noun	list	1	14	nomatch	ainsi	-1	1	p	1.0405
133.98229999999998	0.0	[response]	14	noun	list	1	15	nomatch	ainsi	-1	1	p	1.0405
135.3407	0.0	+	15	verb	list	3	1	nomatch	doit	-1	1	p	0.74616
135.8904	0.2	qjc	15	verb	list	3	2	nomatch	doit	-1	1	p	0.74616
136.09029999999998	0.0	+	15	verb	list	3	3	nomatch	doit	-1	1	p	0.74616
136.4902	0.2	cxgm	15	verb	list	3	4	nomatch	doit	-1	1	p	0.74616
136.6901	0.0	+	15	verb	list	3	5	nomatch	doit	-1	1	p	0.74616
137.0899	0.2	peut	15	verb	list	3	6	nomatch	doit	-1	1	p	0.74616
137.28979999999999	0.0	+	15	verb	list	3	7	nomatch	doit	-1	1	p	0.74616
137.68959999999998	0.2	nouveau	15	verb	list	3	8	nomatch	doit	-1	1	p	0.74616
137.8895	0.0	+	15	verb	list	3	9	nomatch	doit	-1	1	p	0.74616
138.2894	0.2	jongler	15	verb	list	3	10	nomatch	doit	-1	1	p	0.74616
138.4893	0.0	+	15	verb	list	3	11	nomatch	doit	-1	1	p	0.74616
138.88909999999998	0.0	+	15	verb	list	3	12	nomatch	doit	-1	1	p	0.74616
140.88819999999998	0.0	DOIT	15	verb	list	3	13	nomatch	doit	-1	1	p	0.74616
141.68789999999998	0.0	+	15	verb	list	3	14	nomatch	doit	-1	1	p	0.74616
141.6344	0.0	[response]	15	verb	list	3	15	nomatch	doit	-1	1	p	0.74616
143.28709999999998	0.0	+	16	noun	phrase	1	1	nomatch	plonger	-1	1	p	0.62889
143.83689999999999	0.2	btsfnjm	16	noun	phrase	1	2	nomatch	plonger	-1	1	p	0.62889
144.0368	0.0	+	16	noun	phrase	1	3	nomatch	plonger	-1	1	p	0.62889
144.4366	0.2	mfdt	16	noun	phrase	1	4	nomatch	plonger	-1	1	p	0.62889
144.63649999999998	0.0	+	16	noun	phrase	1	5	nomatch	plonger	-1	1	p	0.62889
145.0364	0.2	jwq	16	noun	phrase	1	6	nomatch	plonger	-1	1	p	0.62889
145.2363	0.0	+	16	noun	phrase	1	7	nomatch	plonger	-1	1	p	0.62889
145.6361	0.2	jwvg	16	noun	phrase	1	8	nomatch	plonger	-1	1	p	0.62889
145.83599999999998	0.0	+	16	noun	phrase	1	9	nomatch	plonger	-1	1	p	0.62889
146.23579999999998	0.2	voilier	16	noun	phrase	1	10	nomatch	plonger	-1	1	p	0.62889
146.4358	0.0	+	16	noun	phrase	1	11	nomatch	plonger	-1	1	p	0.62889
146.8356	0.0	+	16	noun	phrase	1	12	nomatch	plonger	-1	1	p	0.62889
148.8348	0.0	PLONGER	16	noun	phrase	1	13	nomatch	plonger	-1	1	p	0.62889
149.5177	0.0	+	16	noun	phrase	1	14	nomatch	plonger	-1	1	p	0.62889
149.4637	0.0	[response]	16	noun	phrase	1	15	nomatch	plonger	-1	1	p	0.62889
151.2506	0.0	+	17	verb	list	3	1	match	son	3	1	y	0.69119
151.79999999999998	0.2	cgxlfn	17	verb	list	3	2	match	son	3	1	y	0.69119
152.0	0.0	+	17	verb	list	3	3	match	son	3	1	y	0.69119
152.3998	0.2	jdlv	17	verb	list	3	4	match	son	3	1	y	0.69119
152.59969999999998	0.0	+	17	verb	list	3	5	match	son	3	1	y	0.69119
152.99949999999998	0.2	son	17	verb	list	3	6	match	son	3	1	y	0.69119
153.1994	0.0	+	17	verb	list	3	7	match	son	3	1	y	0.69119
153.5993	0.2	chasser	17	verb	list	3	8	match	son	3	1	y	0.69119
153.79919999999998	0.0	+	17	verb	list	3	9	match	son	3	1	y	0.69119
154.19899999999998	0.2	vert	17	verb	list	3	10	match	son	3	1	y	0.69119
154.3989	0.0	+	17	verb	list	3	11	match	son	3	1	y	0.69119
154.7987	0.0	+	17	verb	list	3	12	match	son	3	1	y	0.69119
156.7978	0.0	SON	17	verb	list	3	13	match	son	3	1	y	0.69119
157.54749999999999	0.0	+	17	verb	list	3	14	match	son	3	1	y	0.69119
157.489	0.0	[response]	17	verb	list	3	15	match	son	3	1	y	0.69119
159.1968	0.0	+	18	noun	list	4	1	match	ainsi	5	1	y	0.6704200000000001
159.7465	0.2	mbwsnxq	18	noun	list	4	2	match	ainsi	5	1	y	0.6704200000000001
159.94639999999998	0.0	+	18	noun	list	4	3	match	ainsi	5	1	y	0.6704200000000001
160.34629999999999	0.2	vers	18	noun	list	4	4	match	ainsi	5	1	y	0.6704200000000001
160.5462	0.0	+	18	noun	list	4	5	match	ainsi	5	1	y	0.6704200000000001
160.946	0.2	peut	18	noun	list	4	6	match	ainsi	5	1	y	0.6704200000000001
161.14589999999998	0.0	+	18	noun	list	4	7	match	ainsi	5	1	y	0.6704200000000001
161.54569999999998	0.2	voilier	18	noun	list	4	8	match	ainsi	5	1	y	0.6704200000000001
161.7456	0.0	+	18	noun	list	4	9	match	ainsi	5	1	y	0.6704200000000001
162.1455	0.2	ainsi	18	noun	list	4	10	match	ainsi	5	1	y	0.6704200000000001
162.34539999999998	0.0	+	18	noun	list	4	11	match	ainsi	5	1	y	0.6704200000000001
162.74519999999998	0.0	+	18	noun	list	4	12	match	ainsi	5	1	y	0.6704200000000001
164.74429999999998	0.0	AINSI	18	noun	list	4	13	match	ainsi	5	1	y	0.6704200000000001
165.4774	0.0	+	18	noun	list	4	14	match	ainsi	5	1	y	0.6704200000000001
165.41469999999998	0.0	[response]	18	noun	list	4	15	match	ainsi	5	1	y	0.6704200000000001
167.14329999999998	0.0	+	19	noun	list	1	1	match	sablier	5	1	y	0.617
167.69299999999998	0.2	smqxvzg	19	noun	list	1	2	match	sablier	5	1	y	0.617
167.8929	0.0	+	19	noun	list	1	3	match	sablier	5	1	y	0.617
168.2927	0.2	bldw	19	noun	list	1	4	match	sablier	5	1	y	0.617
168.49259999999998	0.0	+	19	noun	list	1	5	match	sablier	5	1	y	0.617
168.89249999999998	0.2	qgfj	19	noun	list	1	6	match	sablier	5	1	y	0.617
169.0924	0.0	+	19	noun	list	1	7	match	sablier	5	1	y	0.617
169.4922	0.2	tjq	19	noun	list	1	8	match	sablier	5	1	y	0.617
169.69209999999998	0.0	+	19	noun	list	1	9	match	sablier	5	1	y	0.617
170.09189999999998	0.2	sablier	19	noun	list	1	10	match	sablier	5	1	y	0.617
170.2919	0.0	+	19	noun	list	1	11	match	sablier	5	1	y	0.617
170.6917	0.0	+	19	noun	list	1	12	match	sablier	5	1	y	0.617
172.6908	0.0	SABLIER	19	noun	list	1	13	match	sablier	5	1	y	0.617
173.3738	0.0	+	19	noun	list	1	14	match	sablier	5	1	y	0.617
173.30780000000001	0.0	[response]	19	noun	list	1	15	match	sablier	5	1	y	0.617
191.0993	0.0	+	20	noun	phrase	3	1	match	boîtier	5	1	y	0.6764800000000001
191.64919999999998	0.2	phrjlf	20	noun	phrase	3	2	match	boîtier	5	1	y	0.6764800000000001
191.849	0.0	+	20	noun	phrase	3	3	match	boîtier	5	1	y	0.6764800000000001
192.2488	0.2	mfdt	20	noun	phrase	3	4	match	boîtier	5	1	y	0.6764800000000001
192.4487	0.0	+	20	noun	phrase	3	5	match	boîtier	5	1	y	0.6764800000000001
192.8485	0.2	mon	20	noun	phrase	3	6	match	boîtier	5	1	y	0.6764800000000001
193.0484	0.0	+	20	noun	phrase	3	7	match	boîtier	5	1	y	0.6764800000000001
193.4483	0.2	vieux	20	noun	phrase	3	8	match	boîtier	5	1	y	0.6764800000000001
193.6482	0.0	+	20	noun	phrase	3	9	match	boîtier	5	1	y	0.6764800000000001
194.048	0.2	boîtier	20	noun	phrase	3	10	match	boîtier	5	1	y	0.6764800000000001
194.2479	0.0	+	20	noun	phrase	3	11	match	boîtier	5	1	y	0.6764800000000001
194.6477	0.0	+	20	noun	phrase	3	12	match	boîtier	5	1	y	0.6764800000000001
196.64679999999998	0.0	BOÎTIER	20	noun	phrase	3	13	match	boîtier	5	1	y	0.6764800000000001
197.3799	0.0	+	20	noun	phrase	3	14	match	boîtier	5	1	y	0.6764800000000001
197.3233	0.0	[response]	20	noun	phrase	3	15	match	boîtier	5	1	y	0.6764800000000001
199.04579999999999	0.0	+	21	verb	phrase	1	1	match	ainsi	5	1	y	0.65203
199.5955	0.2	dbgkx	21	verb	phrase	1	2	match	ainsi	5	1	y	0.65203
199.79549999999998	0.0	+	21	verb	phrase	1	3	match	ainsi	5	1	y	0.65203
200.1953	0.2	vdsk	21	verb	phrase	1	4	match	ainsi	5	1	y	0.65203
200.39520000000002	0.0	+	21	verb	phrase	1	5	match	ainsi	5	1	y	0.65203
200.795	0.2	vdfh	21	verb	phrase	1	6	match	ainsi	5	1	y	0.65203
200.9949	0.0	+	21	verb	phrase	1	7	match	ainsi	5	1	y	0.65203
201.39469999999997	0.2	brqzflk	21	verb	phrase	1	8	match	ainsi	5	1	y	0.65203
201.59470000000002	0.0	+	21	verb	phrase	1	9	match	ainsi	5	1	y	0.65203
201.9945	0.2	ainsi	21	verb	phrase	1	10	match	ainsi	5	1	y	0.65203
202.1944	0.0	+	21	verb	phrase	1	11	match	ainsi	5	1	y	0.65203
202.59419999999997	0.0	+	21	verb	phrase	1	12	match	ainsi	5	1	y	0.65203
204.59329999999997	0.0	AINSI	21	verb	phrase	1	13	match	ainsi	5	1	y	0.65203
205.3097	0.0	+	21	verb	phrase	1	14	match	ainsi	5	1	y	0.65203
205.2454	0.0	[response]	21	verb	phrase	1	15	match	ainsi	5	1	y	0.65203
206.99229999999997	0.0	+	22	noun	phrase	1	1	nomatch	bleu	-1	1	p	1.0217
207.542	0.2	csp	22	noun	phrase	1	2	nomatch	bleu	-1	1	p	1.0217
207.74190000000002	0.0	+	22	noun	phrase	1	3	nomatch	bleu	-1	1	p	1.0217
208.14180000000002	0.2	wtx	22	noun	phrase	1	4	nomatch	bleu	-1	1	p	1.0217
208.34169999999997	0.0	+	22	noun	phrase	1	5	nomatch	bleu	-1	1	p	1.0217
208.7415	0.2	jwq	22	noun	phrase	1	6	nomatch	bleu	-1	1	p	1.0217
208.94140000000002	0.0	+	22	noun	phrase	1	7	nomatch	bleu	-1	1	p	1.0217
209.3412	0.2	csjvltx	22	noun	phrase	1	8	nomatch	bleu	-1	1	p	1.0217
209.5411	0.0	+	22	noun	phrase	1	9	nomatch	bleu	-1	1	p	1.0217
209.941	0.2	noir	22	noun	phrase	1	10	nomatch	bleu	-1	1	p	1.0217
210.14090000000002	0.0	+	22	noun	phrase	1	11	nomatch	bleu	-1	1	p	1.0217
210.5407	0.0	+	22	noun	phrase	1	12	nomatch	bleu	-1	1	p	1.0217
212.53979999999999	0.0	BLEU	22	noun	phrase	1	13	nomatch	bleu	-1	1	p	1.0217
213.62269999999998	0.0	+	22	noun	phrase	1	14	nomatch	bleu	-1	1	p	1.0217
213.5615	0.0	[response]	22	noun	phrase	1	15	nomatch	bleu	-1	1	p	1.0217
214.9388	0.0	+	23	noun	list	1	1	match	tôt	5	1	y	0.59087
215.48850000000002	0.2	gsf	23	noun	list	1	2	match	tôt	5	1	y	0.59087
215.68839999999997	0.0	+	23	noun	list	1	3	match	tôt	5	1	y	0.59087
216.0882	0.2	vpfm	23	noun	list	1	4	match	tôt	5	1	y	0.59087
216.2882	0.0	+	23	noun	list	1	5	match	tôt	5	1	y	0.59087
216.68800000000002	0.2	vdfh	23	noun	list	1	6	match	tôt	5	1	y	0.59087
216.88789999999997	0.0	+	23	noun	list	1	7	match	tôt	5	1	y	0.59087
217.2877	0.2	dhrcxv	23	noun	list	1	8	match	tôt	5	1	y	0.59087
217.48760000000001	0.0	+	23	noun	list	1	9	match	tôt	5	1	y	0.59087
217.88739999999999	0.2	tôt	23	noun	list	1	10	match	tôt	5	1	y	0.59087
218.08739999999997	0.0	+	23	noun	list	1	11	match	tôt	5	1	y	0.59087
218.4872	0.0	+	23	noun	list	1	12	match	tôt	5	1	y	0.59087
220.4863	0.0	TÔT	23	noun	list	1	13	match	tôt	5	1	y	0.59087
221.136	0.0	+	23	noun	list	1	14	match	tôt	5	1	y	0.59087
221.07719999999998	0.0	[response]	23	noun	list	1	15	match	tôt	5	1	y	0.59087
222.88519999999997	0.0	+	24	noun	list	1	1	match	tablier	5	0	p	1.3957000000000002
223.43499999999997	0.2	ngj	24	noun	list	1	2	match	tablier	5	0	p	1.3957000000000002
223.63500000000002	0.0	+	24	noun	list	1	3	match	tablier	5	0	p	1.3957000000000002
224.03470000000002	0.2	jvbz	24	noun	list	1	4	match	tablier	5	0	p	1.3957000000000002
224.23459999999997	0.0	+	24	noun	list	1	5	match	tablier	5	0	p	1.3957000000000002
224.63449999999997	0.2	gkpq	24	noun	list	1	6	match	tablier	5	0	p	1.3957000000000002
224.8344	0.0	+	24	noun	list	1	7	match	tablier	5	0	p	1.3957000000000002
225.23420000000002	0.2	cwmn	24	noun	list	1	8	match	tablier	5	0	p	1.3957000000000002
225.43409999999997	0.0	+	24	noun	list	1	9	match	tablier	5	0	p	1.3957000000000002
225.83399999999997	0.2	tablier	24	noun	list	1	10	match	tablier	5	0	p	1.3957000000000002
226.05049999999997	0.0	+	24	noun	list	1	11	match	tablier	5	0	p	1.3957000000000002
226.4503	0.0	+	24	noun	list	1	12	match	tablier	5	0	p	1.3957000000000002
228.4494	0.0	TABLIER	24	noun	list	1	13	match	tablier	5	0	p	1.3957000000000002
229.89879999999997	0.0	+	24	noun	list	1	14	match	tablier	5	0	p	1.3957000000000002
229.8452	0.0	[response]	24	noun	list	1	15	match	tablier	5	0	p	1.3957000000000002
230.84849999999997	0.0	+	25	noun	list	1	1	nomatch	doit	-1	1	p	0.54022
231.39809999999997	0.2	lcdtbqn	25	noun	list	1	2	nomatch	doit	-1	1	p	0.54022
231.59799999999998	0.0	+	25	noun	list	1	3	nomatch	doit	-1	1	p	0.54022
231.9979	0.2	vpfm	25	noun	list	1	4	nomatch	doit	-1	1	p	0.54022
232.1978	0.0	+	25	noun	list	1	5	nomatch	doit	-1	1	p	0.54022
232.59759999999997	0.2	qgfj	25	noun	list	1	6	nomatch	doit	-1	1	p	0.54022
232.79749999999999	0.0	+	25	noun	list	1	7	nomatch	doit	-1	1	p	0.54022
233.1973	0.2	fphn	25	noun	list	1	8	nomatch	doit	-1	1	p	0.54022
233.39719999999997	0.0	+	25	noun	list	1	9	nomatch	doit	-1	1	p	0.54022
233.79709999999997	0.2	voilier	25	noun	list	1	10	nomatch	doit	-1	1	p	0.54022
233.99699999999999	0.0	+	25	noun	list	1	11	nomatch	doit	-1	1	p	0.54022
234.3968	0.0	+	25	noun	list	1	12	nomatch	doit	-1	1	p	0.54022
236.3959	0.0	DOIT	25	noun	list	1	13	nomatch	doit	-1	1	p	0.54022
236.99569999999997	0.0	+	25	noun	list	1	14	nomatch	doit	-1	1	p	0.54022
236.93609999999998	0.0	[response]	25	noun	list	1	15	nomatch	doit	-1	1	p	0.54022
238.7949	0.0	+	26	noun	phrase	1	1	nomatch	paul	-1	1	p	2.6028
239.34459999999999	0.2	nlkv	26	noun	phrase	1	2	nomatch	paul	-1	1	p	2.6028
239.5445	0.0	+	26	noun	phrase	1	3	nomatch	paul	-1	1	p	2.6028
239.94429999999997	0.2	mfdt	26	noun	phrase	1	4	nomatch	paul	-1	1	p	2.6028
240.14430000000002	0.0	+	26	noun	phrase	1	5	nomatch	paul	-1	1	p	2.6028
240.5441	0.2	jvp	26	noun	phrase	1	6	nomatch	paul	-1	1	p	2.6028
240.744	0.0	+	26	noun	phrase	1	7	nomatch	paul	-1	1	p	2.6028
241.14379999999997	0.2	csjvltx	26	noun	phrase	1	8	nomatch	paul	-1	1	p	2.6028
241.34369999999998	0.0	+	26	noun	phrase	1	9	nomatch	paul	-1	1	p	2.6028
241.7435	0.2	grand	26	noun	phrase	1	10	nomatch	paul	-1	1	p	2.6028
241.9435	0.0	+	26	noun	phrase	1	11	nomatch	paul	-1	1	p	2.6028
242.34329999999997	0.0	+	26	noun	phrase	1	12	nomatch	paul	-1	1	p	2.6028
244.34239999999997	0.0	PAUL	26	noun	phrase	1	13	nomatch	paul	-1	1	p	2.6028
247.00789999999998	0.0	+	26	noun	phrase	1	14	nomatch	paul	-1	1	p	2.6028
246.94519999999997	0.0	[response]	26	noun	phrase	1	15	nomatch	paul	-1	1	p	2.6028
254.73779999999996	0.0	+	27	noun	list	3	1	match	trop	4	1	y	0.54941
255.28759999999997	0.2	ptqr	27	noun	list	3	2	match	trop	4	1	y	0.54941
255.48749999999998	0.0	+	27	noun	list	3	3	match	trop	4	1	y	0.54941
255.8873	0.2	tnwf	27	noun	list	3	4	match	trop	4	1	y	0.54941
256.0872	0.0	+	27	noun	list	3	5	match	trop	4	1	y	0.54941
256.487	0.2	son	27	noun	list	3	6	match	trop	4	1	y	0.54941
256.68690000000004	0.0	+	27	noun	list	3	7	match	trop	4	1	y	0.54941
257.08680000000004	0.2	trop	27	noun	list	3	8	match	trop	4	1	y	0.54941
257.2867	0.0	+	27	noun	list	3	9	match	trop	4	1	y	0.54941
257.6865	0.2	casier	27	noun	list	3	10	match	trop	4	1	y	0.54941
257.88640000000004	0.0	+	27	noun	list	3	11	match	trop	4	1	y	0.54941
258.2862	0.0	+	27	noun	list	3	12	match	trop	4	1	y	0.54941
260.2853	0.0	TROP	27	noun	list	3	13	match	trop	4	1	y	0.54941
260.9017	0.0	+	27	noun	list	3	14	match	trop	4	1	y	0.54941
260.8347	0.0	[response]	27	noun	list	3	15	match	trop	4	1	y	0.54941
262.6843	0.0	+	28	noun	list	3	1	match	vite	5	1	y	0.5992200000000001
263.23400000000004	0.2	skg	28	noun	list	3	2	match	vite	5	1	y	0.5992200000000001
263.4339	0.0	+	28	noun	list	3	3	match	vite	5	1	y	0.5992200000000001
263.85040000000004	0.2	vpfm	28	noun	list	3	4	match	vite	5	1	y	0.5992200000000001
264.0503	0.0	+	28	noun	list	3	5	match	vite	5	1	y	0.5992200000000001
264.4502	0.2	doit	28	noun	list	3	6	match	vite	5	1	y	0.5992200000000001
264.6501	0.0	+	28	noun	list	3	7	match	vite	5	1	y	0.5992200000000001
265.04990000000004	0.2	voilier	28	noun	list	3	8	match	vite	5	1	y	0.5992200000000001
265.2498	0.0	+	28	noun	list	3	9	match	vite	5	1	y	0.5992200000000001
265.6496	0.2	vite	28	noun	list	3	10	match	vite	5	1	y	0.5992200000000001
265.84950000000003	0.0	+	28	noun	list	3	11	match	vite	5	1	y	0.5992200000000001
266.24940000000004	0.0	+	28	noun	list	3	12	match	vite	5	1	y	0.5992200000000001
268.24850000000004	0.0	VITE	28	noun	list	3	13	match	vite	5	1	y	0.5992200000000001
268.91490000000005	0.0	+	28	noun	list	3	14	match	vite	5	1	y	0.5992200000000001
268.84770000000003	0.0	[response]	28	noun	list	3	15	match	vite	5	1	y	0.5992200000000001
270.6474	0.0	+	29	verb	list	1	1	match	grand	5	1	y	0.53358
271.1972	0.2	dbwkxcl	29	verb	list	1	2	match	grand	5	1	y	0.53358
271.3971	0.0	+	29	verb	list	1	3	match	grand	5	1	y	0.53358
271.7969	0.2	cxgm	29	verb	list	1	4	match	grand	5	1	y	0.53358
271.9968	0.0	+	29	verb	list	1	5	match	grand	5	1	y	0.53358
272.39660000000003	0.2	vdfh	29	verb	list	1	6	match	grand	5	1	y	0.53358
272.5966	0.0	+	29	verb	list	1	7	match	grand	5	1	y	0.53358
272.9964	0.2	pcgtzw	29	verb	list	1	8	match	grand	5	1	y	0.53358
273.1963	0.0	+	29	verb	list	1	9	match	grand	5	1	y	0.53358
273.59610000000004	0.2	grand	29	verb	list	1	10	match	grand	5	1	y	0.53358
273.796	0.0	+	29	verb	list	1	11	match	grand	5	1	y	0.53358
274.1958	0.0	+	29	verb	list	1	12	match	grand	5	1	y	0.53358
276.195	0.0	GRAND	29	verb	list	1	13	match	grand	5	1	y	0.53358
276.79470000000003	0.0	+	29	verb	list	1	14	match	grand	5	1	y	0.53358
276.7285	0.0	[response]	29	verb	list	1	15	match	grand	5	1	y	0.53358
278.5939	0.0	+	30	noun	phrase	1	1	match	rouge	5	1	y	0.79486
279.1437	0.2	kznmp	30	noun	phrase	1	2	match	rouge	5	1	y	0.79486
279.34360000000004	0.0	+	30	noun	phrase	1	3	match	rouge	5	1	y	0.79486
279.7434	0.2	wtx	30	noun	phrase	1	4	match	rouge	5	1	y	0.79486
279.9433	0.0	+	30	noun	phrase	1	5	match	rouge	5	1	y	0.79486
280.3431	0.2	gkpq	30	noun	phrase	1	6	match	rouge	5	1	y	0.79486
280.543	0.0	+	30	noun	phrase	1	7	match	rouge	5	1	y	0.79486
280.9429	0.2	cjfvpqbs	30	noun	phrase	1	8	match	rouge	5	1	y	0.79486
281.1428	0.0	+	30	noun	phrase	1	9	match	rouge	5	1	y	0.79486
281.5426	0.2	rouge	30	noun	phrase	1	10	match	rouge	5	1	y	0.79486
281.7425	0.0	+	30	noun	phrase	1	11	match	rouge	5	1	y	0.79486
282.14230000000003	0.0	+	30	noun	phrase	1	12	match	rouge	5	1	y	0.79486
284.14140000000003	0.0	ROUGE	30	noun	phrase	1	13	match	rouge	5	1	y	0.79486
284.9911	0.0	+	30	noun	phrase	1	14	match	rouge	5	1	y	0.79486
284.9363	0.0	[response]	30	noun	phrase	1	15	match	rouge	5	1	y	0.79486
286.54040000000003	0.0	+	31	noun	phrase	2	1	nomatch	vieux	-1	1	p	1.3428
287.0901	0.2	glmpc	31	noun	phrase	2	2	nomatch	vieux	-1	1	p	1.3428
287.29	0.0	+	31	noun	phrase	2	3	nomatch	vieux	-1	1	p	1.3428
287.6899	0.2	dnmw	31	noun	phrase	2	4	nomatch	vieux	-1	1	p	1.3428
287.88980000000004	0.0	+	31	noun	phrase	2	5	nomatch	vieux	-1	1	p	1.3428
288.2896	0.2	jvp	31	noun	phrase	2	6	nomatch	vieux	-1	1	p	1.3428
288.4895	0.0	+	31	noun	phrase	2	7	nomatch	vieux	-1	1	p	1.3428
288.8893	0.2	petit	31	noun	phrase	2	8	nomatch	vieux	-1	1	p	1.3428
289.0892	0.0	+	31	noun	phrase	2	9	nomatch	vieux	-1	1	p	1.3428
289.4891	0.2	voilier	31	noun	phrase	2	10	nomatch	vieux	-1	1	p	1.3428
289.689	0.0	+	31	noun	phrase	2	11	nomatch	vieux	-1	1	p	1.3428
290.0888	0.0	+	31	noun	phrase	2	12	nomatch	vieux	-1	1	p	1.3428
292.08790000000005	0.0	VIEUX	31	noun	phrase	2	13	nomatch	vieux	-1	1	p	1.3428
293.4873	0.0	+	31	noun	phrase	2	14	nomatch	vieux	-1	1	p	1.3428
293.4307	0.0	[response]	31	noun	phrase	2	15	nomatch	vieux	-1	1	p	1.3428
294.4869	0.0	+	32	noun	phrase	4	1	nomatch	grand	-1	1	p	1.291
295.0366	0.2	tgq	32	noun	phrase	4	2	nomatch	grand	-1	1	p	1.291
295.23650000000004	0.0	+	32	noun	phrase	4	3	nomatch	grand	-1	1	p	1.291
295.6363	0.2	sur	32	noun	phrase	4	4	nomatch	grand	-1	1	p	1.291
295.8363	0.0	+	32	noun	phrase	4	5	nomatch	grand	-1	1	p	1.291
296.2361	0.2	son	32	noun	phrase	4	6	nomatch	grand	-1	1	p	1.291
296.43600000000004	0.0	+	32	noun	phrase	4	7	nomatch	grand	-1	1	p	1.291
296.8358	0.2	beau	32	noun	phrase	4	8	nomatch	grand	-1	1	p	1.291
297.0357	0.0	+	32	noun	phrase	4	9	nomatch	grand	-1	1	p	1.291
297.43580000000003	0.2	rocher	32	noun	phrase	4	10	nomatch	grand	-1	1	p	1.291
297.63550000000004	0.0	+	32	noun	phrase	4	11	nomatch	grand	-1	1	p	1.291
298.0353	0.0	+	32	noun	phrase	4	12	nomatch	grand	-1	1	p	1.291
300.0344	0.0	GRAND	32	noun	phrase	4	13	nomatch	grand	-1	1	p	1.291
301.3838	0.0	+	32	noun	phrase	4	14	nomatch	grand	-1	1	p	1.291
301.3254	0.0	[response]	32	noun	phrase	4	15	nomatch	grand	-1	1	p	1.291
302.45000000000005	0.0	+	33	verb	phrase	2	1	match	vite	5	1	y	0.6384700000000001
302.9998	0.2	twj	33	verb	phrase	2	2	match	vite	5	1	y	0.6384700000000001
303.1997	0.0	+	33	verb	phrase	2	3	match	vite	5	1	y	0.6384700000000001
303.59950000000003	0.2	vdsk	33	verb	phrase	2	4	match	vite	5	1	y	0.6384700000000001
303.7994	0.0	+	33	verb	phrase	2	5	match	vite	5	1	y	0.6384700000000001
304.1992	0.2	vdfh	33	verb	phrase	2	6	match	vite	5	1	y	0.6384700000000001
304.39910000000003	0.0	+	33	verb	phrase	2	7	match	vite	5	1	y	0.6384700000000001
304.79900000000004	0.2	rouler	33	verb	phrase	2	8	match	vite	5	1	y	0.6384700000000001
304.9989	0.0	+	33	verb	phrase	2	9	match	vite	5	1	y	0.6384700000000001
305.3987	0.2	vite	33	verb	phrase	2	10	match	vite	5	1	y	0.6384700000000001
305.59860000000003	0.0	+	33	verb	phrase	2	11	match	vite	5	1	y	0.6384700000000001
305.9984	0.0	+	33	verb	phrase	2	12	match	vite	5	1	y	0.6384700000000001
307.9975	0.0	VITE	33	verb	phrase	2	13	match	vite	5	1	y	0.6384700000000001
308.6972	0.0	+	33	verb	phrase	2	14	match	vite	5	1	y	0.6384700000000001
308.636	0.0	[response]	33	verb	phrase	2	15	match	vite	5	1	y	0.6384700000000001
310.3965	0.0	+	34	noun	phrase	3	1	nomatch	beaucoup	-1	1	p	0.72564
310.94620000000003	0.2	zmxdsb	34	noun	phrase	3	2	nomatch	beaucoup	-1	1	p	0.72564
311.14610000000005	0.0	+	34	noun	phrase	3	3	nomatch	beaucoup	-1	1	p	0.72564
311.546	0.2	cxgm	34	noun	phrase	3	4	nomatch	beaucoup	-1	1	p	0.72564
311.7459	0.0	+	34	noun	phrase	3	5	nomatch	beaucoup	-1	1	p	0.72564
312.14570000000003	0.2	son	34	noun	phrase	3	6	nomatch	beaucoup	-1	1	p	0.72564
312.34560000000005	0.0	+	34	noun	phrase	3	7	nomatch	beaucoup	-1	1	p	0.72564
312.7454	0.2	casier	34	noun	phrase	3	8	nomatch	beaucoup	-1	1	p	0.72564
312.9454	0.0	+	34	noun	phrase	3	9	nomatch	beaucoup	-1	1	p	0.72564
313.34520000000003	0.2	blanc	34	noun	phrase	3	10	nomatch	beaucoup	-1	1	p	0.72564
313.54510000000005	0.0	+	34	noun	phrase	3	11	nomatch	beaucoup	-1	1	p	0.72564
313.9449	0.0	+	34	noun	phrase	3	12	nomatch	beaucoup	-1	1	p	0.72564
315.9445	0.0	BEAUCOUP	34	noun	phrase	3	13	nomatch	beaucoup	-1	1	p	0.72564
316.72700000000003	0.0	+	34	noun	phrase	3	14	nomatch	beaucoup	-1	1	p	0.72564
316.67010000000005	0.0	[response]	34	noun	phrase	3	15	nomatch	beaucoup	-1	1	p	0.72564
318.343	0.0	+	35	noun	phrase	1	1	match	boîtier	5	1	y	0.42241
318.89270000000005	0.2	pdfb	35	noun	phrase	1	2	match	boîtier	5	1	y	0.42241
319.0926	0.0	+	35	noun	phrase	1	3	match	boîtier	5	1	y	0.42241
319.4925	0.2	vpfm	35	noun	phrase	1	4	match	boîtier	5	1	y	0.42241
319.6924	0.0	+	35	noun	phrase	1	5	match	boîtier	5	1	y	0.42241
320.0922	0.2	jvp	35	noun	phrase	1	6	match	boîtier	5	1	y	0.42241
320.2921	0.0	+	35	noun	phrase	1	7	match	boîtier	5	1	y	0.42241
320.69190000000003	0.2	bgtsx	35	noun	phrase	1	8	match	boîtier	5	1	y	0.42241
320.89180000000005	0.0	+	35	noun	phrase	1	9	match	boîtier	5	1	y	0.42241
321.2917	0.2	boîtier	35	noun	phrase	1	10	match	boîtier	5	1	y	0.42241
321.4916	0.0	+	35	noun	phrase	1	11	match	boîtier	5	1	y	0.42241
321.89140000000003	0.0	+	35	noun	phrase	1	12	match	boîtier	5	1	y	0.42241
323.89050000000003	0.0	BOÎTIER	35	noun	phrase	1	13	match	boîtier	5	1	y	0.42241
324.3736	0.0	+	35	noun	phrase	1	14	match	boîtier	5	1	y	0.42241
324.3129	0.0	[response]	35	noun	phrase	1	15	match	boîtier	5	1	y	0.42241
326.2894	0.0	+	36	noun	list	4	1	match	peut	3	0	p	1.1714000000000002
326.8392	0.2	hkdtl	36	noun	list	4	2	match	peut	3	0	p	1.1714000000000002
327.0391	0.0	+	36	noun	list	4	3	match	peut	3	0	p	1.1714000000000002
327.43890000000005	0.2	pour	36	noun	list	4	4	match	peut	3	0	p	1.1714000000000002
327.6388	0.0	+	36	noun	list	4	5	match	peut	3	0	p	1.1714000000000002
328.0387	0.2	peut	36	noun	list	4	6	match	peut	3	0	p	1.1714000000000002
328.2386	0.0	+	36	noun	list	4	7	match	peut	3	0	p	1.1714000000000002
328.63840000000005	0.2	rocher	36	noun	list	4	8	match	peut	3	0	p	1.1714000000000002
328.8383	0.0	+	36	noun	list	4	9	match	peut	3	0	p	1.1714000000000002
329.23810000000003	0.2	ainsi	36	noun	list	4	10	match	peut	3	0	p	1.1714000000000002
329.4381	0.0	+	36	noun	list	4	11	match	peut	3	0	p	1.1714000000000002
329.83790000000005	0.0	+	36	noun	list	4	12	match	peut	3	0	p	1.1714000000000002
331.83700000000005	0.0	PEUT	36	noun	list	4	13	match	peut	3	0	p	1.1714000000000002
333.06980000000004	0.0	+	36	noun	list	4	14	match	peut	3	0	p	1.1714000000000002
333.0084	0.0	[response]	36	noun	list	4	15	match	peut	3	0	p	1.1714000000000002
334.2359	0.0	+	37	noun	phrase	3	1	nomatch	grand	-1	1	p	0.7078800000000001
334.7857	0.2	nlmvh	37	noun	phrase	3	2	nomatch	grand	-1	1	p	0.7078800000000001
334.98560000000003	0.0	+	37	noun	phrase	3	3	nomatch	grand	-1	1	p	0.7078800000000001
335.3854	0.2	vpfm	37	noun	phrase	3	4	nomatch	grand	-1	1	p	0.7078800000000001
335.5853	0.0	+	37	noun	phrase	3	5	nomatch	grand	-1	1	p	0.7078800000000001
335.9852	0.2	mon	37	noun	phrase	3	6	nomatch	grand	-1	1	p	0.7078800000000001
336.18510000000003	0.0	+	37	noun	phrase	3	7	nomatch	grand	-1	1	p	0.7078800000000001
336.5849	0.2	boîtier	37	noun	phrase	3	8	nomatch	grand	-1	1	p	0.7078800000000001
336.7848	0.0	+	37	noun	phrase	3	9	nomatch	grand	-1	1	p	0.7078800000000001
337.18460000000005	0.2	vert	37	noun	phrase	3	10	nomatch	grand	-1	1	p	0.7078800000000001
337.3845	0.0	+	37	noun	phrase	3	11	nomatch	grand	-1	1	p	0.7078800000000001
337.78430000000003	0.0	+	37	noun	phrase	3	12	nomatch	grand	-1	1	p	0.7078800000000001
339.80010000000004	0.0	GRAND	37	noun	phrase	3	13	nomatch	grand	-1	1	p	0.7078800000000001
340.56640000000004	0.0	+	37	noun	phrase	3	14	nomatch	grand	-1	1	p	0.7078800000000001
340.5080000000001	0.0	[response]	37	noun	phrase	3	15	nomatch	grand	-1	1	p	0.7078800000000001
342.19910000000004	0.0	+	38	verb	list	1	1	match	beau	5	1	y	0.54803
342.7488	0.2	ndcjm	38	verb	list	1	2	match	beau	5	1	y	0.54803
342.94870000000003	0.0	+	38	verb	list	1	3	match	beau	5	1	y	0.54803
343.34860000000003	0.2	cxgm	38	verb	list	1	4	match	beau	5	1	y	0.54803
343.54850000000005	0.0	+	38	verb	list	1	5	match	beau	5	1	y	0.54803
343.9483	0.2	vdfh	38	verb	list	1	6	match	beau	5	1	y	0.54803
344.14820000000003	0.0	+	38	verb	list	1	7	match	beau	5	1	y	0.54803
344.548	0.2	rlszd	38	verb	list	1	8	match	beau	5	1	y	0.54803
344.7479	0.0	+	38	verb	list	1	9	match	beau	5	1	y	0.54803
345.1478	0.2	beau	38	verb	list	1	10	match	beau	5	1	y	0.54803
345.34770000000003	0.0	+	38	verb	list	1	11	match	beau	5	1	y	0.54803
345.7475	0.0	+	38	verb	list	1	12	match	beau	5	1	y	0.54803
347.7466	0.0	BEAU	38	verb	list	1	13	match	beau	5	1	y	0.54803
348.363	0.0	+	38	verb	list	1	14	match	beau	5	1	y	0.54803
348.2946	0.0	[response]	38	verb	list	1	15	match	beau	5	1	y	0.54803
350.1456	0.0	+	39	noun	list	1	1	nomatch	tard	-1	1	p	0.59418
350.69530000000003	0.2	pwf	39	noun	list	1	2	nomatch	tard	-1	1	p	0.59418
350.89520000000005	0.0	+	39	noun	list	1	3	nomatch	tard	-1	1	p	0.59418
351.295	0.2	mqnx	39	noun	list	1	4	nomatch	tard	-1	1	p	0.59418
351.495	0.0	+	39	noun	list	1	5	nomatch	tard	-1	1	p	0.59418
351.89480000000003	0.2	gkpq	39	noun	list	1	6	nomatch	tard	-1	1	p	0.59418
352.09470000000005	0.0	+	39	noun	list	1	7	nomatch	tard	-1	1	p	0.59418
352.4945	0.2	txwfg	39	noun	list	1	8	nomatch	tard	-1	1	p	0.59418
352.69440000000003	0.0	+	39	noun	list	1	9	nomatch	tard	-1	1	p	0.59418
353.0942	0.2	clavier	39	noun	list	1	10	nomatch	tard	-1	1	p	0.59418
353.29470000000003	0.0	+	39	noun	list	1	11	nomatch	tard	-1	1	p	0.59418
353.694	0.0	+	39	noun	list	1	12	nomatch	tard	-1	1	p	0.59418
355.6931	0.0	TARD	39	noun	list	1	13	nomatch	tard	-1	1	p	0.59418
356.3428	0.0	+	39	noun	list	1	14	nomatch	tard	-1	1	p	0.59418
356.2873	0.0	[response]	39	noun	list	1	15	nomatch	tard	-1	1	p	0.59418
358.09200000000004	0.0	+	40	noun	phrase	2	1	match	nouveau	4	1	y	0.65442
358.64180000000005	0.2	mpwqvnk	40	noun	phrase	2	2	match	nouveau	4	1	y	0.65442
358.8417	0.0	+	40	noun	phrase	2	3	match	nouveau	4	1	y	0.65442
359.24150000000003	0.2	cxgm	40	noun	phrase	2	4	match	nouveau	4	1	y	0.65442
359.44140000000004	0.0	+	40	noun	phrase	2	5	match	nouveau	4	1	y	0.65442
359.84130000000005	0.2	jvp	40	noun	phrase	2	6	match	nouveau	4	1	y	0.65442
360.0412	0.0	+	40	noun	phrase	2	7	match	nouveau	4	1	y	0.65442
360.4415	0.2	nouveau	40	noun	phrase	2	8	match	nouveau	4	1	y	0.65442
360.64090000000004	0.0	+	40	noun	phrase	2	9	match	nouveau	4	1	y	0.65442
361.0407	0.2	rocher	40	noun	phrase	2	10	match	nouveau	4	1	y	0.65442
361.24060000000003	0.0	+	40	noun	phrase	2	11	match	nouveau	4	1	y	0.65442
361.64050000000003	0.0	+	40	noun	phrase	2	12	match	nouveau	4	1	y	0.65442
363.63960000000003	0.0	NOUVEAU	40	noun	phrase	2	13	match	nouveau	4	1	y	0.65442
364.3559	0.0	+	40	noun	phrase	2	14	match	nouveau	4	1	y	0.65442
364.2940000000001	0.0	[response]	40	noun	phrase	2	15	match	nouveau	4	1	y	0.65442
374.035	0.0	+	41	noun	phrase	1	1	match	vieux	5	1	y	1.6431
374.5847	0.2	dwsf	41	noun	phrase	1	2	match	vieux	5	1	y	1.6431
374.7846	0.0	+	41	noun	phrase	1	3	match	vieux	5	1	y	1.6431
375.1845	0.2	vpfm	41	noun	phrase	1	4	match	vieux	5	1	y	1.6431
375.3844	0.0	+	41	noun	phrase	1	5	match	vieux	5	1	y	1.6431
375.7842	0.2	jwq	41	noun	phrase	1	6	match	vieux	5	1	y	1.6431
375.9841	0.0	+	41	noun	phrase	1	7	match	vieux	5	1	y	1.6431
376.38390000000004	0.2	jbtkcz	41	noun	phrase	1	8	match	vieux	5	1	y	1.6431
376.6005	0.0	+	41	noun	phrase	1	9	match	vieux	5	1	y	1.6431
377.00030000000004	0.2	vieux	41	noun	phrase	1	10	match	vieux	5	1	y	1.6431
377.2002	0.0	+	41	noun	phrase	1	11	match	vieux	5	1	y	1.6431
377.6	0.0	+	41	noun	phrase	1	12	match	vieux	5	1	y	1.6431
379.5992	0.0	VIEUX	41	noun	phrase	1	13	match	vieux	5	1	y	1.6431
381.2984	0.0	+	41	noun	phrase	1	14	match	vieux	5	1	y	1.6431
381.2423	0.0	[response]	41	noun	phrase	1	15	match	vieux	5	1	y	1.6431
381.9981	0.0	+	42	verb	phrase	3	1	nomatch	va	-1	1	p	1.1898
382.5479	0.2	lbxcdvk	42	verb	phrase	3	2	nomatch	va	-1	1	p	1.1898
382.74780000000004	0.0	+	42	verb	phrase	3	3	nomatch	va	-1	1	p	1.1898
383.1476	0.2	vdsk	42	verb	phrase	3	4	nomatch	va	-1	1	p	1.1898
383.3475	0.0	+	42	verb	phrase	3	5	nomatch	va	-1	1	p	1.1898
383.7473	0.2	peut	42	verb	phrase	3	6	nomatch	va	-1	1	p	1.1898
383.9472	0.0	+	42	verb	phrase	3	7	nomatch	va	-1	1	p	1.1898
384.3471	0.2	parader	42	verb	phrase	3	8	nomatch	va	-1	1	p	1.1898
384.5471	0.0	+	42	verb	phrase	3	9	nomatch	va	-1	1	p	1.1898
384.9468	0.2	tôt	42	verb	phrase	3	10	nomatch	va	-1	1	p	1.1898
385.1467	0.0	+	42	verb	phrase	3	11	nomatch	va	-1	1	p	1.1898
385.5466	0.0	+	42	verb	phrase	3	12	nomatch	va	-1	1	p	1.1898
387.54560000000004	0.0	VA	42	verb	phrase	3	13	nomatch	va	-1	1	p	1.1898
388.79510000000005	0.0	+	42	verb	phrase	3	14	nomatch	va	-1	1	p	1.1898
388.7355	0.0	[response]	42	verb	phrase	3	15	nomatch	va	-1	1	p	1.1898
397.9411	0.0	+	43	noun	list	4	1	match	sous	2	1	y	0.64276
398.49080000000004	0.2	kbdpx	43	noun	list	4	2	match	sous	2	1	y	0.64276
398.6907	0.0	+	43	noun	list	4	3	match	sous	2	1	y	0.64276
399.0905	0.2	sous	43	noun	list	4	4	match	sous	2	1	y	0.64276
399.2905	0.0	+	43	noun	list	4	5	match	sous	2	1	y	0.64276
399.69030000000004	0.2	doit	43	noun	list	4	6	match	sous	2	1	y	0.64276
399.8902	0.0	+	43	noun	list	4	7	match	sous	2	1	y	0.64276
400.29	0.2	tablier	43	noun	list	4	8	match	sous	2	1	y	0.64276
400.48990000000003	0.0	+	43	noun	list	4	9	match	sous	2	1	y	0.64276
400.8897	0.2	vite	43	noun	list	4	10	match	sous	2	1	y	0.64276
401.0897	0.0	+	43	noun	list	4	11	match	sous	2	1	y	0.64276
401.4895	0.0	+	43	noun	list	4	12	match	sous	2	1	y	0.64276
403.4886	0.0	SOUS	43	noun	list	4	13	match	sous	2	1	y	0.64276
404.1883	0.0	+	43	noun	list	4	14	match	sous	2	1	y	0.64276
404.13140000000004	0.0	[response]	43	noun	list	4	15	match	sous	2	1	y	0.64276
405.8876	0.0	+	44	verb	list	1	1	match	chasser	5	1	y	0.72378
406.4373	0.2	txlpngs	44	verb	list	1	2	match	chasser	5	1	y	0.72378
406.6372	0.0	+	44	verb	list	1	3	match	chasser	5	1	y	0.72378
407.03700000000003	0.2	cxgm	44	verb	list	1	4	match	chasser	5	1	y	0.72378
407.2369	0.0	+	44	verb	list	1	5	match	chasser	5	1	y	0.72378
407.6368	0.2	vdfh	44	verb	list	1	6	match	chasser	5	1	y	0.72378
407.8367	0.0	+	44	verb	list	1	7	match	chasser	5	1	y	0.72378
408.23650000000004	0.2	rxlhqcw	44	verb	list	1	8	match	chasser	5	1	y	0.72378
408.4364	0.0	+	44	verb	list	1	9	match	chasser	5	1	y	0.72378
408.8362	0.2	chasser	44	verb	list	1	10	match	chasser	5	1	y	0.72378
409.03610000000003	0.0	+	44	verb	list	1	11	match	chasser	5	1	y	0.72378
409.43620000000004	0.0	+	44	verb	list	1	12	match	chasser	5	1	y	0.72378
411.43510000000003	0.0	CHASSER	44	verb	list	1	13	match	chasser	5	1	y	0.72378
412.2181	0.0	+	44	verb	list	1	14	match	chasser	5	1	y	0.72378
412.1589	0.0	[response]	44	verb	list	1	15	match	chasser	5	1	y	0.72378
413.834	0.0	+	45	verb	list	2	1	nomatch	tablier	-1	1	p	0.9649100000000002
414.40040000000005	0.2	xkgqjh	45	verb	list	2	2	nomatch	tablier	-1	1	p	0.9649100000000002
414.6003	0.0	+	45	verb	list	2	3	nomatch	tablier	-1	1	p	0.9649100000000002
415.0002	0.2	wtx	45	verb	list	2	4	nomatch	tablier	-1	1	p	0.9649100000000002
415.2001	0.0	+	45	verb	list	2	5	nomatch	tablier	-1	1	p	0.9649100000000002
415.5999	0.2	qgfj	45	verb	list	2	6	nomatch	tablier	-1	1	p	0.9649100000000002
415.7998	0.0	+	45	verb	list	2	7	nomatch	tablier	-1	1	p	0.9649100000000002
416.19960000000003	0.2	grand	45	verb	list	2	8	nomatch	tablier	-1	1	p	0.9649100000000002
416.39950000000005	0.0	+	45	verb	list	2	9	nomatch	tablier	-1	1	p	0.9649100000000002
416.7994	0.2	parader	45	verb	list	2	10	nomatch	tablier	-1	1	p	0.9649100000000002
416.9993	0.0	+	45	verb	list	2	11	nomatch	tablier	-1	1	p	0.9649100000000002
417.39910000000003	0.0	+	45	verb	list	2	12	nomatch	tablier	-1	1	p	0.9649100000000002
419.39820000000003	0.0	TABLIER	45	verb	list	2	13	nomatch	tablier	-1	1	p	0.9649100000000002
420.4311	0.0	+	45	verb	list	2	14	nomatch	tablier	-1	1	p	0.9649100000000002
420.36310000000003	0.0	[response]	45	verb	list	2	15	nomatch	tablier	-1	1	p	0.9649100000000002
421.79720000000003	0.0	+	46	verb	list	1	1	match	nouveau	5	1	y	0.46102
422.3469	0.2	fxtwd	46	verb	list	1	2	match	nouveau	5	1	y	0.46102
422.5468	0.0	+	46	verb	list	1	3	match	nouveau	5	1	y	0.46102
422.94660000000005	0.2	cxgm	46	verb	list	1	4	match	nouveau	5	1	y	0.46102
423.14660000000003	0.0	+	46	verb	list	1	5	match	nouveau	5	1	y	0.46102
423.5464	0.2	kw	46	verb	list	1	6	match	nouveau	5	1	y	0.46102
423.7463	0.0	+	46	verb	list	1	7	match	nouveau	5	1	y	0.46102
424.14610000000005	0.2	brqzflk	46	verb	list	1	8	match	nouveau	5	1	y	0.46102
424.346	0.0	+	46	verb	list	1	9	match	nouveau	5	1	y	0.46102
424.7459	0.2	nouveau	46	verb	list	1	10	match	nouveau	5	1	y	0.46102
424.946	0.0	+	46	verb	list	1	11	match	nouveau	5	1	y	0.46102
425.34560000000005	0.0	+	46	verb	list	1	12	match	nouveau	5	1	y	0.46102
427.34470000000005	0.0	NOUVEAU	46	verb	list	1	13	match	nouveau	5	1	y	0.46102
427.8611	0.0	+	46	verb	list	1	14	match	nouveau	5	1	y	0.46102
427.8057	0.0	[response]	46	verb	list	1	15	match	nouveau	5	1	y	0.46102
445.73650000000004	0.0	+	47	noun	list	2	1	nomatch	va	-1	1	p	0.58068
446.28630000000004	0.2	zqtf	47	noun	list	2	2	nomatch	va	-1	1	p	0.58068
446.4862	0.0	+	47	noun	list	2	3	nomatch	va	-1	1	p	0.58068
446.886	0.2	bldw	47	noun	list	2	4	nomatch	va	-1	1	p	0.58068
447.086	0.0	+	47	noun	list	2	5	nomatch	va	-1	1	p	0.58068
447.48580000000004	0.2	qgfj	47	noun	list	2	6	nomatch	va	-1	1	p	0.58068
447.6857	0.0	+	47	noun	list	2	7	nomatch	va	-1	1	p	0.58068
448.0855	0.2	rocher	47	noun	list	2	8	nomatch	va	-1	1	p	0.58068
448.28540000000004	0.0	+	47	noun	list	2	9	nomatch	va	-1	1	p	0.58068
448.6852	0.2	tard	47	noun	list	2	10	nomatch	va	-1	1	p	0.58068
448.8852	0.0	+	47	noun	list	2	11	nomatch	va	-1	1	p	0.58068
449.285	0.0	+	47	noun	list	2	12	nomatch	va	-1	1	p	0.58068
451.2841	0.0	VA	47	noun	list	2	13	nomatch	va	-1	1	p	0.58068
451.9171	0.0	+	47	noun	list	2	14	nomatch	va	-1	1	p	0.58068
451.8648	0.0	[response]	47	noun	list	2	15	nomatch	va	-1	1	p	0.58068
453.6997	0.0	+	48	noun	phrase	2	1	nomatch	jongler	-1	1	p	0.6227700000000002
454.24940000000004	0.2	tnwg	48	noun	phrase	2	2	nomatch	jongler	-1	1	p	0.6227700000000002
454.4494	0.0	+	48	noun	phrase	2	3	nomatch	jongler	-1	1	p	0.6227700000000002
454.8492	0.2	wtx	48	noun	phrase	2	4	nomatch	jongler	-1	1	p	0.6227700000000002
455.0491	0.0	+	48	noun	phrase	2	5	nomatch	jongler	-1	1	p	0.6227700000000002
455.44890000000004	0.2	jvp	48	noun	phrase	2	6	nomatch	jongler	-1	1	p	0.6227700000000002
455.6488	0.0	+	48	noun	phrase	2	7	nomatch	jongler	-1	1	p	0.6227700000000002
456.0487	0.2	grand	48	noun	phrase	2	8	nomatch	jongler	-1	1	p	0.6227700000000002
456.24860000000007	0.0	+	48	noun	phrase	2	9	nomatch	jongler	-1	1	p	0.6227700000000002
456.6484	0.2	tablier	48	noun	phrase	2	10	nomatch	jongler	-1	1	p	0.6227700000000002
456.84830000000005	0.0	+	48	noun	phrase	2	11	nomatch	jongler	-1	1	p	0.6227700000000002
457.24809999999997	0.0	+	48	noun	phrase	2	12	nomatch	jongler	-1	1	p	0.6227700000000002
459.24719999999996	0.0	JONGLER	48	noun	phrase	2	13	nomatch	jongler	-1	1	p	0.6227700000000002
459.93030000000005	0.0	+	48	noun	phrase	2	14	nomatch	jongler	-1	1	p	0.6227700000000002
459.87000000000006	0.0	[response]	48	noun	phrase	2	15	nomatch	jongler	-1	1	p	0.6227700000000002
461.64619999999996	0.0	+	49	noun	phrase	1	1	nomatch	nager	-1	1	p	1.3428
462.1959	0.2	prvwmg	49	noun	phrase	1	2	nomatch	nager	-1	1	p	1.3428
462.39580000000007	0.0	+	49	noun	phrase	1	3	nomatch	nager	-1	1	p	1.3428
462.79570000000007	0.2	cfhm	49	noun	phrase	1	4	nomatch	nager	-1	1	p	1.3428
462.9956	0.0	+	49	noun	phrase	1	5	nomatch	nager	-1	1	p	1.3428
463.39540000000005	0.2	jwq	49	noun	phrase	1	6	nomatch	nager	-1	1	p	1.3428
463.5953	0.0	+	49	noun	phrase	1	7	nomatch	nager	-1	1	p	1.3428
463.99510000000004	0.2	twcs	49	noun	phrase	1	8	nomatch	nager	-1	1	p	1.3428
464.195	0.0	+	49	noun	phrase	1	9	nomatch	nager	-1	1	p	1.3428
464.5949	0.2	cendrier	49	noun	phrase	1	10	nomatch	nager	-1	1	p	1.3428
464.79480000000007	0.0	+	49	noun	phrase	1	11	nomatch	nager	-1	1	p	1.3428
465.1946	0.0	+	49	noun	phrase	1	12	nomatch	nager	-1	1	p	1.3428
467.1937	0.0	NAGER	49	noun	phrase	1	13	nomatch	nager	-1	1	p	1.3428
468.5931	0.0	+	49	noun	phrase	1	14	nomatch	nager	-1	1	p	1.3428
468.5365	0.0	[response]	49	noun	phrase	1	15	nomatch	nager	-1	1	p	1.3428
469.5926	0.0	+	50	noun	phrase	4	1	nomatch	adam	-1	1	p	0.61211
470.1424	0.2	glv	50	noun	phrase	4	2	nomatch	adam	-1	1	p	0.61211
470.34229999999997	0.0	+	50	noun	phrase	4	3	nomatch	adam	-1	1	p	0.61211
470.7421	0.2	sous	50	noun	phrase	4	4	nomatch	adam	-1	1	p	0.61211
470.94210000000004	0.0	+	50	noun	phrase	4	5	nomatch	adam	-1	1	p	0.61211
471.34190000000007	0.2	son	50	noun	phrase	4	6	nomatch	adam	-1	1	p	0.61211
471.5418	0.0	+	50	noun	phrase	4	7	nomatch	adam	-1	1	p	0.61211
471.94160000000005	0.2	vieux	50	noun	phrase	4	8	nomatch	adam	-1	1	p	0.61211
472.1415	0.0	+	50	noun	phrase	4	9	nomatch	adam	-1	1	p	0.61211
472.54130000000004	0.2	voilier	50	noun	phrase	4	10	nomatch	adam	-1	1	p	0.61211
472.74129999999997	0.0	+	50	noun	phrase	4	11	nomatch	adam	-1	1	p	0.61211
473.1411	0.0	+	50	noun	phrase	4	12	nomatch	adam	-1	1	p	0.61211
475.1402	0.0	ADAM	50	noun	phrase	4	13	nomatch	adam	-1	1	p	0.61211
475.80660000000006	0.0	+	50	noun	phrase	4	14	nomatch	adam	-1	1	p	0.61211
475.75230000000005	0.0	[response]	50	noun	phrase	4	15	nomatch	adam	-1	1	p	0.61211
477.5391	0.0	+	51	verb	list	4	1	nomatch	dans	-1	1	p	1.0865
478.0889	0.2	bwf	51	verb	list	4	2	nomatch	dans	-1	1	p	1.0865
478.2888	0.0	+	51	verb	list	4	3	nomatch	dans	-1	1	p	1.0865
478.6886	0.2	avec	51	verb	list	4	4	nomatch	dans	-1	1	p	1.0865
478.88849999999996	0.0	+	51	verb	list	4	5	nomatch	dans	-1	1	p	1.0865
479.28839999999997	0.2	doit	51	verb	list	4	6	nomatch	dans	-1	1	p	1.0865
479.48830000000004	0.0	+	51	verb	list	4	7	nomatch	dans	-1	1	p	1.0865
479.88810000000007	0.2	nouveau	51	verb	list	4	8	nomatch	dans	-1	1	p	1.0865
480.088	0.0	+	51	verb	list	4	9	nomatch	dans	-1	1	p	1.0865
480.48780000000005	0.2	jongler	51	verb	list	4	10	nomatch	dans	-1	1	p	1.0865
480.6877	0.0	+	51	verb	list	4	11	nomatch	dans	-1	1	p	1.0865
481.0876	0.0	+	51	verb	list	4	12	nomatch	dans	-1	1	p	1.0865
483.0867	0.0	DANS	51	verb	list	4	13	nomatch	dans	-1	1	p	1.0865
484.2362	0.0	+	51	verb	list	4	14	nomatch	dans	-1	1	p	1.0865
484.1732	0.0	[response]	51	verb	list	4	15	nomatch	dans	-1	1	p	1.0865
485.48560000000003	0.0	+	52	verb	phrase	2	1	match	ainsi	5	0	p	1.6105
486.03540000000004	0.2	gpj	52	verb	phrase	2	2	match	ainsi	5	0	p	1.6105
486.2353	0.0	+	52	verb	phrase	2	3	match	ainsi	5	0	p	1.6105
486.6351	0.2	dgtf	52	verb	phrase	2	4	match	ainsi	5	0	p	1.6105
486.835	0.0	+	52	verb	phrase	2	5	match	ainsi	5	0	p	1.6105
487.2348	0.2	kw	52	verb	phrase	2	6	match	ainsi	5	0	p	1.6105
487.43469999999996	0.0	+	52	verb	phrase	2	7	match	ainsi	5	0	p	1.6105
487.83459999999997	0.2	voyager	52	verb	phrase	2	8	match	ainsi	5	0	p	1.6105
488.03450000000004	0.0	+	52	verb	phrase	2	9	match	ainsi	5	0	p	1.6105
488.43430000000006	0.2	ainsi	52	verb	phrase	2	10	match	ainsi	5	0	p	1.6105
488.6342	0.0	+	52	verb	phrase	2	11	match	ainsi	5	0	p	1.6105
489.03400000000005	0.0	+	52	verb	phrase	2	12	match	ainsi	5	0	p	1.6105
491.04980000000006	0.0	AINSI	52	verb	phrase	2	13	match	ainsi	5	0	p	1.6105
492.7157	0.0	+	52	verb	phrase	2	14	match	ainsi	5	0	p	1.6105
492.6603000000002	0.0	[response]	52	verb	phrase	2	15	match	ainsi	5	0	p	1.6105
493.449	0.0	+	53	verb	list	1	1	match	vieux	5	1	y	0.3981
493.9985	0.2	qhr	53	verb	list	1	2	match	vieux	5	1	y	0.3981
494.19840000000005	0.0	+	53	verb	list	1	3	match	vieux	5	1	y	0.3981
494.59819999999996	0.2	mfdt	53	verb	list	1	4	match	vieux	5	1	y	0.3981
494.7982	0.0	+	53	verb	list	1	5	match	vieux	5	1	y	0.3981
495.19800000000004	0.2	qgfj	53	verb	list	1	6	match	vieux	5	1	y	0.3981
495.3979	0.0	+	53	verb	list	1	7	match	vieux	5	1	y	0.3981
495.7977	0.2	pvrdkzg	53	verb	list	1	8	match	vieux	5	1	y	0.3981
495.9976	0.0	+	53	verb	list	1	9	match	vieux	5	1	y	0.3981
496.3975	0.2	vieux	53	verb	list	1	10	match	vieux	5	1	y	0.3981
496.59740000000005	0.0	+	53	verb	list	1	11	match	vieux	5	1	y	0.3981
496.99719999999996	0.0	+	53	verb	list	1	12	match	vieux	5	1	y	0.3981
498.9965	0.0	VIEUX	53	verb	list	1	13	match	vieux	5	1	y	0.3981
499.4628000000001	0.0	+	53	verb	list	1	14	match	vieux	5	1	y	0.3981
499.3946	0.0	[response]	53	verb	list	1	15	match	vieux	5	1	y	0.3981
501.3952	0.0	+	54	verb	phrase	2	1	match	jongler	4	1	y	0.42171
501.945	0.2	zsqnp	54	verb	phrase	2	2	match	jongler	4	1	y	0.42171
502.14490000000006	0.0	+	54	verb	phrase	2	3	match	jongler	4	1	y	0.42171
502.5447	0.2	bcs	54	verb	phrase	2	4	match	jongler	4	1	y	0.42171
502.74460000000005	0.0	+	54	verb	phrase	2	5	match	jongler	4	1	y	0.42171
503.14450000000005	0.2	kw	54	verb	phrase	2	6	match	jongler	4	1	y	0.42171
503.3444	0.0	+	54	verb	phrase	2	7	match	jongler	4	1	y	0.42171
503.74420000000003	0.2	jongler	54	verb	phrase	2	8	match	jongler	4	1	y	0.42171
503.9441	0.0	+	54	verb	phrase	2	9	match	jongler	4	1	y	0.42171
504.3439	0.2	tard	54	verb	phrase	2	10	match	jongler	4	1	y	0.42171
504.5438	0.0	+	54	verb	phrase	2	11	match	jongler	4	1	y	0.42171
504.9437	0.0	+	54	verb	phrase	2	12	match	jongler	4	1	y	0.42171
506.94290000000007	0.0	JONGLER	54	verb	phrase	2	13	match	jongler	4	1	y	0.42171
507.4259	0.0	+	54	verb	phrase	2	14	match	jongler	4	1	y	0.42171
507.3647	0.0	[response]	54	verb	phrase	2	15	match	jongler	4	1	y	0.42171
509.3417	0.0	+	55	noun	list	3	1	nomatch	boîtier	-1	1	p	0.74138
509.8915	0.2	rqbgwhx	55	noun	list	3	2	nomatch	boîtier	-1	1	p	0.74138
510.09139999999996	0.0	+	55	noun	list	3	3	nomatch	boîtier	-1	1	p	0.74138
510.4912	0.2	vpfm	55	noun	list	3	4	nomatch	boîtier	-1	1	p	0.74138
510.69110000000006	0.0	+	55	noun	list	3	5	nomatch	boîtier	-1	1	p	0.74138
511.0909	0.2	peut	55	noun	list	3	6	nomatch	boîtier	-1	1	p	0.74138
511.29080000000005	0.0	+	55	noun	list	3	7	nomatch	boîtier	-1	1	p	0.74138
511.69070000000005	0.2	tablier	55	noun	list	3	8	nomatch	boîtier	-1	1	p	0.74138
511.8906	0.0	+	55	noun	list	3	9	nomatch	boîtier	-1	1	p	0.74138
512.2904	0.2	vite	55	noun	list	3	10	nomatch	boîtier	-1	1	p	0.74138
512.4902999999999	0.0	+	55	noun	list	3	11	nomatch	boîtier	-1	1	p	0.74138
512.8901	0.0	+	55	noun	list	3	12	nomatch	boîtier	-1	1	p	0.74138
514.8892999999999	0.0	BOÎTIER	55	noun	list	3	13	nomatch	boîtier	-1	1	p	0.74138
515.6889	0.0	+	55	noun	list	3	14	nomatch	boîtier	-1	1	p	0.74138
515.6306	0.0	[response]	55	noun	list	3	15	nomatch	boîtier	-1	1	p	0.74138
517.2882	0.0	+	56	noun	phrase	2	1	nomatch	sur	-1	1	p	0.7879600000000001
517.8379	0.2	dklvqrp	56	noun	phrase	2	2	nomatch	sur	-1	1	p	0.7879600000000001
518.0378999999999	0.0	+	56	noun	phrase	2	3	nomatch	sur	-1	1	p	0.7879600000000001
518.4377	0.2	mfdt	56	noun	phrase	2	4	nomatch	sur	-1	1	p	0.7879600000000001
518.6375999999999	0.0	+	56	noun	phrase	2	5	nomatch	sur	-1	1	p	0.7879600000000001
519.0373999999999	0.2	jwq	56	noun	phrase	2	6	nomatch	sur	-1	1	p	0.7879600000000001
519.2373	0.0	+	56	noun	phrase	2	7	nomatch	sur	-1	1	p	0.7879600000000001
519.6372	0.2	vieux	56	noun	phrase	2	8	nomatch	sur	-1	1	p	0.7879600000000001
519.8371	0.0	+	56	noun	phrase	2	9	nomatch	sur	-1	1	p	0.7879600000000001
520.2369	0.2	cendrier	56	noun	phrase	2	10	nomatch	sur	-1	1	p	0.7879600000000001
520.4368	0.0	+	56	noun	phrase	2	11	nomatch	sur	-1	1	p	0.7879600000000001
520.8366	0.0	+	56	noun	phrase	2	12	nomatch	sur	-1	1	p	0.7879600000000001
522.8357	0.0	SUR	56	noun	phrase	2	13	nomatch	sur	-1	1	p	0.7879600000000001
523.6854	0.0	+	56	noun	phrase	2	14	nomatch	sur	-1	1	p	0.7879600000000001
523.6237	0.0	[response]	56	noun	phrase	2	15	nomatch	sur	-1	1	p	0.7879600000000001
525.2347	0.0	+	57	verb	list	2	1	nomatch	ainsi	-1	1	p	0.7424
525.7844	0.2	lqcm	57	verb	list	2	2	nomatch	ainsi	-1	1	p	0.7424
525.9843	0.0	+	57	verb	list	2	3	nomatch	ainsi	-1	1	p	0.7424
526.3842	0.2	jdlv	57	verb	list	2	4	nomatch	ainsi	-1	1	p	0.7424
526.5840999999999	0.0	+	57	verb	list	2	5	nomatch	ainsi	-1	1	p	0.7424
526.9839	0.2	gkpq	57	verb	list	2	6	nomatch	ainsi	-1	1	p	0.7424
527.2004999999999	0.0	+	57	verb	list	2	7	nomatch	ainsi	-1	1	p	0.7424
527.6003	0.2	danser	57	verb	list	2	8	nomatch	ainsi	-1	1	p	0.7424
527.8002	0.0	+	57	verb	list	2	9	nomatch	ainsi	-1	1	p	0.7424
528.1999999999999	0.2	vert	57	verb	list	2	10	nomatch	ainsi	-1	1	p	0.7424
528.3999	0.0	+	57	verb	list	2	11	nomatch	ainsi	-1	1	p	0.7424
528.7998	0.0	+	57	verb	list	2	12	nomatch	ainsi	-1	1	p	0.7424
530.7989	0.0	AINSI	57	verb	list	2	13	nomatch	ainsi	-1	1	p	0.7424
531.5985	0.0	+	57	verb	list	2	14	nomatch	ainsi	-1	1	p	0.7424
531.5413	0.0	[response]	57	verb	list	2	15	nomatch	ainsi	-1	1	p	0.7424
533.1977999999999	0.0	+	58	verb	list	3	1	match	chasser	5	1	y	0.59867
533.7475999999999	0.2	djzqg	58	verb	list	3	2	match	chasser	5	1	y	0.59867
533.9475	0.0	+	58	verb	list	3	3	match	chasser	5	1	y	0.59867
534.3473	0.2	wtx	58	verb	list	3	4	match	chasser	5	1	y	0.59867
534.5472	0.0	+	58	verb	list	3	5	match	chasser	5	1	y	0.59867
534.947	0.2	va	58	verb	list	3	6	match	chasser	5	1	y	0.59867
535.1469999999999	0.0	+	58	verb	list	3	7	match	chasser	5	1	y	0.59867
535.5468	0.2	grand	58	verb	list	3	8	match	chasser	5	1	y	0.59867
535.7466999999999	0.0	+	58	verb	list	3	9	match	chasser	5	1	y	0.59867
536.1465	0.2	chasser	58	verb	list	3	10	match	chasser	5	1	y	0.59867
536.3464	0.0	+	58	verb	list	3	11	match	chasser	5	1	y	0.59867
536.7461999999999	0.0	+	58	verb	list	3	12	match	chasser	5	1	y	0.59867
538.7454	0.0	CHASSER	58	verb	list	3	13	match	chasser	5	1	y	0.59867
539.4117	0.0	+	58	verb	list	3	14	match	chasser	5	1	y	0.59867
539.3439999999999	0.0	[response]	58	verb	list	3	15	match	chasser	5	1	y	0.59867
549.1408	0.0	+	59	verb	list	4	1	match	son	3	1	y	0.9334200000000001
549.6904999999999	0.2	pxhtwdn	59	verb	list	4	2	match	son	3	1	y	0.9334200000000001
549.8904	0.0	+	59	verb	list	4	3	match	son	3	1	y	0.9334200000000001
550.2901999999999	0.2	jade	59	verb	list	4	4	match	son	3	1	y	0.9334200000000001
550.4902	0.0	+	59	verb	list	4	5	match	son	3	1	y	0.9334200000000001
550.89	0.2	son	59	verb	list	4	6	match	son	3	1	y	0.9334200000000001
551.0899	0.0	+	59	verb	list	4	7	match	son	3	1	y	0.9334200000000001
551.4897	0.2	jongler	59	verb	list	4	8	match	son	3	1	y	0.9334200000000001
551.6895999999999	0.0	+	59	verb	list	4	9	match	son	3	1	y	0.9334200000000001
552.0894999999999	0.2	rouge	59	verb	list	4	10	match	son	3	1	y	0.9334200000000001
552.2894	0.0	+	59	verb	list	4	11	match	son	3	1	y	0.9334200000000001
552.6891999999999	0.0	+	59	verb	list	4	12	match	son	3	1	y	0.9334200000000001
554.6882999999999	0.0	SON	59	verb	list	4	13	match	son	3	1	y	0.9334200000000001
555.6879	0.0	+	59	verb	list	4	14	match	son	3	1	y	0.9334200000000001
555.6216999999999	0.0	[response]	59	verb	list	4	15	match	son	3	1	y	0.9334200000000001
557.0871999999999	0.0	+	60	noun	list	3	1	match	mon	3	1	y	0.80294
557.637	0.2	dbzpfj	60	noun	list	3	2	match	mon	3	1	y	0.80294
557.8369	0.0	+	60	noun	list	3	3	match	mon	3	1	y	0.80294
558.2366999999999	0.2	vdsk	60	noun	list	3	4	match	mon	3	1	y	0.80294
558.4366	0.0	+	60	noun	list	3	5	match	mon	3	1	y	0.80294
558.8365	0.2	mon	60	noun	list	3	6	match	mon	3	1	y	0.80294
559.0369	0.0	+	60	noun	list	3	7	match	mon	3	1	y	0.80294
559.4362	0.2	plus	60	noun	list	3	8	match	mon	3	1	y	0.80294
559.6360999999999	0.0	+	60	noun	list	3	9	match	mon	3	1	y	0.80294
560.0359	0.2	tablier	60	noun	list	3	10	match	mon	3	1	y	0.80294
560.2357999999999	0.0	+	60	noun	list	3	11	match	mon	3	1	y	0.80294
560.6356999999999	0.0	+	60	noun	list	3	12	match	mon	3	1	y	0.80294
562.6347999999999	0.0	MON	60	noun	list	3	13	match	mon	3	1	y	0.80294
563.5011	0.0	+	60	noun	list	3	14	match	mon	3	1	y	0.80294
563.4377	0.0	[response]	60	noun	list	3	15	match	mon	3	1	y	0.80294
565.0504	0.0	+	61	verb	phrase	3	1	match	jongler	4	1	y	0.61177
565.6001	0.2	sjt	61	verb	phrase	3	2	match	jongler	4	1	y	0.61177
565.8	0.0	+	61	verb	phrase	3	3	match	jongler	4	1	y	0.61177
566.1999	0.2	jvbz	61	verb	phrase	3	4	match	jongler	4	1	y	0.61177
566.3997999999999	0.0	+	61	verb	phrase	3	5	match	jongler	4	1	y	0.61177
566.7995999999999	0.2	peut	61	verb	phrase	3	6	match	jongler	4	1	y	0.61177
566.9995	0.0	+	61	verb	phrase	3	7	match	jongler	4	1	y	0.61177
567.3992999999999	0.2	jongler	61	verb	phrase	3	8	match	jongler	4	1	y	0.61177
567.5993	0.0	+	61	verb	phrase	3	9	match	jongler	4	1	y	0.61177
567.9991	0.2	loin	61	verb	phrase	3	10	match	jongler	4	1	y	0.61177
568.199	0.0	+	61	verb	phrase	3	11	match	jongler	4	1	y	0.61177
568.5988	0.0	+	61	verb	phrase	3	12	match	jongler	4	1	y	0.61177
570.5979	0.0	JONGLER	61	verb	phrase	3	13	match	jongler	4	1	y	0.61177
571.2642999999999	0.0	+	61	verb	phrase	3	14	match	jongler	4	1	y	0.61177
571.2097	0.0	[response]	61	verb	phrase	3	15	match	jongler	4	1	y	0.61177
572.9969	0.0	+	62	verb	list	4	1	nomatch	tôt	-1	1	p	1.1862
573.5466	0.2	fwbgqsp	62	verb	list	4	2	nomatch	tôt	-1	1	p	1.1862
573.7465	0.0	+	62	verb	list	4	3	nomatch	tôt	-1	1	p	1.1862
574.1463	0.2	yves	62	verb	list	4	4	nomatch	tôt	-1	1	p	1.1862
574.3462999999999	0.0	+	62	verb	list	4	5	nomatch	tôt	-1	1	p	1.1862
574.7461	0.2	leur	62	verb	list	4	6	nomatch	tôt	-1	1	p	1.1862
574.9462	0.0	+	62	verb	list	4	7	nomatch	tôt	-1	1	p	1.1862
575.3457999999999	0.2	nager	62	verb	list	4	8	nomatch	tôt	-1	1	p	1.1862
575.5457	0.0	+	62	verb	list	4	9	nomatch	tôt	-1	1	p	1.1862
575.9458999999999	0.2	vert	62	verb	list	4	10	nomatch	tôt	-1	1	p	1.1862
576.1455	0.0	+	62	verb	list	4	11	nomatch	tôt	-1	1	p	1.1862
576.5453	0.0	+	62	verb	list	4	12	nomatch	tôt	-1	1	p	1.1862
578.5445	0.0	TÔT	62	verb	list	4	13	nomatch	tôt	-1	1	p	1.1862
579.7937999999999	0.0	+	62	verb	list	4	14	nomatch	tôt	-1	1	p	1.1862
579.7307	0.0	[response]	62	verb	list	4	15	nomatch	tôt	-1	1	p	1.1862
580.9432999999999	0.0	+	63	noun	phrase	4	1	match	tablier	4	1	y	0.51246
581.4930999999999	0.2	cszltb	63	noun	phrase	4	2	match	tablier	4	1	y	0.51246
581.693	0.0	+	63	noun	phrase	4	3	match	tablier	4	1	y	0.51246
582.0928	0.2	sous	63	noun	phrase	4	4	match	tablier	4	1	y	0.51246
582.2927	0.0	+	63	noun	phrase	4	5	match	tablier	4	1	y	0.51246
582.6926	0.2	mon	63	noun	phrase	4	6	match	tablier	4	1	y	0.51246
582.8924999999999	0.0	+	63	noun	phrase	4	7	match	tablier	4	1	y	0.51246
583.2923	0.2	tablier	63	noun	phrase	4	8	match	tablier	4	1	y	0.51246
583.4921999999999	0.0	+	63	noun	phrase	4	9	match	tablier	4	1	y	0.51246
583.8919999999999	0.2	bleu	63	noun	phrase	4	10	match	tablier	4	1	y	0.51246
584.0919	0.0	+	63	noun	phrase	4	11	match	tablier	4	1	y	0.51246
584.4918	0.0	+	63	noun	phrase	4	12	match	tablier	4	1	y	0.51246
586.4909	0.0	TABLIER	63	noun	phrase	4	13	match	tablier	4	1	y	0.51246
587.0572999999999	0.0	+	63	noun	phrase	4	14	match	tablier	4	1	y	0.51246
587.0033	0.0	[response]	63	noun	phrase	4	15	match	tablier	4	1	y	0.51246
596.8863	0.0	+	64	verb	phrase	4	1	nomatch	beaucoup	-1	1	p	0.89649
597.4359999999999	0.2	czxrvkn	64	verb	phrase	4	2	nomatch	beaucoup	-1	1	p	0.89649
597.6359	0.0	+	64	verb	phrase	4	3	nomatch	beaucoup	-1	1	p	0.89649
598.0358	0.2	luc	64	verb	phrase	4	4	nomatch	beaucoup	-1	1	p	0.89649
598.2357	0.0	+	64	verb	phrase	4	5	nomatch	beaucoup	-1	1	p	0.89649
598.6355	0.2	doit	64	verb	phrase	4	6	nomatch	beaucoup	-1	1	p	0.89649
598.8353999999999	0.0	+	64	verb	phrase	4	7	nomatch	beaucoup	-1	1	p	0.89649
599.2352	0.2	parader	64	verb	phrase	4	8	nomatch	beaucoup	-1	1	p	0.89649
599.4352	0.0	+	64	verb	phrase	4	9	nomatch	beaucoup	-1	1	p	0.89649
599.8349999999999	0.2	ainsi	64	verb	phrase	4	10	nomatch	beaucoup	-1	1	p	0.89649
600.0349	0.0	+	64	verb	phrase	4	11	nomatch	beaucoup	-1	1	p	0.89649
600.4346999999999	0.0	+	64	verb	phrase	4	12	nomatch	beaucoup	-1	1	p	0.89649
602.4504999999999	0.0	BEAUCOUP	64	verb	phrase	4	13	nomatch	beaucoup	-1	1	p	0.89649
603.4001	0.0	+	64	verb	phrase	4	14	nomatch	beaucoup	-1	1	p	0.89649
603.347	0.0	[response]	64	verb	phrase	4	15	nomatch	beaucoup	-1	1	p	0.89649
612.8458999999999	0.0	+	65	verb	phrase	1	1	match	plonger	5	1	y	0.6687500000000001
613.3956	0.2	pzj	65	verb	phrase	1	2	match	plonger	5	1	y	0.6687500000000001
613.5955	0.0	+	65	verb	phrase	1	3	match	plonger	5	1	y	0.6687500000000001
613.9954	0.2	jvbz	65	verb	phrase	1	4	match	plonger	5	1	y	0.6687500000000001
614.1953	0.0	+	65	verb	phrase	1	5	match	plonger	5	1	y	0.6687500000000001
614.5951	0.2	kw	65	verb	phrase	1	6	match	plonger	5	1	y	0.6687500000000001
614.795	0.0	+	65	verb	phrase	1	7	match	plonger	5	1	y	0.6687500000000001
615.1948	0.2	gmfb	65	verb	phrase	1	8	match	plonger	5	1	y	0.6687500000000001
615.3947999999999	0.0	+	65	verb	phrase	1	9	match	plonger	5	1	y	0.6687500000000001
615.7946	0.2	plonger	65	verb	phrase	1	10	match	plonger	5	1	y	0.6687500000000001
615.9945	0.0	+	65	verb	phrase	1	11	match	plonger	5	1	y	0.6687500000000001
616.3942999999999	0.0	+	65	verb	phrase	1	12	match	plonger	5	1	y	0.6687500000000001
618.3933999999999	0.0	PLONGER	65	verb	phrase	1	13	match	plonger	5	1	y	0.6687500000000001
619.1264	0.0	+	65	verb	phrase	1	14	match	plonger	5	1	y	0.6687500000000001
619.0622	0.0	[response]	65	verb	phrase	1	15	match	plonger	5	1	y	0.6687500000000001
620.7923999999999	0.0	+	66	verb	phrase	1	1	match	voyager	5	1	y	0.44284000000000007
621.3421	0.2	vxmlr	66	verb	phrase	1	2	match	voyager	5	1	y	0.44284000000000007
621.5419999999999	0.0	+	66	verb	phrase	1	3	match	voyager	5	1	y	0.44284000000000007
621.9418	0.2	jdlv	66	verb	phrase	1	4	match	voyager	5	1	y	0.44284000000000007
622.1418	0.0	+	66	verb	phrase	1	5	match	voyager	5	1	y	0.44284000000000007
622.5416	0.2	qgfj	66	verb	phrase	1	6	match	voyager	5	1	y	0.44284000000000007
622.7415	0.0	+	66	verb	phrase	1	7	match	voyager	5	1	y	0.44284000000000007
623.1413	0.2	bsdln	66	verb	phrase	1	8	match	voyager	5	1	y	0.44284000000000007
623.3412	0.0	+	66	verb	phrase	1	9	match	voyager	5	1	y	0.44284000000000007
623.7411	0.2	voyager	66	verb	phrase	1	10	match	voyager	5	1	y	0.44284000000000007
623.9409999999999	0.0	+	66	verb	phrase	1	11	match	voyager	5	1	y	0.44284000000000007
624.3408	0.0	+	66	verb	phrase	1	12	match	voyager	5	1	y	0.44284000000000007
626.3399	0.0	VOYAGER	66	verb	phrase	1	13	match	voyager	5	1	y	0.44284000000000007
626.8397	0.0	+	66	verb	phrase	1	14	match	voyager	5	1	y	0.44284000000000007
626.7827	0.0	[response]	66	verb	phrase	1	15	match	voyager	5	1	y	0.44284000000000007
628.7388	0.0	+	67	verb	list	3	1	match	mon	3	0	p	1.1502
629.2886	0.2	tjcsg	67	verb	list	3	2	match	mon	3	0	p	1.1502
629.4884999999999	0.0	+	67	verb	list	3	3	match	mon	3	0	p	1.1502
629.8883	0.2	bcs	67	verb	list	3	4	match	mon	3	0	p	1.1502
630.0881999999999	0.0	+	67	verb	list	3	5	match	mon	3	0	p	1.1502
630.4880999999999	0.2	mon	67	verb	list	3	6	match	mon	3	0	p	1.1502
630.688	0.0	+	67	verb	list	3	7	match	mon	3	0	p	1.1502
631.0878	0.2	plonger	67	verb	list	3	8	match	mon	3	0	p	1.1502
631.2877	0.0	+	67	verb	list	3	9	match	mon	3	0	p	1.1502
631.6875	0.2	noir	67	verb	list	3	10	match	mon	3	0	p	1.1502
631.8874	0.0	+	67	verb	list	3	11	match	mon	3	0	p	1.1502
632.2873	0.0	+	67	verb	list	3	12	match	mon	3	0	p	1.1502
634.2864	0.0	MON	67	verb	list	3	13	match	mon	3	0	p	1.1502
635.5024999999999	0.0	+	67	verb	list	3	14	match	mon	3	0	p	1.1502
635.4366	0.0	[response]	67	verb	list	3	15	match	mon	3	0	p	1.1502
636.6853	0.0	+	68	verb	list	1	1	nomatch	nouveau	-1	1	p	0.78638
637.2351	0.2	kgj	68	verb	list	1	2	nomatch	nouveau	-1	1	p	0.78638
637.435	0.0	+	68	verb	list	1	3	nomatch	nouveau	-1	1	p	0.78638
637.8348	0.2	wtx	68	verb	list	1	4	nomatch	nouveau	-1	1	p	0.78638
638.0346999999999	0.0	+	68	verb	list	1	5	nomatch	nouveau	-1	1	p	0.78638
638.4345999999999	0.2	qgfj	68	verb	list	1	6	nomatch	nouveau	-1	1	p	0.78638
638.6345	0.0	+	68	verb	list	1	7	nomatch	nouveau	-1	1	p	0.78638
639.0342999999999	0.2	kljsn	68	verb	list	1	8	nomatch	nouveau	-1	1	p	0.78638
639.2342	0.0	+	68	verb	list	1	9	nomatch	nouveau	-1	1	p	0.78638
639.634	0.2	voyager	68	verb	list	1	10	nomatch	nouveau	-1	1	p	0.78638
639.8339	0.0	+	68	verb	list	1	11	nomatch	nouveau	-1	1	p	0.78638
640.2504	0.0	+	68	verb	list	1	12	nomatch	nouveau	-1	1	p	0.78638
642.2495	0.0	NOUVEAU	68	verb	list	1	13	nomatch	nouveau	-1	1	p	0.78638
643.0992	0.0	+	68	verb	list	1	14	nomatch	nouveau	-1	1	p	0.78638
643.0359	0.0	[response]	68	verb	list	1	15	nomatch	nouveau	-1	1	p	0.78638
644.6488999999999	0.0	+	69	verb	phrase	3	1	match	tard	5	1	y	0.77283
645.1981999999999	0.2	hnsdc	69	verb	phrase	3	2	match	tard	5	1	y	0.77283
645.3981	0.0	+	69	verb	phrase	3	3	match	tard	5	1	y	0.77283
645.798	0.2	dgtf	69	verb	phrase	3	4	match	tard	5	1	y	0.77283
645.9979	0.0	+	69	verb	phrase	3	5	match	tard	5	1	y	0.77283
646.3977	0.2	va	69	verb	phrase	3	6	match	tard	5	1	y	0.77283
646.5975999999999	0.0	+	69	verb	phrase	3	7	match	tard	5	1	y	0.77283
646.9974	0.2	danser	69	verb	phrase	3	8	match	tard	5	1	y	0.77283
647.1972999999999	0.0	+	69	verb	phrase	3	9	match	tard	5	1	y	0.77283
647.5971999999999	0.2	tard	69	verb	phrase	3	10	match	tard	5	1	y	0.77283
647.7971	0.0	+	69	verb	phrase	3	11	match	tard	5	1	y	0.77283
648.1968999999999	0.0	+	69	verb	phrase	3	12	match	tard	5	1	y	0.77283
650.1959999999999	0.0	TARD	69	verb	phrase	3	13	match	tard	5	1	y	0.77283
651.029	0.0	+	69	verb	phrase	3	14	match	tard	5	1	y	0.77283
650.9688	0.0	[response]	69	verb	phrase	3	15	match	tard	5	1	y	0.77283
652.5948999999999	0.0	+	70	verb	phrase	2	1	nomatch	tablier	-1	1	p	0.6138300000000001
653.1447	0.2	cmqxhk	70	verb	phrase	2	2	nomatch	tablier	-1	1	p	0.6138300000000001
653.3446	0.0	+	70	verb	phrase	2	3	nomatch	tablier	-1	1	p	0.6138300000000001
653.7443999999999	0.2	bcs	70	verb	phrase	2	4	nomatch	tablier	-1	1	p	0.6138300000000001
653.9443	0.0	+	70	verb	phrase	2	5	nomatch	tablier	-1	1	p	0.6138300000000001
654.3442	0.2	qgfj	70	verb	phrase	2	6	nomatch	tablier	-1	1	p	0.6138300000000001
654.5441	0.0	+	70	verb	phrase	2	7	nomatch	tablier	-1	1	p	0.6138300000000001
654.9439	0.2	plus	70	verb	phrase	2	8	nomatch	tablier	-1	1	p	0.6138300000000001
655.1437999999999	0.0	+	70	verb	phrase	2	9	nomatch	tablier	-1	1	p	0.6138300000000001
655.5436	0.2	rouler	70	verb	phrase	2	10	nomatch	tablier	-1	1	p	0.6138300000000001
655.7434999999999	0.0	+	70	verb	phrase	2	11	nomatch	tablier	-1	1	p	0.6138300000000001
656.1433999999999	0.0	+	70	verb	phrase	2	12	nomatch	tablier	-1	1	p	0.6138300000000001
658.1424999999999	0.0	TABLIER	70	verb	phrase	2	13	nomatch	tablier	-1	1	p	0.6138300000000001
658.8089	0.0	+	70	verb	phrase	2	14	nomatch	tablier	-1	1	p	0.6138300000000001
658.7563000000001	0.0	[response]	70	verb	phrase	2	15	nomatch	tablier	-1	1	p	0.6138300000000001
668.5378999999999	0.0	+	71	verb	phrase	4	1	nomatch	yves	-1	1	p	1.0687
669.0876	0.2	whxndrt	71	verb	phrase	4	2	nomatch	yves	-1	1	p	1.0687
669.2876	0.0	+	71	verb	phrase	4	3	nomatch	yves	-1	1	p	1.0687
669.6873999999999	0.2	luc	71	verb	phrase	4	4	nomatch	yves	-1	1	p	1.0687
669.8873	0.0	+	71	verb	phrase	4	5	nomatch	yves	-1	1	p	1.0687
670.2871	0.2	va	71	verb	phrase	4	6	nomatch	yves	-1	1	p	1.0687
670.487	0.0	+	71	verb	phrase	4	7	nomatch	yves	-1	1	p	1.0687
670.8868	0.2	mieux	71	verb	phrase	4	8	nomatch	yves	-1	1	p	1.0687
671.0867999999999	0.0	+	71	verb	phrase	4	9	nomatch	yves	-1	1	p	1.0687
671.4866	0.2	jongler	71	verb	phrase	4	10	nomatch	yves	-1	1	p	1.0687
671.6864999999999	0.0	+	71	verb	phrase	4	11	nomatch	yves	-1	1	p	1.0687
672.0862999999999	0.0	+	71	verb	phrase	4	12	nomatch	yves	-1	1	p	1.0687
674.0853999999999	0.0	YVES	71	verb	phrase	4	13	nomatch	yves	-1	1	p	1.0687
675.2183	0.0	+	71	verb	phrase	4	14	nomatch	yves	-1	1	p	1.0687
675.1541	0.0	[response]	71	verb	phrase	4	15	nomatch	yves	-1	1	p	1.0687
676.4843999999999	0.0	+	72	verb	phrase	1	1	match	parader	5	1	y	0.6101300000000001
677.0341	0.2	gpf	72	verb	phrase	1	2	match	parader	5	1	y	0.6101300000000001
677.2339999999999	0.0	+	72	verb	phrase	1	3	match	parader	5	1	y	0.6101300000000001
677.6505	0.2	vdsk	72	verb	phrase	1	4	match	parader	5	1	y	0.6101300000000001
677.8503999999999	0.0	+	72	verb	phrase	1	5	match	parader	5	1	y	0.6101300000000001
678.2502	0.2	qgfj	72	verb	phrase	1	6	match	parader	5	1	y	0.6101300000000001
678.4502	0.0	+	72	verb	phrase	1	7	match	parader	5	1	y	0.6101300000000001
678.8499999999999	0.2	bsdln	72	verb	phrase	1	8	match	parader	5	1	y	0.6101300000000001
679.0499	0.0	+	72	verb	phrase	1	9	match	parader	5	1	y	0.6101300000000001
679.4502	0.2	parader	72	verb	phrase	1	10	match	parader	5	1	y	0.6101300000000001
679.6496	0.0	+	72	verb	phrase	1	11	match	parader	5	1	y	0.6101300000000001
680.0495	0.0	+	72	verb	phrase	1	12	match	parader	5	1	y	0.6101300000000001
682.0486	0.0	PARADER	72	verb	phrase	1	13	match	parader	5	1	y	0.6101300000000001
682.7149	0.0	+	72	verb	phrase	1	14	match	parader	5	1	y	0.6101300000000001
682.6587	0.0	[response]	72	verb	phrase	1	15	match	parader	5	1	y	0.6101300000000001
700.4404	0.0	+	73	verb	list	1	1	match	bleu	5	1	y	0.5886100000000001
700.9902	0.2	zvsb	73	verb	list	1	2	match	bleu	5	1	y	0.5886100000000001
701.1900999999999	0.0	+	73	verb	list	1	3	match	bleu	5	1	y	0.5886100000000001
701.5899	0.2	mqnx	73	verb	list	1	4	match	bleu	5	1	y	0.5886100000000001
701.7898	0.0	+	73	verb	list	1	5	match	bleu	5	1	y	0.5886100000000001
702.1895999999999	0.2	jwq	73	verb	list	1	6	match	bleu	5	1	y	0.5886100000000001
702.3896	0.0	+	73	verb	list	1	7	match	bleu	5	1	y	0.5886100000000001
702.7894	0.2	pcgtzw	73	verb	list	1	8	match	bleu	5	1	y	0.5886100000000001
702.9893	0.0	+	73	verb	list	1	9	match	bleu	5	1	y	0.5886100000000001
703.3891	0.2	bleu	73	verb	list	1	10	match	bleu	5	1	y	0.5886100000000001
703.5889999999999	0.0	+	73	verb	list	1	11	match	bleu	5	1	y	0.5886100000000001
703.9888	0.0	+	73	verb	list	1	12	match	bleu	5	1	y	0.5886100000000001
705.9879999999999	0.0	BLEU	73	verb	list	1	13	match	bleu	5	1	y	0.5886100000000001
706.6377	0.0	+	73	verb	list	1	14	match	bleu	5	1	y	0.5886100000000001
706.5766	0.0	[response]	73	verb	list	1	15	match	bleu	5	1	y	0.5886100000000001
708.3869	0.0	+	74	verb	phrase	1	1	nomatch	vite	-1	1	p	0.74063
708.9367	0.2	hqblwgc	74	verb	phrase	1	2	nomatch	vite	-1	1	p	0.74063
709.1365999999999	0.0	+	74	verb	phrase	1	3	nomatch	vite	-1	1	p	0.74063
709.5364	0.2	bcs	74	verb	phrase	1	4	nomatch	vite	-1	1	p	0.74063
709.7362999999999	0.0	+	74	verb	phrase	1	5	nomatch	vite	-1	1	p	0.74063
710.1360999999999	0.2	vdfh	74	verb	phrase	1	6	nomatch	vite	-1	1	p	0.74063
710.336	0.0	+	74	verb	phrase	1	7	nomatch	vite	-1	1	p	0.74063
710.7359	0.2	snpxtm	74	verb	phrase	1	8	nomatch	vite	-1	1	p	0.74063
710.9358	0.0	+	74	verb	phrase	1	9	nomatch	vite	-1	1	p	0.74063
711.3356	0.2	loin	74	verb	phrase	1	10	nomatch	vite	-1	1	p	0.74063
711.5355	0.0	+	74	verb	phrase	1	11	nomatch	vite	-1	1	p	0.74063
711.9353	0.0	+	74	verb	phrase	1	12	nomatch	vite	-1	1	p	0.74063
713.9345	0.0	VITE	74	verb	phrase	1	13	nomatch	vite	-1	1	p	0.74063
714.7341	0.0	+	74	verb	phrase	1	14	nomatch	vite	-1	1	p	0.74063
714.6751	0.0	[response]	74	verb	phrase	1	15	nomatch	vite	-1	1	p	0.74063
716.3499999999999	0.0	+	75	verb	phrase	3	1	nomatch	bleu	-1	1	p	1.1116
716.8997999999999	0.2	jfq	75	verb	phrase	3	2	nomatch	bleu	-1	1	p	1.1116
717.0997	0.0	+	75	verb	phrase	3	3	nomatch	bleu	-1	1	p	1.1116
717.4995	0.2	mqnx	75	verb	phrase	3	4	nomatch	bleu	-1	1	p	1.1116
717.6994	0.0	+	75	verb	phrase	3	5	nomatch	bleu	-1	1	p	1.1116
718.0993	0.2	peut	75	verb	phrase	3	6	nomatch	bleu	-1	1	p	1.1116
718.2991999999999	0.0	+	75	verb	phrase	3	7	nomatch	bleu	-1	1	p	1.1116
718.699	0.2	moins	75	verb	phrase	3	8	nomatch	bleu	-1	1	p	1.1116
718.8988999999999	0.0	+	75	verb	phrase	3	9	nomatch	bleu	-1	1	p	1.1116
719.2986999999999	0.2	plonger	75	verb	phrase	3	10	nomatch	bleu	-1	1	p	1.1116
719.4987	0.0	+	75	verb	phrase	3	11	nomatch	bleu	-1	1	p	1.1116
719.8985	0.0	+	75	verb	phrase	3	12	nomatch	bleu	-1	1	p	1.1116
721.8976	0.0	BLEU	75	verb	phrase	3	13	nomatch	bleu	-1	1	p	1.1116
723.0636999999999	0.0	+	75	verb	phrase	3	14	nomatch	bleu	-1	1	p	1.1116
723.0092	0.0	[response]	75	verb	phrase	3	15	nomatch	bleu	-1	1	p	1.1116
724.2964999999999	0.0	+	76	verb	list	1	1	nomatch	chasser	-1	1	p	0.79121
724.8462999999999	0.2	lqfdmgb	76	verb	list	1	2	nomatch	chasser	-1	1	p	0.79121
725.0462	0.0	+	76	verb	list	1	3	nomatch	chasser	-1	1	p	0.79121
725.4459999999999	0.2	cxgm	76	verb	list	1	4	nomatch	chasser	-1	1	p	0.79121
725.6459	0.0	+	76	verb	list	1	5	nomatch	chasser	-1	1	p	0.79121
726.0458	0.2	vdfh	76	verb	list	1	6	nomatch	chasser	-1	1	p	0.79121
726.2456999999999	0.0	+	76	verb	list	1	7	nomatch	chasser	-1	1	p	0.79121
726.6455	0.2	rlhdn	76	verb	list	1	8	nomatch	chasser	-1	1	p	0.79121
726.8453999999999	0.0	+	76	verb	list	1	9	nomatch	chasser	-1	1	p	0.79121
727.2452	0.2	parader	76	verb	list	1	10	nomatch	chasser	-1	1	p	0.79121
727.4450999999999	0.0	+	76	verb	list	1	11	nomatch	chasser	-1	1	p	0.79121
727.8449999999999	0.0	+	76	verb	list	1	12	nomatch	chasser	-1	1	p	0.79121
729.8440999999999	0.0	CHASSER	76	verb	list	1	13	nomatch	chasser	-1	1	p	0.79121
730.6936999999999	0.0	+	76	verb	list	1	14	nomatch	chasser	-1	1	p	0.79121
730.6352999999999	0.0	[response]	76	verb	list	1	15	nomatch	chasser	-1	1	p	0.79121
732.2429999999999	0.0	+	77	verb	list	4	1	match	avec	2	1	y	0.9070800000000001
732.7927999999999	0.2	qtxl	77	verb	list	4	2	match	avec	2	1	y	0.9070800000000001
732.9927	0.0	+	77	verb	list	4	3	match	avec	2	1	y	0.9070800000000001
733.3924999999999	0.2	avec	77	verb	list	4	4	match	avec	2	1	y	0.9070800000000001
733.5924	0.0	+	77	verb	list	4	5	match	avec	2	1	y	0.9070800000000001
733.9921999999999	0.2	va	77	verb	list	4	6	match	avec	2	1	y	0.9070800000000001
734.1921	0.0	+	77	verb	list	4	7	match	avec	2	1	y	0.9070800000000001
734.592	0.2	beau	77	verb	list	4	8	match	avec	2	1	y	0.9070800000000001
734.7918999999999	0.0	+	77	verb	list	4	9	match	avec	2	1	y	0.9070800000000001
735.1917	0.2	voyager	77	verb	list	4	10	match	avec	2	1	y	0.9070800000000001
735.3915999999999	0.0	+	77	verb	list	4	11	match	avec	2	1	y	0.9070800000000001
735.7914	0.0	+	77	verb	list	4	12	match	avec	2	1	y	0.9070800000000001
737.7905	0.0	AVEC	77	verb	list	4	13	match	avec	2	1	y	0.9070800000000001
738.7568	0.0	+	77	verb	list	4	14	match	avec	2	1	y	0.9070800000000001
738.6976	0.0	[response]	77	verb	list	4	15	match	avec	2	1	y	0.9070800000000001
740.1895	0.0	+	78	verb	phrase	1	1	match	vite	5	1	y	0.51445
740.7392	0.2	nfmt	78	verb	phrase	1	2	match	vite	5	1	y	0.51445
740.9391999999999	0.0	+	78	verb	phrase	1	3	match	vite	5	1	y	0.51445
741.3389999999999	0.2	tnwf	78	verb	phrase	1	4	match	vite	5	1	y	0.51445
741.5389	0.0	+	78	verb	phrase	1	5	match	vite	5	1	y	0.51445
741.9386999999999	0.2	vdfh	78	verb	phrase	1	6	match	vite	5	1	y	0.51445
742.1387	0.0	+	78	verb	phrase	1	7	match	vite	5	1	y	0.51445
742.5383999999999	0.2	rlszd	78	verb	phrase	1	8	match	vite	5	1	y	0.51445
742.7384	0.0	+	78	verb	phrase	1	9	match	vite	5	1	y	0.51445
743.1382	0.2	vite	78	verb	phrase	1	10	match	vite	5	1	y	0.51445
743.3380999999999	0.0	+	78	verb	phrase	1	11	match	vite	5	1	y	0.51445
743.7379	0.0	+	78	verb	phrase	1	12	match	vite	5	1	y	0.51445
745.737	0.0	VITE	78	verb	phrase	1	13	match	vite	5	1	y	0.51445
746.3034	0.0	+	78	verb	phrase	1	14	match	vite	5	1	y	0.51445
746.2515000000001	0.0	[response]	78	verb	phrase	1	15	match	vite	5	1	y	0.51445
748.136	0.0	+	79	verb	phrase	4	1	nomatch	peut	-1	1	p	0.53856
748.6857	0.2	dvjzwc	79	verb	phrase	4	2	nomatch	peut	-1	1	p	0.53856
748.8856	0.0	+	79	verb	phrase	4	3	nomatch	peut	-1	1	p	0.53856
749.2855	0.2	yves	79	verb	phrase	4	4	nomatch	peut	-1	1	p	0.53856
749.4853999999999	0.0	+	79	verb	phrase	4	5	nomatch	peut	-1	1	p	0.53856
749.8851999999999	0.2	doit	79	verb	phrase	4	6	nomatch	peut	-1	1	p	0.53856
750.0851	0.0	+	79	verb	phrase	4	7	nomatch	peut	-1	1	p	0.53856
750.4848999999999	0.2	voyager	79	verb	phrase	4	8	nomatch	peut	-1	1	p	0.53856
750.6848	0.0	+	79	verb	phrase	4	9	nomatch	peut	-1	1	p	0.53856
751.0847	0.2	tard	79	verb	phrase	4	10	nomatch	peut	-1	1	p	0.53856
751.2846	0.0	+	79	verb	phrase	4	11	nomatch	peut	-1	1	p	0.53856
751.6844	0.0	+	79	verb	phrase	4	12	nomatch	peut	-1	1	p	0.53856
753.7002	0.0	PEUT	79	verb	phrase	4	13	nomatch	peut	-1	1	p	0.53856
754.2999	0.0	+	79	verb	phrase	4	14	nomatch	peut	-1	1	p	0.53856
754.2387	0.0	[response]	79	verb	phrase	4	15	nomatch	peut	-1	1	p	0.53856
756.0990999999999	0.0	+	80	verb	phrase	1	1	nomatch	blanc	-1	1	p	0.61838
756.6488999999999	0.2	rsv	80	verb	phrase	1	2	nomatch	blanc	-1	1	p	0.61838
756.8488	0.0	+	80	verb	phrase	1	3	nomatch	blanc	-1	1	p	0.61838
757.2486	0.2	tnwf	80	verb	phrase	1	4	nomatch	blanc	-1	1	p	0.61838
757.4485	0.0	+	80	verb	phrase	1	5	nomatch	blanc	-1	1	p	0.61838
757.8483	0.2	qgfj	80	verb	phrase	1	6	nomatch	blanc	-1	1	p	0.61838
758.0482	0.0	+	80	verb	phrase	1	7	nomatch	blanc	-1	1	p	0.61838
758.4481999999999	0.2	rnhvc	80	verb	phrase	1	8	nomatch	blanc	-1	1	p	0.61838
758.6479999999999	0.0	+	80	verb	phrase	1	9	nomatch	blanc	-1	1	p	0.61838
759.0477999999999	0.2	danser	80	verb	phrase	1	10	nomatch	blanc	-1	1	p	0.61838
759.2477	0.0	+	80	verb	phrase	1	11	nomatch	blanc	-1	1	p	0.61838
759.6474999999999	0.0	+	80	verb	phrase	1	12	nomatch	blanc	-1	1	p	0.61838
761.6467	0.0	BLANC	80	verb	phrase	1	13	nomatch	blanc	-1	1	p	0.61838
762.3297	0.0	+	80	verb	phrase	1	14	nomatch	blanc	-1	1	p	0.61838
764.0455999999999	0.0	+	80	verb	phrase	1	15	nomatch	blanc	-1	1	p	0.61838
765.0118	0.0	+	80	verb	phrase	1	16	nomatch	blanc	-1	1	p	0.61838
765.1118	0.0	+	80	verb	phrase	1	17	nomatch	blanc	-1	1	p	0.61838
766.5111999999999	0.0	+	80	verb	phrase	1	18	nomatch	blanc	-1	1	p	0.61838
766.6111	0.0	+	80	verb	phrase	1	19	nomatch	blanc	-1	1	p	0.61838
767.9938	0.0	+	80	verb	phrase	1	20	nomatch	blanc	-1	1	p	0.61838
768.0938	0.0	+	80	verb	phrase	1	21	nomatch	blanc	-1	1	p	0.61838
769.5097999999999	0.0	+	80	verb	phrase	1	22	nomatch	blanc	-1	1	p	0.61838
769.6098	0.0	+	80	verb	phrase	1	23	nomatch	blanc	-1	1	p	0.61838
771.0092	0.0	+	80	verb	phrase	1	24	nomatch	blanc	-1	1	p	0.61838
771.1091	0.0	+	80	verb	phrase	1	25	nomatch	blanc	-1	1	p	0.61838
772.5084999999999	0.0	+	80	verb	phrase	1	26	nomatch	blanc	-1	1	p	0.61838
772.6084999999999	0.0	+	80	verb	phrase	1	27	nomatch	blanc	-1	1	p	0.61838
774.0078	0.0	+	80	verb	phrase	1	28	nomatch	blanc	-1	1	p	0.61838
774.1078	0.0	+	80	verb	phrase	1	29	nomatch	blanc	-1	1	p	0.61838
775.5072	0.0	+	80	verb	phrase	1	30	nomatch	blanc	-1	1	p	0.61838
775.6071	0.0	+	80	verb	phrase	1	31	nomatch	blanc	-1	1	p	0.61838
777.0065	0.0	+	80	verb	phrase	1	32	nomatch	blanc	-1	1	p	0.61838
777.1065	0.0	+	80	verb	phrase	1	33	nomatch	blanc	-1	1	p	0.61838
778.5057999999999	0.0	+	80	verb	phrase	1	34	nomatch	blanc	-1	1	p	0.61838
778.6057999999999	0.0	+	80	verb	phrase	1	35	nomatch	blanc	-1	1	p	0.61838
781.9377	0.0	+	80	verb	phrase	1	36	nomatch	blanc	-1	1	p	0.61838
762.265	0.0	[response]	80	verb	phrase	1	37	nomatch	blanc	-1	1	p	0.61838
