onset	duration	stim	trial_number	trial_type	trial_structure	trial_length	sequential_position	probe_type	probe	probe_position	response_correct	response_key	response_time
0.06560000000000343	0.0	+	1	verb	list	1	1	nomatch	clavier	-1	1	p	0.79603
0.5488	0.2	qngfxmk	1	verb	list	1	2	nomatch	clavier	-1	1	p	0.79603
0.7486999999999995	0.0	+	1	verb	list	1	3	nomatch	clavier	-1	1	p	0.79603
1.1484999999999985	0.2	dnmw	1	verb	list	1	4	nomatch	clavier	-1	1	p	0.79603
1.348399999999998	0.0	+	1	verb	list	1	5	nomatch	clavier	-1	1	p	0.79603
1.748199999999997	0.2	kw	1	verb	list	1	6	nomatch	clavier	-1	1	p	0.79603
1.9482	0.0	+	1	verb	list	1	7	nomatch	clavier	-1	1	p	0.79603
2.347999999999999	0.2	jwvg	1	verb	list	1	8	nomatch	clavier	-1	1	p	0.79603
2.5478999999999985	0.0	+	1	verb	list	1	9	nomatch	clavier	-1	1	p	0.79603
2.9476999999999975	0.2	plonger	1	verb	list	1	10	nomatch	clavier	-1	1	p	0.79603
3.147599999999997	0.0	+	1	verb	list	1	11	nomatch	clavier	-1	1	p	0.79603
3.547399999999996	0.0	+	1	verb	list	1	12	nomatch	clavier	-1	1	p	0.79603
5.546599999999998	0.0	CLAVIER	1	verb	list	1	13	nomatch	clavier	-1	1	p	0.79603
6.396199999999993	0.0	+	1	verb	list	1	14	nomatch	clavier	-1	1	p	0.79603
6.34259999999999	0.0	[response]	1	verb	list	1	15	nomatch	clavier	-1	1	p	0.79603
7.945499999999996	0.0	+	2	noun	list	4	1	nomatch	va	-1	1	p	1.2864000000000002
8.4953	0.2	qmfnp	2	noun	list	4	2	nomatch	va	-1	1	p	1.2864000000000002
8.6952	0.0	+	2	noun	list	4	3	nomatch	va	-1	1	p	1.2864000000000002
9.094999999999999	0.2	adam	2	noun	list	4	4	nomatch	va	-1	1	p	1.2864000000000002
9.294899999999998	0.0	+	2	noun	list	4	5	nomatch	va	-1	1	p	1.2864000000000002
9.694699999999997	0.2	mon	2	noun	list	4	6	nomatch	va	-1	1	p	1.2864000000000002
9.894599999999997	0.0	+	2	noun	list	4	7	nomatch	va	-1	1	p	1.2864000000000002
10.2945	0.2	trop	2	noun	list	4	8	nomatch	va	-1	1	p	1.2864000000000002
10.494399999999999	0.0	+	2	noun	list	4	9	nomatch	va	-1	1	p	1.2864000000000002
10.894199999999998	0.2	rocher	2	noun	list	4	10	nomatch	va	-1	1	p	1.2864000000000002
11.094099999999997	0.0	+	2	noun	list	4	11	nomatch	va	-1	1	p	1.2864000000000002
11.493899999999996	0.0	+	2	noun	list	4	12	nomatch	va	-1	1	p	1.2864000000000002
13.492999999999995	0.0	VA	2	noun	list	4	13	nomatch	va	-1	1	p	1.2864000000000002
14.842399999999998	0.0	+	2	noun	list	4	14	nomatch	va	-1	1	p	1.2864000000000002
14.779399999999995	0.0	[response]	2	noun	list	4	15	nomatch	va	-1	1	p	1.2864000000000002
23.88839999999999	0.0	+	3	noun	phrase	2	1	match	cendrier	4	1	y	0.5689700000000001
24.438199999999995	0.2	dlrsn	3	noun	phrase	2	2	match	cendrier	4	1	y	0.5689700000000001
24.638099999999994	0.0	+	3	noun	phrase	2	3	match	cendrier	4	1	y	0.5689700000000001
25.037899999999993	0.2	vpfm	3	noun	phrase	2	4	match	cendrier	4	1	y	0.5689700000000001
25.237799999999993	0.0	+	3	noun	phrase	2	5	match	cendrier	4	1	y	0.5689700000000001
25.637699999999995	0.2	gkpq	3	noun	phrase	2	6	match	cendrier	4	1	y	0.5689700000000001
25.837599999999995	0.0	+	3	noun	phrase	2	7	match	cendrier	4	1	y	0.5689700000000001
26.237399999999994	0.2	cendrier	3	noun	phrase	2	8	match	cendrier	4	1	y	0.5689700000000001
26.437299999999993	0.0	+	3	noun	phrase	2	9	match	cendrier	4	1	y	0.5689700000000001
26.837099999999992	0.2	vert	3	noun	phrase	2	10	match	cendrier	4	1	y	0.5689700000000001
27.036999999999992	0.0	+	3	noun	phrase	2	11	match	cendrier	4	1	y	0.5689700000000001
27.436899999999994	0.0	+	3	noun	phrase	2	12	match	cendrier	4	1	y	0.5689700000000001
29.436399999999992	0.0	CENDRIER	3	noun	phrase	2	13	match	cendrier	4	1	y	0.5689700000000001
30.06909999999999	0.0	+	3	noun	phrase	2	14	match	cendrier	4	1	y	0.5689700000000001
30.005399999999995	0.0	[response]	3	noun	phrase	2	15	match	cendrier	4	1	y	0.5689700000000001
31.83489999999999	0.0	+	4	noun	phrase	4	1	match	rouge	5	1	y	0.60007
32.384699999999995	0.2	fmgn	4	noun	phrase	4	2	match	rouge	5	1	y	0.60007
32.584599999999995	0.0	+	4	noun	phrase	4	3	match	rouge	5	1	y	0.60007
32.984399999999994	0.2	vers	4	noun	phrase	4	4	match	rouge	5	1	y	0.60007
33.18429999999999	0.0	+	4	noun	phrase	4	5	match	rouge	5	1	y	0.60007
33.58409999999999	0.2	leur	4	noun	phrase	4	6	match	rouge	5	1	y	0.60007
33.784099999999995	0.0	+	4	noun	phrase	4	7	match	rouge	5	1	y	0.60007
34.183899999999994	0.2	sablier	4	noun	phrase	4	8	match	rouge	5	1	y	0.60007
34.40039999999999	0.0	+	4	noun	phrase	4	9	match	rouge	5	1	y	0.60007
34.80029999999999	0.2	rouge	4	noun	phrase	4	10	match	rouge	5	1	y	0.60007
35.00019999999999	0.0	+	4	noun	phrase	4	11	match	rouge	5	1	y	0.60007
35.39999999999999	0.0	+	4	noun	phrase	4	12	match	rouge	5	1	y	0.60007
37.39909999999999	0.0	ROUGE	4	noun	phrase	4	13	match	rouge	5	1	y	0.60007
38.0656	0.0	+	4	noun	phrase	4	14	match	rouge	5	1	y	0.60007
37.9992	0.0	[response]	4	noun	phrase	4	15	match	rouge	5	1	y	0.60007
39.79809999999999	0.0	+	5	noun	phrase	1	1	match	bleu	5	1	y	0.55758
40.34779999999999	0.2	tjc	5	noun	phrase	1	2	match	bleu	5	1	y	0.55758
40.54769999999999	0.0	+	5	noun	phrase	1	3	match	bleu	5	1	y	0.55758
40.947599999999994	0.2	vpfm	5	noun	phrase	1	4	match	bleu	5	1	y	0.55758
41.147499999999994	0.0	+	5	noun	phrase	1	5	match	bleu	5	1	y	0.55758
41.54729999999999	0.2	gkpq	5	noun	phrase	1	6	match	bleu	5	1	y	0.55758
41.74719999999999	0.0	+	5	noun	phrase	1	7	match	bleu	5	1	y	0.55758
42.14699999999999	0.2	pnwxgms	5	noun	phrase	1	8	match	bleu	5	1	y	0.55758
42.34689999999999	0.0	+	5	noun	phrase	1	9	match	bleu	5	1	y	0.55758
42.74679999999999	0.2	bleu	5	noun	phrase	1	10	match	bleu	5	1	y	0.55758
42.94669999999999	0.0	+	5	noun	phrase	1	11	match	bleu	5	1	y	0.55758
43.34649999999999	0.0	+	5	noun	phrase	1	12	match	bleu	5	1	y	0.55758
45.34559999999999	0.0	BLEU	5	noun	phrase	1	13	match	bleu	5	1	y	0.55758
45.962	0.0	+	5	noun	phrase	1	14	match	bleu	5	1	y	0.55758
45.9032	0.0	[response]	5	noun	phrase	1	15	match	bleu	5	1	y	0.55758
47.7445	0.0	+	6	noun	list	1	1	match	casier	5	1	y	0.46341
48.29430000000001	0.2	qrtldhc	6	noun	list	1	2	match	casier	5	1	y	0.46341
48.49419999999999	0.0	+	6	noun	list	1	3	match	casier	5	1	y	0.46341
48.89399999999999	0.2	wtx	6	noun	list	1	4	match	casier	5	1	y	0.46341
49.093900000000005	0.0	+	6	noun	list	1	5	match	casier	5	1	y	0.46341
49.49380000000001	0.2	vdfh	6	noun	list	1	6	match	casier	5	1	y	0.46341
49.69369999999999	0.0	+	6	noun	list	1	7	match	casier	5	1	y	0.46341
50.09349999999999	0.2	xchg	6	noun	list	1	8	match	casier	5	1	y	0.46341
50.293400000000005	0.0	+	6	noun	list	1	9	match	casier	5	1	y	0.46341
50.693200000000004	0.2	casier	6	noun	list	1	10	match	casier	5	1	y	0.46341
50.89309999999999	0.0	+	6	noun	list	1	11	match	casier	5	1	y	0.46341
51.29299999999999	0.0	+	6	noun	list	1	12	match	casier	5	1	y	0.46341
53.29209999999999	0.0	CASIER	6	noun	list	1	13	match	casier	5	1	y	0.46341
53.808499999999995	0.0	+	6	noun	list	1	14	match	casier	5	1	y	0.46341
53.7555	0.0	[response]	6	noun	list	1	15	match	casier	5	1	y	0.46341
55.69099999999999	0.0	+	7	verb	list	3	1	match	noir	5	1	y	0.55867
56.24079999999999	0.2	jvnlxh	7	verb	list	3	2	match	noir	5	1	y	0.55867
56.44070000000001	0.0	+	7	verb	list	3	3	match	noir	5	1	y	0.55867
56.840500000000006	0.2	mqnx	7	verb	list	3	4	match	noir	5	1	y	0.55867
57.04039999999999	0.0	+	7	verb	list	3	5	match	noir	5	1	y	0.55867
57.44029999999999	0.2	mon	7	verb	list	3	6	match	noir	5	1	y	0.55867
57.64020000000001	0.0	+	7	verb	list	3	7	match	noir	5	1	y	0.55867
58.040000000000006	0.2	nager	7	verb	list	3	8	match	noir	5	1	y	0.55867
58.23989999999999	0.0	+	7	verb	list	3	9	match	noir	5	1	y	0.55867
58.63969999999999	0.2	noir	7	verb	list	3	10	match	noir	5	1	y	0.55867
58.839600000000004	0.0	+	7	verb	list	3	11	match	noir	5	1	y	0.55867
59.2394	0.0	+	7	verb	list	3	12	match	noir	5	1	y	0.55867
61.238600000000005	0.0	NOIR	7	verb	list	3	13	match	noir	5	1	y	0.55867
61.855000000000004	0.0	+	7	verb	list	3	14	match	noir	5	1	y	0.55867
61.79719999999999	0.0	[response]	7	verb	list	3	15	match	noir	5	1	y	0.55867
63.6375	0.0	+	8	verb	list	4	1	nomatch	vite	-1	1	p	0.66645
64.18730000000001	0.2	htsrnw	8	verb	list	4	2	nomatch	vite	-1	1	p	0.66645
64.38719999999999	0.0	+	8	verb	list	4	3	nomatch	vite	-1	1	p	0.66645
64.78699999999999	0.2	avec	8	verb	list	4	4	nomatch	vite	-1	1	p	0.66645
64.9869	0.0	+	8	verb	list	4	5	nomatch	vite	-1	1	p	0.66645
65.3867	0.2	va	8	verb	list	4	6	nomatch	vite	-1	1	p	0.66645
65.58659999999999	0.0	+	8	verb	list	4	7	nomatch	vite	-1	1	p	0.66645
65.98649999999999	0.2	nouveau	8	verb	list	4	8	nomatch	vite	-1	1	p	0.66645
66.1864	0.0	+	8	verb	list	4	9	nomatch	vite	-1	1	p	0.66645
66.5862	0.2	rouler	8	verb	list	4	10	nomatch	vite	-1	1	p	0.66645
66.78609999999999	0.0	+	8	verb	list	4	11	nomatch	vite	-1	1	p	0.66645
67.18589999999999	0.0	+	8	verb	list	4	12	nomatch	vite	-1	1	p	0.66645
69.18499999999999	0.0	VITE	8	verb	list	4	13	nomatch	vite	-1	1	p	0.66645
69.91799999999999	0.0	+	8	verb	list	4	14	nomatch	vite	-1	1	p	0.66645
69.85150000000003	0.0	[response]	8	verb	list	4	15	nomatch	vite	-1	1	p	0.66645
71.58399999999999	0.0	+	9	noun	list	4	1	nomatch	son	-1	1	p	0.64097
72.1504	0.2	ltvdcpz	9	noun	list	4	2	nomatch	son	-1	1	p	0.64097
72.35029999999999	0.0	+	9	noun	list	4	3	nomatch	son	-1	1	p	0.64097
72.75009999999999	0.2	adam	9	noun	list	4	4	nomatch	son	-1	1	p	0.64097
72.9501	0.0	+	9	noun	list	4	5	nomatch	son	-1	1	p	0.64097
73.3499	0.2	mon	9	noun	list	4	6	nomatch	son	-1	1	p	0.64097
73.54979999999999	0.0	+	9	noun	list	4	7	nomatch	son	-1	1	p	0.64097
73.94959999999999	0.2	trop	9	noun	list	4	8	nomatch	son	-1	1	p	0.64097
74.1495	0.0	+	9	noun	list	4	9	nomatch	son	-1	1	p	0.64097
74.5493	0.2	clavier	9	noun	list	4	10	nomatch	son	-1	1	p	0.64097
74.74929999999999	0.0	+	9	noun	list	4	11	nomatch	son	-1	1	p	0.64097
75.14909999999999	0.0	+	9	noun	list	4	12	nomatch	son	-1	1	p	0.64097
77.14819999999999	0.0	SON	9	noun	list	4	13	nomatch	son	-1	1	p	0.64097
77.8479	0.0	+	9	noun	list	4	14	nomatch	son	-1	1	p	0.64097
77.78920000000001	0.0	[response]	9	noun	list	4	15	nomatch	son	-1	1	p	0.64097
79.54709999999999	0.0	+	10	noun	list	2	1	match	ainsi	5	1	y	0.80437
80.09689999999999	0.2	czn	10	noun	list	2	2	match	ainsi	5	1	y	0.80437
80.2968	0.0	+	10	noun	list	2	3	match	ainsi	5	1	y	0.80437
80.6966	0.2	mfdt	10	noun	list	2	4	match	ainsi	5	1	y	0.80437
80.89649999999999	0.0	+	10	noun	list	2	5	match	ainsi	5	1	y	0.80437
81.29629999999999	0.2	vdfh	10	noun	list	2	6	match	ainsi	5	1	y	0.80437
81.4963	0.0	+	10	noun	list	2	7	match	ainsi	5	1	y	0.80437
81.8961	0.2	boîtier	10	noun	list	2	8	match	ainsi	5	1	y	0.80437
82.09599999999999	0.0	+	10	noun	list	2	9	match	ainsi	5	1	y	0.80437
82.49579999999999	0.2	ainsi	10	noun	list	2	10	match	ainsi	5	1	y	0.80437
82.6957	0.0	+	10	noun	list	2	11	match	ainsi	5	1	y	0.80437
83.0956	0.0	+	10	noun	list	2	12	match	ainsi	5	1	y	0.80437
85.0947	0.0	AINSI	10	noun	list	2	13	match	ainsi	5	1	y	0.80437
85.961	0.0	+	10	noun	list	2	14	match	ainsi	5	1	y	0.80437
85.89899999999999	0.0	[response]	10	noun	list	2	15	match	ainsi	5	1	y	0.80437
87.4936	0.0	+	11	verb	phrase	1	1	nomatch	cendrier	-1	1	p	0.9361500000000001
88.0434	0.2	vrdh	11	verb	phrase	1	2	nomatch	cendrier	-1	1	p	0.9361500000000001
88.24329999999999	0.0	+	11	verb	phrase	1	3	nomatch	cendrier	-1	1	p	0.9361500000000001
88.64309999999999	0.2	dgtf	11	verb	phrase	1	4	nomatch	cendrier	-1	1	p	0.9361500000000001
88.843	0.0	+	11	verb	phrase	1	5	nomatch	cendrier	-1	1	p	0.9361500000000001
89.2428	0.2	qgfj	11	verb	phrase	1	6	nomatch	cendrier	-1	1	p	0.9361500000000001
89.44279999999999	0.0	+	11	verb	phrase	1	7	nomatch	cendrier	-1	1	p	0.9361500000000001
89.84259999999999	0.2	qxlpftj	11	verb	phrase	1	8	nomatch	cendrier	-1	1	p	0.9361500000000001
90.0425	0.0	+	11	verb	phrase	1	9	nomatch	cendrier	-1	1	p	0.9361500000000001
90.4423	0.2	mieux	11	verb	phrase	1	10	nomatch	cendrier	-1	1	p	0.9361500000000001
90.64219999999999	0.0	+	11	verb	phrase	1	11	nomatch	cendrier	-1	1	p	0.9361500000000001
91.04199999999999	0.0	+	11	verb	phrase	1	12	nomatch	cendrier	-1	1	p	0.9361500000000001
93.04119999999999	0.0	CENDRIER	11	verb	phrase	1	13	nomatch	cendrier	-1	1	p	0.9361500000000001
94.0407	0.0	+	11	verb	phrase	1	14	nomatch	cendrier	-1	1	p	0.9361500000000001
93.9773	0.0	[response]	11	verb	phrase	1	15	nomatch	cendrier	-1	1	p	0.9361500000000001
95.44009999999999	0.0	+	12	noun	phrase	3	1	nomatch	leur	-1	1	p	0.6255300000000001
95.98979999999999	0.2	dsjp	12	noun	phrase	3	2	nomatch	leur	-1	1	p	0.6255300000000001
96.1898	0.0	+	12	noun	phrase	3	3	nomatch	leur	-1	1	p	0.6255300000000001
96.5896	0.2	dnmw	12	noun	phrase	3	4	nomatch	leur	-1	1	p	0.6255300000000001
96.78949999999999	0.0	+	12	noun	phrase	3	5	nomatch	leur	-1	1	p	0.6255300000000001
97.18929999999999	0.2	son	12	noun	phrase	3	6	nomatch	leur	-1	1	p	0.6255300000000001
97.3892	0.0	+	12	noun	phrase	3	7	nomatch	leur	-1	1	p	0.6255300000000001
97.789	0.2	voilier	12	noun	phrase	3	8	nomatch	leur	-1	1	p	0.6255300000000001
97.98899999999999	0.0	+	12	noun	phrase	3	9	nomatch	leur	-1	1	p	0.6255300000000001
98.38879999999999	0.2	rouge	12	noun	phrase	3	10	nomatch	leur	-1	1	p	0.6255300000000001
98.5887	0.0	+	12	noun	phrase	3	11	nomatch	leur	-1	1	p	0.6255300000000001
98.9885	0.0	+	12	noun	phrase	3	12	nomatch	leur	-1	1	p	0.6255300000000001
100.98780000000001	0.0	LEUR	12	noun	phrase	3	13	nomatch	leur	-1	1	p	0.6255300000000001
101.6707	0.0	+	12	noun	phrase	3	14	nomatch	leur	-1	1	p	0.6255300000000001
101.6133	0.0	[response]	12	noun	phrase	3	15	nomatch	leur	-1	1	p	0.6255300000000001
111.39970000000001	0.0	+	13	noun	list	2	1	nomatch	bleu	-1	1	p	1.2339000000000002
111.94939999999998	0.2	vdhgwn	13	noun	list	2	2	nomatch	bleu	-1	1	p	1.2339000000000002
112.1494	0.0	+	13	noun	list	2	3	nomatch	bleu	-1	1	p	1.2339000000000002
112.5492	0.2	vpfm	13	noun	list	2	4	nomatch	bleu	-1	1	p	1.2339000000000002
112.74909999999998	0.0	+	13	noun	list	2	5	nomatch	bleu	-1	1	p	1.2339000000000002
113.14899999999999	0.2	qgfj	13	noun	list	2	6	nomatch	bleu	-1	1	p	1.2339000000000002
113.3488	0.0	+	13	noun	list	2	7	nomatch	bleu	-1	1	p	1.2339000000000002
113.7486	0.2	clavier	13	noun	list	2	8	nomatch	bleu	-1	1	p	1.2339000000000002
113.94859999999998	0.0	+	13	noun	list	2	9	nomatch	bleu	-1	1	p	1.2339000000000002
114.34839999999998	0.2	tôt	13	noun	list	2	10	nomatch	bleu	-1	1	p	1.2339000000000002
114.5483	0.0	+	13	noun	list	2	11	nomatch	bleu	-1	1	p	1.2339000000000002
114.9481	0.0	+	13	noun	list	2	12	nomatch	bleu	-1	1	p	1.2339000000000002
116.9472	0.0	BLEU	13	noun	list	2	13	nomatch	bleu	-1	1	p	1.2339000000000002
118.24659999999999	0.0	+	13	noun	list	2	14	nomatch	bleu	-1	1	p	1.2339000000000002
118.1811	0.0	[response]	13	noun	list	2	15	nomatch	bleu	-1	1	p	1.2339000000000002
119.3462	0.0	+	14	noun	list	2	1	nomatch	cendrier	-1	1	p	0.98035
119.8959	0.2	fmpl	14	noun	list	2	2	nomatch	cendrier	-1	1	p	0.98035
120.09579999999998	0.0	+	14	noun	list	2	3	nomatch	cendrier	-1	1	p	0.98035
120.49569999999999	0.2	tnwf	14	noun	list	2	4	nomatch	cendrier	-1	1	p	0.98035
120.6956	0.0	+	14	noun	list	2	5	nomatch	cendrier	-1	1	p	0.98035
121.0954	0.2	gkpq	14	noun	list	2	6	nomatch	cendrier	-1	1	p	0.98035
121.29529999999998	0.0	+	14	noun	list	2	7	nomatch	cendrier	-1	1	p	0.98035
121.69510000000001	0.2	moins	14	noun	list	2	8	nomatch	cendrier	-1	1	p	0.98035
121.895	0.0	+	14	noun	list	2	9	nomatch	cendrier	-1	1	p	0.98035
122.2949	0.2	voilier	14	noun	list	2	10	nomatch	cendrier	-1	1	p	0.98035
122.49479999999998	0.0	+	14	noun	list	2	11	nomatch	cendrier	-1	1	p	0.98035
122.89460000000001	0.0	+	14	noun	list	2	12	nomatch	cendrier	-1	1	p	0.98035
124.89370000000001	0.0	CENDRIER	14	noun	list	2	13	nomatch	cendrier	-1	1	p	0.98035
125.9266	0.0	+	14	noun	list	2	14	nomatch	cendrier	-1	1	p	0.98035
125.87409999999998	0.0	[response]	14	noun	list	2	15	nomatch	cendrier	-1	1	p	0.98035
127.29260000000001	0.0	+	15	verb	phrase	1	1	nomatch	rouler	-1	1	p	0.65612
127.84239999999998	0.2	mncgrlt	15	verb	phrase	1	2	nomatch	rouler	-1	1	p	0.65612
128.0423	0.0	+	15	verb	phrase	1	3	nomatch	rouler	-1	1	p	0.65612
128.44209999999998	0.2	jvbz	15	verb	phrase	1	4	nomatch	rouler	-1	1	p	0.65612
128.642	0.0	+	15	verb	phrase	1	5	nomatch	rouler	-1	1	p	0.65612
129.0419	0.2	qgfj	15	verb	phrase	1	6	nomatch	rouler	-1	1	p	0.65612
129.2418	0.0	+	15	verb	phrase	1	7	nomatch	rouler	-1	1	p	0.65612
129.64159999999998	0.2	pvrdkzg	15	verb	phrase	1	8	nomatch	rouler	-1	1	p	0.65612
129.8415	0.0	+	15	verb	phrase	1	9	nomatch	rouler	-1	1	p	0.65612
130.24130000000002	0.2	tôt	15	verb	phrase	1	10	nomatch	rouler	-1	1	p	0.65612
130.4413	0.0	+	15	verb	phrase	1	11	nomatch	rouler	-1	1	p	0.65612
130.84109999999998	0.0	+	15	verb	phrase	1	12	nomatch	rouler	-1	1	p	0.65612
132.84019999999998	0.0	ROULER	15	verb	phrase	1	13	nomatch	rouler	-1	1	p	0.65612
133.55649999999997	0.0	+	15	verb	phrase	1	14	nomatch	rouler	-1	1	p	0.65612
133.49630000000002	0.0	[response]	15	verb	phrase	1	15	nomatch	rouler	-1	1	p	0.65612
135.2391	0.0	+	16	noun	list	1	1	match	vite	5	1	y	0.44852
135.7889	0.2	fzn	16	noun	list	1	2	match	vite	5	1	y	0.44852
135.98879999999997	0.0	+	16	noun	list	1	3	match	vite	5	1	y	0.44852
136.3886	0.2	vpfm	16	noun	list	1	4	match	vite	5	1	y	0.44852
136.5885	0.0	+	16	noun	list	1	5	match	vite	5	1	y	0.44852
136.9884	0.2	vdfh	16	noun	list	1	6	match	vite	5	1	y	0.44852
137.18829999999997	0.0	+	16	noun	list	1	7	match	vite	5	1	y	0.44852
137.5881	0.2	jbtkcz	16	noun	list	1	8	match	vite	5	1	y	0.44852
137.788	0.0	+	16	noun	list	1	9	match	vite	5	1	y	0.44852
138.18779999999998	0.2	vite	16	noun	list	1	10	match	vite	5	1	y	0.44852
138.3877	0.0	+	16	noun	list	1	11	match	vite	5	1	y	0.44852
138.7876	0.0	+	16	noun	list	1	12	match	vite	5	1	y	0.44852
140.7867	0.0	VITE	16	noun	list	1	13	match	vite	5	1	y	0.44852
141.30309999999997	0.0	+	16	noun	list	1	14	match	vite	5	1	y	0.44852
141.23520000000002	0.0	[response]	16	noun	list	1	15	match	vite	5	1	y	0.44852
143.18560000000002	0.0	+	17	noun	list	3	1	nomatch	mieux	-1	1	p	0.6022200000000001
143.73539999999997	0.2	qhlcnw	17	noun	list	3	2	nomatch	mieux	-1	1	p	0.6022200000000001
143.93529999999998	0.0	+	17	noun	list	3	3	nomatch	mieux	-1	1	p	0.6022200000000001
144.3351	0.2	dgtf	17	noun	list	3	4	nomatch	mieux	-1	1	p	0.6022200000000001
144.53500000000003	0.0	+	17	noun	list	3	5	nomatch	mieux	-1	1	p	0.6022200000000001
144.9348	0.2	leur	17	noun	list	3	6	nomatch	mieux	-1	1	p	0.6022200000000001
145.13479999999998	0.0	+	17	noun	list	3	7	nomatch	mieux	-1	1	p	0.6022200000000001
145.5346	0.2	beaucoup	17	noun	list	3	8	nomatch	mieux	-1	1	p	0.6022200000000001
145.73449999999997	0.0	+	17	noun	list	3	9	nomatch	mieux	-1	1	p	0.6022200000000001
146.1343	0.2	voilier	17	noun	list	3	10	nomatch	mieux	-1	1	p	0.6022200000000001
146.3342	0.0	+	17	noun	list	3	11	nomatch	mieux	-1	1	p	0.6022200000000001
146.73399999999998	0.0	+	17	noun	list	3	12	nomatch	mieux	-1	1	p	0.6022200000000001
148.7498	0.0	MIEUX	17	noun	list	3	13	nomatch	mieux	-1	1	p	0.6022200000000001
149.41629999999998	0.0	+	17	noun	list	3	14	nomatch	mieux	-1	1	p	0.6022200000000001
149.35199999999998	0.0	[response]	17	noun	list	3	15	nomatch	mieux	-1	1	p	0.6022200000000001
151.14889999999997	0.0	+	18	verb	list	2	1	match	beau	4	1	y	0.647
151.69850000000002	0.2	ldsnkt	18	verb	list	2	2	match	beau	4	1	y	0.647
151.89839999999998	0.0	+	18	verb	list	2	3	match	beau	4	1	y	0.647
152.2982	0.2	cfhm	18	verb	list	2	4	match	beau	4	1	y	0.647
152.49810000000002	0.0	+	18	verb	list	2	5	match	beau	4	1	y	0.647
152.89800000000002	0.2	kw	18	verb	list	2	6	match	beau	4	1	y	0.647
153.09789999999998	0.0	+	18	verb	list	2	7	match	beau	4	1	y	0.647
153.4977	0.2	beau	18	verb	list	2	8	match	beau	4	1	y	0.647
153.6977	0.0	+	18	verb	list	2	9	match	beau	4	1	y	0.647
154.0974	0.2	chasser	18	verb	list	2	10	match	beau	4	1	y	0.647
154.29739999999998	0.0	+	18	verb	list	2	11	match	beau	4	1	y	0.647
154.6972	0.0	+	18	verb	list	2	12	match	beau	4	1	y	0.647
156.6963	0.0	BEAU	18	verb	list	2	13	match	beau	4	1	y	0.647
157.39600000000002	0.0	+	18	verb	list	2	14	match	beau	4	1	y	0.647
157.3433	0.0	[response]	18	verb	list	2	15	match	beau	4	1	y	0.647
167.0917	0.0	+	19	verb	list	2	1	nomatch	petit	-1	1	p	1.9534
167.64139999999998	0.2	bwkdx	19	verb	list	2	2	nomatch	petit	-1	1	p	1.9534
167.84140000000002	0.0	+	19	verb	list	2	3	nomatch	petit	-1	1	p	1.9534
168.2412	0.2	dnmw	19	verb	list	2	4	nomatch	petit	-1	1	p	1.9534
168.4411	0.0	+	19	verb	list	2	5	nomatch	petit	-1	1	p	1.9534
168.84089999999998	0.2	vdfh	19	verb	list	2	6	nomatch	petit	-1	1	p	1.9534
169.0408	0.0	+	19	verb	list	2	7	nomatch	petit	-1	1	p	1.9534
169.44060000000002	0.2	nouveau	19	verb	list	2	8	nomatch	petit	-1	1	p	1.9534
169.6406	0.0	+	19	verb	list	2	9	nomatch	petit	-1	1	p	1.9534
170.04039999999998	0.2	nager	19	verb	list	2	10	nomatch	petit	-1	1	p	1.9534
170.2403	0.0	+	19	verb	list	2	11	nomatch	petit	-1	1	p	1.9534
170.64010000000002	0.0	+	19	verb	list	2	12	nomatch	petit	-1	1	p	1.9534
172.63920000000002	0.0	PETIT	19	verb	list	2	13	nomatch	petit	-1	1	p	1.9534
174.65499999999997	0.0	+	19	verb	list	2	14	nomatch	petit	-1	1	p	1.9534
174.5926	0.0	[response]	19	verb	list	2	15	nomatch	petit	-1	1	p	1.9534
175.03820000000002	0.0	+	20	noun	list	4	1	nomatch	paul	-1	1	p	0.8918
175.5879	0.2	vzmw	20	noun	list	4	2	nomatch	paul	-1	1	p	0.8918
175.7878	0.0	+	20	noun	list	4	3	nomatch	paul	-1	1	p	0.8918
176.1877	0.2	jade	20	noun	list	4	4	nomatch	paul	-1	1	p	0.8918
176.38760000000002	0.0	+	20	noun	list	4	5	nomatch	paul	-1	1	p	0.8918
176.7874	0.2	mon	20	noun	list	4	6	nomatch	paul	-1	1	p	0.8918
176.9873	0.0	+	20	noun	list	4	7	nomatch	paul	-1	1	p	0.8918
177.38710000000003	0.2	moins	20	noun	list	4	8	nomatch	paul	-1	1	p	0.8918
177.587	0.0	+	20	noun	list	4	9	nomatch	paul	-1	1	p	0.8918
177.9869	0.2	voilier	20	noun	list	4	10	nomatch	paul	-1	1	p	0.8918
178.1868	0.0	+	20	noun	list	4	11	nomatch	paul	-1	1	p	0.8918
178.58660000000003	0.0	+	20	noun	list	4	12	nomatch	paul	-1	1	p	0.8918
180.58570000000003	0.0	PAUL	20	noun	list	4	13	nomatch	paul	-1	1	p	0.8918
181.5353	0.0	+	20	noun	list	4	14	nomatch	paul	-1	1	p	0.8918
181.47750000000002	0.0	[response]	20	noun	list	4	15	nomatch	paul	-1	1	p	0.8918
182.98470000000003	0.0	+	21	noun	phrase	1	1	nomatch	rocher	-1	1	p	0.95554
183.5344	0.2	mjtzfsv	21	noun	phrase	1	2	nomatch	rocher	-1	1	p	0.95554
183.73430000000002	0.0	+	21	noun	phrase	1	3	nomatch	rocher	-1	1	p	0.95554
184.1347	0.2	vpfm	21	noun	phrase	1	4	nomatch	rocher	-1	1	p	0.95554
184.33410000000003	0.0	+	21	noun	phrase	1	5	nomatch	rocher	-1	1	p	0.95554
184.7339	0.2	jwq	21	noun	phrase	1	6	nomatch	rocher	-1	1	p	0.95554
184.95050000000003	0.0	+	21	noun	phrase	1	7	nomatch	rocher	-1	1	p	0.95554
185.3503	0.2	psbrw	21	noun	phrase	1	8	nomatch	rocher	-1	1	p	0.95554
185.55020000000002	0.0	+	21	noun	phrase	1	9	nomatch	rocher	-1	1	p	0.95554
185.95	0.2	sablier	21	noun	phrase	1	10	nomatch	rocher	-1	1	p	0.95554
186.1499	0.0	+	21	noun	phrase	1	11	nomatch	rocher	-1	1	p	0.95554
186.54970000000003	0.0	+	21	noun	phrase	1	12	nomatch	rocher	-1	1	p	0.95554
188.5489	0.0	ROCHER	21	noun	phrase	1	13	nomatch	rocher	-1	1	p	0.95554
189.56510000000003	0.0	+	21	noun	phrase	1	14	nomatch	rocher	-1	1	p	0.95554
189.50440000000003	0.0	[response]	21	noun	phrase	1	15	nomatch	rocher	-1	1	p	0.95554
190.94780000000003	0.0	+	22	noun	phrase	1	1	nomatch	beaucoup	-1	1	p	0.87384
191.49760000000003	0.2	wnjfl	22	noun	phrase	1	2	nomatch	beaucoup	-1	1	p	0.87384
191.6975	0.0	+	22	noun	phrase	1	3	nomatch	beaucoup	-1	1	p	0.87384
192.09730000000002	0.2	dnmw	22	noun	phrase	1	4	nomatch	beaucoup	-1	1	p	0.87384
192.29720000000003	0.0	+	22	noun	phrase	1	5	nomatch	beaucoup	-1	1	p	0.87384
192.697	0.2	jvp	22	noun	phrase	1	6	nomatch	beaucoup	-1	1	p	0.87384
192.89690000000002	0.0	+	22	noun	phrase	1	7	nomatch	beaucoup	-1	1	p	0.87384
193.29680000000002	0.2	twcs	22	noun	phrase	1	8	nomatch	beaucoup	-1	1	p	0.87384
193.4968	0.0	+	22	noun	phrase	1	9	nomatch	beaucoup	-1	1	p	0.87384
193.8965	0.2	casier	22	noun	phrase	1	10	nomatch	beaucoup	-1	1	p	0.87384
194.09640000000002	0.0	+	22	noun	phrase	1	11	nomatch	beaucoup	-1	1	p	0.87384
194.4964	0.0	+	22	noun	phrase	1	12	nomatch	beaucoup	-1	1	p	0.87384
196.4953	0.0	BEAUCOUP	22	noun	phrase	1	13	nomatch	beaucoup	-1	1	p	0.87384
197.42830000000004	0.0	+	22	noun	phrase	1	14	nomatch	beaucoup	-1	1	p	0.87384
197.36920000000003	0.0	[response]	22	noun	phrase	1	15	nomatch	beaucoup	-1	1	p	0.87384
198.8943	0.0	+	23	verb	phrase	1	1	nomatch	danser	-1	1	p	0.71973
199.44400000000002	0.2	mnbx	23	verb	phrase	1	2	nomatch	danser	-1	1	p	0.71973
199.64390000000003	0.0	+	23	verb	phrase	1	3	nomatch	danser	-1	1	p	0.71973
200.04380000000003	0.2	jvbz	23	verb	phrase	1	4	nomatch	danser	-1	1	p	0.71973
200.2437	0.0	+	23	verb	phrase	1	5	nomatch	danser	-1	1	p	0.71973
200.64350000000002	0.2	vdfh	23	verb	phrase	1	6	nomatch	danser	-1	1	p	0.71973
200.84340000000003	0.0	+	23	verb	phrase	1	7	nomatch	danser	-1	1	p	0.71973
201.2432	0.2	rnhvc	23	verb	phrase	1	8	nomatch	danser	-1	1	p	0.71973
201.4432	0.0	+	23	verb	phrase	1	9	nomatch	danser	-1	1	p	0.71973
201.8431	0.2	parader	23	verb	phrase	1	10	nomatch	danser	-1	1	p	0.71973
202.043	0.0	+	23	verb	phrase	1	11	nomatch	danser	-1	1	p	0.71973
202.4427	0.0	+	23	verb	phrase	1	12	nomatch	danser	-1	1	p	0.71973
204.4418	0.0	DANSER	23	verb	phrase	1	13	nomatch	danser	-1	1	p	0.71973
205.22480000000002	0.0	+	23	verb	phrase	1	14	nomatch	danser	-1	1	p	0.71973
205.16160000000002	0.0	[response]	23	verb	phrase	1	15	nomatch	danser	-1	1	p	0.71973
206.8408	0.0	+	24	noun	list	3	1	nomatch	boîtier	-1	0	y	1.8713
207.39050000000003	0.2	kvcrxfw	24	noun	list	3	2	nomatch	boîtier	-1	0	y	1.8713
207.5904	0.0	+	24	noun	list	3	3	nomatch	boîtier	-1	0	y	1.8713
207.99020000000002	0.2	mqnx	24	noun	list	3	4	nomatch	boîtier	-1	0	y	1.8713
208.1902	0.0	+	24	noun	list	3	5	nomatch	boîtier	-1	0	y	1.8713
208.59000000000003	0.2	leur	24	noun	list	3	6	nomatch	boîtier	-1	0	y	1.8713
208.7899	0.0	+	24	noun	list	3	7	nomatch	boîtier	-1	0	y	1.8713
209.18970000000002	0.2	trop	24	noun	list	3	8	nomatch	boîtier	-1	0	y	1.8713
209.38960000000003	0.0	+	24	noun	list	3	9	nomatch	boîtier	-1	0	y	1.8713
209.7894	0.2	sablier	24	noun	list	3	10	nomatch	boîtier	-1	0	y	1.8713
209.9894	0.0	+	24	noun	list	3	11	nomatch	boîtier	-1	0	y	1.8713
210.38920000000002	0.0	+	24	noun	list	3	12	nomatch	boîtier	-1	0	y	1.8713
212.38830000000002	0.0	BOÎTIER	24	noun	list	3	13	nomatch	boîtier	-1	0	y	1.8713
214.32080000000002	0.0	+	24	noun	list	3	14	nomatch	boîtier	-1	0	y	1.8713
214.25960000000003	0.0	[response]	24	noun	list	3	15	nomatch	boîtier	-1	0	y	1.8713
214.78719999999998	0.0	+	25	noun	list	1	1	match	clavier	5	1	y	0.38863000000000003
215.337	0.2	nbmftqr	25	noun	list	1	2	match	clavier	5	1	y	0.38863000000000003
215.5369	0.0	+	25	noun	list	1	3	match	clavier	5	1	y	0.38863000000000003
215.93670000000003	0.2	mfdt	25	noun	list	1	4	match	clavier	5	1	y	0.38863000000000003
216.1366	0.0	+	25	noun	list	1	5	match	clavier	5	1	y	0.38863000000000003
216.5365	0.2	vdfh	25	noun	list	1	6	match	clavier	5	1	y	0.38863000000000003
216.7364	0.0	+	25	noun	list	1	7	match	clavier	5	1	y	0.38863000000000003
217.13620000000003	0.2	fphn	25	noun	list	1	8	match	clavier	5	1	y	0.38863000000000003
217.3361	0.0	+	25	noun	list	1	9	match	clavier	5	1	y	0.38863000000000003
217.73590000000002	0.2	clavier	25	noun	list	1	10	match	clavier	5	1	y	0.38863000000000003
217.93580000000003	0.0	+	25	noun	list	1	11	match	clavier	5	1	y	0.38863000000000003
218.33570000000003	0.0	+	25	noun	list	1	12	match	clavier	5	1	y	0.38863000000000003
220.33480000000003	0.0	CLAVIER	25	noun	list	1	13	match	clavier	5	1	y	0.38863000000000003
220.7846	0.0	+	25	noun	list	1	14	match	clavier	5	1	y	0.38863000000000003
220.72340000000003	0.0	[response]	25	noun	list	1	15	match	clavier	5	1	y	0.38863000000000003
222.7504	0.0	+	26	noun	list	1	1	nomatch	va	-1	1	p	0.8353
223.3001	0.2	mntvbrd	26	noun	list	1	2	nomatch	va	-1	1	p	0.8353
223.50010000000003	0.0	+	26	noun	list	1	3	nomatch	va	-1	1	p	0.8353
223.8999	0.2	dgtf	26	noun	list	1	4	nomatch	va	-1	1	p	0.8353
224.09980000000002	0.0	+	26	noun	list	1	5	nomatch	va	-1	1	p	0.8353
224.4996	0.2	gkpq	26	noun	list	1	6	nomatch	va	-1	1	p	0.8353
224.6995	0.0	+	26	noun	list	1	7	nomatch	va	-1	1	p	0.8353
225.0994	0.2	csjvltx	26	noun	list	1	8	nomatch	va	-1	1	p	0.8353
225.29919999999998	0.0	+	26	noun	list	1	9	nomatch	va	-1	1	p	0.8353
225.6991	0.2	beaucoup	26	noun	list	1	10	nomatch	va	-1	1	p	0.8353
225.899	0.0	+	26	noun	list	1	11	nomatch	va	-1	1	p	0.8353
226.29880000000003	0.0	+	26	noun	list	1	12	nomatch	va	-1	1	p	0.8353
228.29790000000003	0.0	VA	26	noun	list	1	13	nomatch	va	-1	1	p	0.8353
229.1977	0.0	+	26	noun	list	1	14	nomatch	va	-1	1	p	0.8353
229.13320000000004	0.0	[response]	26	noun	list	1	15	nomatch	va	-1	1	p	0.8353
230.69690000000003	0.0	+	27	verb	list	4	1	match	danser	4	1	y	0.73749
231.2466	0.2	jxs	27	verb	list	4	2	match	danser	4	1	y	0.73749
231.44650000000001	0.0	+	27	verb	list	4	3	match	danser	4	1	y	0.73749
231.84629999999999	0.2	paul	27	verb	list	4	4	match	danser	4	1	y	0.73749
232.0464	0.0	+	27	verb	list	4	5	match	danser	4	1	y	0.73749
232.4461	0.2	son	27	verb	list	4	6	match	danser	4	1	y	0.73749
232.64600000000002	0.0	+	27	verb	list	4	7	match	danser	4	1	y	0.73749
233.04579999999999	0.2	danser	27	verb	list	4	8	match	danser	4	1	y	0.73749
233.2457	0.0	+	27	verb	list	4	9	match	danser	4	1	y	0.73749
233.64550000000003	0.2	bleu	27	verb	list	4	10	match	danser	4	1	y	0.73749
233.84550000000002	0.0	+	27	verb	list	4	11	match	danser	4	1	y	0.73749
234.2453	0.0	+	27	verb	list	4	12	match	danser	4	1	y	0.73749
236.24439999999998	0.0	DANSER	27	verb	list	4	13	match	danser	4	1	y	0.73749
237.04400000000004	0.0	+	27	verb	list	4	14	match	danser	4	1	y	0.73749
236.98190000000005	0.0	[response]	27	verb	list	4	15	match	danser	4	1	y	0.73749
238.6433	0.0	+	28	verb	phrase	3	1	nomatch	chasser	-1	1	p	0.6609000000000002
239.19310000000002	0.2	hscxvzb	28	verb	phrase	3	2	nomatch	chasser	-1	1	p	0.6609000000000002
239.39300000000003	0.0	+	28	verb	phrase	3	3	nomatch	chasser	-1	1	p	0.6609000000000002
239.7928	0.2	jdlv	28	verb	phrase	3	4	nomatch	chasser	-1	1	p	0.6609000000000002
239.9928	0.0	+	28	verb	phrase	3	5	nomatch	chasser	-1	1	p	0.6609000000000002
240.39260000000002	0.2	va	28	verb	phrase	3	6	nomatch	chasser	-1	1	p	0.6609000000000002
240.59250000000003	0.0	+	28	verb	phrase	3	7	nomatch	chasser	-1	1	p	0.6609000000000002
240.9923	0.2	voyager	28	verb	phrase	3	8	nomatch	chasser	-1	1	p	0.6609000000000002
241.1922	0.0	+	28	verb	phrase	3	9	nomatch	chasser	-1	1	p	0.6609000000000002
241.59199999999998	0.2	tard	28	verb	phrase	3	10	nomatch	chasser	-1	1	p	0.6609000000000002
241.7919	0.0	+	28	verb	phrase	3	11	nomatch	chasser	-1	1	p	0.6609000000000002
242.1918	0.0	+	28	verb	phrase	3	12	nomatch	chasser	-1	1	p	0.6609000000000002
244.1909	0.0	CHASSER	28	verb	phrase	3	13	nomatch	chasser	-1	1	p	0.6609000000000002
244.9072	0.0	+	28	verb	phrase	3	14	nomatch	chasser	-1	1	p	0.6609000000000002
244.85180000000003	0.0	[response]	28	verb	phrase	3	15	nomatch	chasser	-1	1	p	0.6609000000000002
246.58980000000003	0.0	+	29	noun	phrase	2	1	match	noir	5	1	y	0.57719
247.13960000000003	0.2	gqxznk	29	noun	phrase	2	2	match	noir	5	1	y	0.57719
247.3395	0.0	+	29	noun	phrase	2	3	match	noir	5	1	y	0.57719
247.73930000000001	0.2	cxgm	29	noun	phrase	2	4	match	noir	5	1	y	0.57719
247.93920000000003	0.0	+	29	noun	phrase	2	5	match	noir	5	1	y	0.57719
248.339	0.2	gkpq	29	noun	phrase	2	6	match	noir	5	1	y	0.57719
248.539	0.0	+	29	noun	phrase	2	7	match	noir	5	1	y	0.57719
248.9393	0.2	rocher	29	noun	phrase	2	8	match	noir	5	1	y	0.57719
249.13870000000003	0.0	+	29	noun	phrase	2	9	match	noir	5	1	y	0.57719
249.5385	0.2	noir	29	noun	phrase	2	10	match	noir	5	1	y	0.57719
249.7384	0.0	+	29	noun	phrase	2	11	match	noir	5	1	y	0.57719
250.13830000000002	0.0	+	29	noun	phrase	2	12	match	noir	5	1	y	0.57719
252.1374	0.0	NOIR	29	noun	phrase	2	13	match	noir	5	1	y	0.57719
252.7704	0.0	+	29	noun	phrase	2	14	match	noir	5	1	y	0.57719
252.71460000000002	0.0	[response]	29	noun	phrase	2	15	match	noir	5	1	y	0.57719
254.53629999999998	0.0	+	30	noun	list	1	1	match	ainsi	5	1	y	0.72383
255.0861	0.2	wlzjqk	30	noun	list	1	2	match	ainsi	5	1	y	0.72383
255.286	0.0	+	30	noun	list	1	3	match	ainsi	5	1	y	0.72383
255.68580000000003	0.2	dnmw	30	noun	list	1	4	match	ainsi	5	1	y	0.72383
255.88569999999999	0.0	+	30	noun	list	1	5	match	ainsi	5	1	y	0.72383
256.2855	0.2	qgfj	30	noun	list	1	6	match	ainsi	5	1	y	0.72383
256.4854	0.0	+	30	noun	list	1	7	match	ainsi	5	1	y	0.72383
256.88530000000003	0.2	cjfvpqbs	30	noun	list	1	8	match	ainsi	5	1	y	0.72383
257.0852	0.0	+	30	noun	list	1	9	match	ainsi	5	1	y	0.72383
257.485	0.2	ainsi	30	noun	list	1	10	match	ainsi	5	1	y	0.72383
257.6849	0.0	+	30	noun	list	1	11	match	ainsi	5	1	y	0.72383
258.0847	0.0	+	30	noun	list	1	12	match	ainsi	5	1	y	0.72383
260.1005	0.0	AINSI	30	noun	list	1	13	match	ainsi	5	1	y	0.72383
260.8835	0.0	+	30	noun	list	1	14	match	ainsi	5	1	y	0.72383
260.8243	0.0	[response]	30	noun	list	1	15	match	ainsi	5	1	y	0.72383
262.4995	0.0	+	31	noun	phrase	1	1	nomatch	sablier	-1	1	p	1.1380000000000001
263.0492	0.2	mfbpqc	31	noun	phrase	1	2	nomatch	sablier	-1	1	p	1.1380000000000001
263.2491	0.0	+	31	noun	phrase	1	3	nomatch	sablier	-1	1	p	1.1380000000000001
263.649	0.2	bldw	31	noun	phrase	1	4	nomatch	sablier	-1	1	p	1.1380000000000001
263.8489	0.0	+	31	noun	phrase	1	5	nomatch	sablier	-1	1	p	1.1380000000000001
264.2487	0.2	jvp	31	noun	phrase	1	6	nomatch	sablier	-1	1	p	1.1380000000000001
264.4486	0.0	+	31	noun	phrase	1	7	nomatch	sablier	-1	1	p	1.1380000000000001
264.8484	0.2	rxlhqcw	31	noun	phrase	1	8	nomatch	sablier	-1	1	p	1.1380000000000001
265.0483	0.0	+	31	noun	phrase	1	9	nomatch	sablier	-1	1	p	1.1380000000000001
265.4481	0.2	tablier	31	noun	phrase	1	10	nomatch	sablier	-1	1	p	1.1380000000000001
265.648	0.0	+	31	noun	phrase	1	11	nomatch	sablier	-1	1	p	1.1380000000000001
266.0479	0.0	+	31	noun	phrase	1	12	nomatch	sablier	-1	1	p	1.1380000000000001
268.047	0.0	SABLIER	31	noun	phrase	1	13	nomatch	sablier	-1	1	p	1.1380000000000001
269.2465	0.0	+	31	noun	phrase	1	14	nomatch	sablier	-1	1	p	1.1380000000000001
269.185	0.0	[response]	31	noun	phrase	1	15	nomatch	sablier	-1	1	p	1.1380000000000001
270.4459	0.0	+	32	noun	phrase	3	1	match	clavier	4	1	y	0.50681
270.9957	0.2	rnp	32	noun	phrase	3	2	match	clavier	4	1	y	0.50681
271.1956	0.0	+	32	noun	phrase	3	3	match	clavier	4	1	y	0.50681
271.5954	0.2	vpfm	32	noun	phrase	3	4	match	clavier	4	1	y	0.50681
271.7953	0.0	+	32	noun	phrase	3	5	match	clavier	4	1	y	0.50681
272.1951	0.2	son	32	noun	phrase	3	6	match	clavier	4	1	y	0.50681
272.3951	0.0	+	32	noun	phrase	3	7	match	clavier	4	1	y	0.50681
272.7949	0.2	clavier	32	noun	phrase	3	8	match	clavier	4	1	y	0.50681
272.9948	0.0	+	32	noun	phrase	3	9	match	clavier	4	1	y	0.50681
273.3947	0.2	noir	32	noun	phrase	3	10	match	clavier	4	1	y	0.50681
273.59450000000004	0.0	+	32	noun	phrase	3	11	match	clavier	4	1	y	0.50681
273.9944	0.0	+	32	noun	phrase	3	12	match	clavier	4	1	y	0.50681
275.9935	0.0	CLAVIER	32	noun	phrase	3	13	match	clavier	4	1	y	0.50681
276.5599	0.0	+	32	noun	phrase	3	14	match	clavier	4	1	y	0.50681
276.50030000000004	0.0	[response]	32	noun	phrase	3	15	match	clavier	4	1	y	0.50681
278.3924	0.0	+	33	noun	phrase	4	1	nomatch	doit	-1	1	p	0.71096
278.9422	0.2	rlw	33	noun	phrase	4	2	nomatch	doit	-1	1	p	0.71096
279.1421	0.0	+	33	noun	phrase	4	3	nomatch	doit	-1	1	p	0.71096
279.5419	0.2	pour	33	noun	phrase	4	4	nomatch	doit	-1	1	p	0.71096
279.7418	0.0	+	33	noun	phrase	4	5	nomatch	doit	-1	1	p	0.71096
280.14160000000004	0.2	mon	33	noun	phrase	4	6	nomatch	doit	-1	1	p	0.71096
280.3415	0.0	+	33	noun	phrase	4	7	nomatch	doit	-1	1	p	0.71096
280.7414	0.2	casier	33	noun	phrase	4	8	nomatch	doit	-1	1	p	0.71096
280.9413	0.0	+	33	noun	phrase	4	9	nomatch	doit	-1	1	p	0.71096
281.3411	0.2	blanc	33	noun	phrase	4	10	nomatch	doit	-1	1	p	0.71096
281.541	0.0	+	33	noun	phrase	4	11	nomatch	doit	-1	1	p	0.71096
281.9408	0.0	+	33	noun	phrase	4	12	nomatch	doit	-1	1	p	0.71096
283.9399	0.0	DOIT	33	noun	phrase	4	13	nomatch	doit	-1	1	p	0.71096
284.7063	0.0	+	33	noun	phrase	4	14	nomatch	doit	-1	1	p	0.71096
284.65090000000004	0.0	[response]	33	noun	phrase	4	15	nomatch	doit	-1	1	p	0.71096
302.3485	0.0	+	34	noun	list	3	1	nomatch	peut	-1	1	p	0.76476
302.89820000000003	0.2	vwpg	34	noun	list	3	2	nomatch	peut	-1	1	p	0.76476
303.0981	0.0	+	34	noun	list	3	3	nomatch	peut	-1	1	p	0.76476
303.498	0.2	bldw	34	noun	list	3	4	nomatch	peut	-1	1	p	0.76476
303.6979	0.0	+	34	noun	list	3	5	nomatch	peut	-1	1	p	0.76476
304.09770000000003	0.2	va	34	noun	list	3	6	nomatch	peut	-1	1	p	0.76476
304.2976	0.0	+	34	noun	list	3	7	nomatch	peut	-1	1	p	0.76476
304.6974	0.2	rocher	34	noun	list	3	8	nomatch	peut	-1	1	p	0.76476
304.89730000000003	0.0	+	34	noun	list	3	9	nomatch	peut	-1	1	p	0.76476
305.29720000000003	0.2	tard	34	noun	list	3	10	nomatch	peut	-1	1	p	0.76476
305.4971	0.0	+	34	noun	list	3	11	nomatch	peut	-1	1	p	0.76476
305.8969	0.0	+	34	noun	list	3	12	nomatch	peut	-1	1	p	0.76476
307.896	0.0	PEUT	34	noun	list	3	13	nomatch	peut	-1	1	p	0.76476
308.7123	0.0	+	34	noun	list	3	14	nomatch	peut	-1	1	p	0.76476
308.6608	0.0	[response]	34	noun	list	3	15	nomatch	peut	-1	1	p	0.76476
334.28430000000003	0.0	+	35	noun	phrase	1	1	nomatch	sans	-1	0	TIMEOUT	-1.0
334.83410000000003	0.2	wxvs	35	noun	phrase	1	2	nomatch	sans	-1	0	TIMEOUT	-1.0
335.034	0.0	+	35	noun	phrase	1	3	nomatch	sans	-1	0	TIMEOUT	-1.0
335.45050000000003	0.2	vpfm	35	noun	phrase	1	4	nomatch	sans	-1	0	TIMEOUT	-1.0
335.6504	0.0	+	35	noun	phrase	1	5	nomatch	sans	-1	0	TIMEOUT	-1.0
336.0502	0.2	gkpq	35	noun	phrase	1	6	nomatch	sans	-1	0	TIMEOUT	-1.0
336.25010000000003	0.0	+	35	noun	phrase	1	7	nomatch	sans	-1	0	TIMEOUT	-1.0
336.6499	0.2	rlhdn	35	noun	phrase	1	8	nomatch	sans	-1	0	TIMEOUT	-1.0
336.8499	0.0	+	35	noun	phrase	1	9	nomatch	sans	-1	0	TIMEOUT	-1.0
337.2497	0.2	cendrier	35	noun	phrase	1	10	nomatch	sans	-1	0	TIMEOUT	-1.0
337.44960000000003	0.0	+	35	noun	phrase	1	11	nomatch	sans	-1	0	TIMEOUT	-1.0
337.8494	0.0	+	35	noun	phrase	1	12	nomatch	sans	-1	0	TIMEOUT	-1.0
339.84860000000003	0.0	SANS	35	noun	phrase	1	13	nomatch	sans	-1	0	TIMEOUT	-1.0
342.2475	0.0	+	36	noun	list	2	1	nomatch	trop	-1	1	p	0.79538
342.8472	0.2	tmkg	36	noun	list	2	2	nomatch	trop	-1	1	p	0.79538
343.0471	0.0	+	36	noun	list	2	3	nomatch	trop	-1	1	p	0.79538
343.4469	0.2	dgtf	36	noun	list	2	4	nomatch	trop	-1	1	p	0.79538
343.6468	0.0	+	36	noun	list	2	5	nomatch	trop	-1	1	p	0.79538
344.0467	0.2	jwq	36	noun	list	2	6	nomatch	trop	-1	1	p	0.79538
344.2466	0.0	+	36	noun	list	2	7	nomatch	trop	-1	1	p	0.79538
344.6464	0.2	plus	36	noun	list	2	8	nomatch	trop	-1	1	p	0.79538
344.8463	0.0	+	36	noun	list	2	9	nomatch	trop	-1	1	p	0.79538
345.2461	0.2	tablier	36	noun	list	2	10	nomatch	trop	-1	1	p	0.79538
345.446	0.0	+	36	noun	list	2	11	nomatch	trop	-1	1	p	0.79538
345.84590000000003	0.0	+	36	noun	list	2	12	nomatch	trop	-1	1	p	0.79538
347.84520000000003	0.0	TROP	36	noun	list	2	13	nomatch	trop	-1	1	p	0.79538
348.69460000000004	0.0	+	36	noun	list	2	14	nomatch	trop	-1	1	p	0.79538
348.64060000000006	0.0	[response]	36	noun	list	2	15	nomatch	trop	-1	1	p	0.79538
358.2404	0.0	+	37	verb	phrase	3	1	match	va	3	0	p	0.6753600000000001
358.7901	0.2	nlfx	37	verb	phrase	3	2	match	va	3	0	p	0.6753600000000001
358.9901	0.0	+	37	verb	phrase	3	3	match	va	3	0	p	0.6753600000000001
359.3899	0.2	jdlv	37	verb	phrase	3	4	match	va	3	0	p	0.6753600000000001
359.5898	0.0	+	37	verb	phrase	3	5	match	va	3	0	p	0.6753600000000001
359.9896	0.2	va	37	verb	phrase	3	6	match	va	3	0	p	0.6753600000000001
360.1895	0.0	+	37	verb	phrase	3	7	match	va	3	0	p	0.6753600000000001
360.58930000000004	0.2	nager	37	verb	phrase	3	8	match	va	3	0	p	0.6753600000000001
360.7893	0.0	+	37	verb	phrase	3	9	match	va	3	0	p	0.6753600000000001
361.1891	0.2	vite	37	verb	phrase	3	10	match	va	3	0	p	0.6753600000000001
361.389	0.0	+	37	verb	phrase	3	11	match	va	3	0	p	0.6753600000000001
361.78880000000004	0.0	+	37	verb	phrase	3	12	match	va	3	0	p	0.6753600000000001
363.78790000000004	0.0	VA	37	verb	phrase	3	13	match	va	3	0	p	0.6753600000000001
364.5209	0.0	+	37	verb	phrase	3	14	match	va	3	0	p	0.6753600000000001
364.4633	0.0	[response]	37	verb	phrase	3	15	match	va	3	0	p	0.6753600000000001
366.18690000000004	0.0	+	38	verb	list	4	1	match	parader	4	1	y	0.61929
366.7366	0.2	qvlfcsr	38	verb	list	4	2	match	parader	4	1	y	0.61929
366.9365	0.0	+	38	verb	list	4	3	match	parader	4	1	y	0.61929
367.3364	0.2	yves	38	verb	list	4	4	match	parader	4	1	y	0.61929
367.5363	0.0	+	38	verb	list	4	5	match	parader	4	1	y	0.61929
367.9361	0.2	son	38	verb	list	4	6	match	parader	4	1	y	0.61929
368.136	0.0	+	38	verb	list	4	7	match	parader	4	1	y	0.61929
368.5358	0.2	parader	38	verb	list	4	8	match	parader	4	1	y	0.61929
368.7357	0.0	+	38	verb	list	4	9	match	parader	4	1	y	0.61929
369.1356	0.2	blanc	38	verb	list	4	10	match	parader	4	1	y	0.61929
369.3355	0.0	+	38	verb	list	4	11	match	parader	4	1	y	0.61929
369.7353	0.0	+	38	verb	list	4	12	match	parader	4	1	y	0.61929
371.7344	0.0	PARADER	38	verb	list	4	13	match	parader	4	1	y	0.61929
372.4174	0.0	+	38	verb	list	4	14	match	parader	4	1	y	0.61929
372.3537	0.0	[response]	38	verb	list	4	15	match	parader	4	1	y	0.61929
374.15000000000003	0.0	+	39	noun	list	1	1	nomatch	mieux	-1	1	p	0.91319
374.69980000000004	0.2	sdx	39	noun	list	1	2	nomatch	mieux	-1	1	p	0.91319
374.8997	0.0	+	39	noun	list	1	3	nomatch	mieux	-1	1	p	0.91319
375.2995	0.2	vdsk	39	noun	list	1	4	nomatch	mieux	-1	1	p	0.91319
375.49940000000004	0.0	+	39	noun	list	1	5	nomatch	mieux	-1	1	p	0.91319
375.8992	0.2	jvp	39	noun	list	1	6	nomatch	mieux	-1	1	p	0.91319
376.0991	0.0	+	39	noun	list	1	7	nomatch	mieux	-1	1	p	0.91319
376.499	0.2	cjfvpqbs	39	noun	list	1	8	nomatch	mieux	-1	1	p	0.91319
376.69890000000004	0.0	+	39	noun	list	1	9	nomatch	mieux	-1	1	p	0.91319
377.0987	0.2	trop	39	noun	list	1	10	nomatch	mieux	-1	1	p	0.91319
377.2986	0.0	+	39	noun	list	1	11	nomatch	mieux	-1	1	p	0.91319
377.6984	0.0	+	39	noun	list	1	12	nomatch	mieux	-1	1	p	0.91319
379.6975	0.0	MIEUX	39	noun	list	1	13	nomatch	mieux	-1	1	p	0.91319
380.66380000000004	0.0	+	39	noun	list	1	14	nomatch	mieux	-1	1	p	0.91319
380.6107	0.0	[response]	39	noun	list	1	15	nomatch	mieux	-1	1	p	0.91319
382.0965	0.0	+	40	noun	list	1	1	nomatch	moins	-1	1	p	0.6717500000000001
382.6462	0.2	wlz	40	noun	list	1	2	nomatch	moins	-1	1	p	0.6717500000000001
382.8462	0.0	+	40	noun	list	1	3	nomatch	moins	-1	1	p	0.6717500000000001
383.24600000000004	0.2	bcs	40	noun	list	1	4	nomatch	moins	-1	1	p	0.6717500000000001
383.4459	0.0	+	40	noun	list	1	5	nomatch	moins	-1	1	p	0.6717500000000001
383.8457	0.2	jwq	40	noun	list	1	6	nomatch	moins	-1	1	p	0.6717500000000001
384.04560000000004	0.0	+	40	noun	list	1	7	nomatch	moins	-1	1	p	0.6717500000000001
384.4454	0.2	txwfg	40	noun	list	1	8	nomatch	moins	-1	1	p	0.6717500000000001
384.6454	0.0	+	40	noun	list	1	9	nomatch	moins	-1	1	p	0.6717500000000001
385.0452	0.2	boîtier	40	noun	list	1	10	nomatch	moins	-1	1	p	0.6717500000000001
385.24510000000004	0.0	+	40	noun	list	1	11	nomatch	moins	-1	1	p	0.6717500000000001
385.6449	0.0	+	40	noun	list	1	12	nomatch	moins	-1	1	p	0.6717500000000001
387.644	0.0	MOINS	40	noun	list	1	13	nomatch	moins	-1	1	p	0.6717500000000001
388.377	0.0	+	40	noun	list	1	14	nomatch	moins	-1	1	p	0.6717500000000001
388.3158000000001	0.0	[response]	40	noun	list	1	15	nomatch	moins	-1	1	p	0.6717500000000001
398.0394	0.0	+	41	verb	list	3	1	nomatch	plonger	-1	1	p	1.1243000000000003
398.5892	0.2	cwxk	41	verb	list	3	2	nomatch	plonger	-1	1	p	1.1243000000000003
398.7891	0.0	+	41	verb	list	3	3	nomatch	plonger	-1	1	p	1.1243000000000003
399.1889	0.2	cxgm	41	verb	list	3	4	nomatch	plonger	-1	1	p	1.1243000000000003
399.3888	0.0	+	41	verb	list	3	5	nomatch	plonger	-1	1	p	1.1243000000000003
399.7887	0.2	doit	41	verb	list	3	6	nomatch	plonger	-1	1	p	1.1243000000000003
399.9886	0.0	+	41	verb	list	3	7	nomatch	plonger	-1	1	p	1.1243000000000003
400.3884	0.2	nouveau	41	verb	list	3	8	nomatch	plonger	-1	1	p	1.1243000000000003
400.58840000000004	0.0	+	41	verb	list	3	9	nomatch	plonger	-1	1	p	1.1243000000000003
400.98810000000003	0.2	voyager	41	verb	list	3	10	nomatch	plonger	-1	1	p	1.1243000000000003
401.188	0.0	+	41	verb	list	3	11	nomatch	plonger	-1	1	p	1.1243000000000003
401.5879	0.0	+	41	verb	list	3	12	nomatch	plonger	-1	1	p	1.1243000000000003
403.587	0.0	PLONGER	41	verb	list	3	13	nomatch	plonger	-1	1	p	1.1243000000000003
404.76980000000003	0.0	+	41	verb	list	3	14	nomatch	plonger	-1	1	p	1.1243000000000003
404.7113	0.0	[response]	41	verb	list	3	15	nomatch	plonger	-1	1	p	1.1243000000000003
405.9859	0.0	+	42	verb	phrase	1	1	match	chasser	5	1	y	1.2029
406.5357	0.2	jxvmpz	42	verb	phrase	1	2	match	chasser	5	1	y	1.2029
406.73560000000003	0.0	+	42	verb	phrase	1	3	match	chasser	5	1	y	1.2029
407.1354	0.2	mqnx	42	verb	phrase	1	4	match	chasser	5	1	y	1.2029
407.3353	0.0	+	42	verb	phrase	1	5	match	chasser	5	1	y	1.2029
407.7351	0.2	kw	42	verb	phrase	1	6	match	chasser	5	1	y	1.2029
407.9352	0.0	+	42	verb	phrase	1	7	match	chasser	5	1	y	1.2029
408.3349	0.2	fphn	42	verb	phrase	1	8	match	chasser	5	1	y	1.2029
408.5348	0.0	+	42	verb	phrase	1	9	match	chasser	5	1	y	1.2029
408.9347	0.2	chasser	42	verb	phrase	1	10	match	chasser	5	1	y	1.2029
409.1345	0.0	+	42	verb	phrase	1	11	match	chasser	5	1	y	1.2029
409.53430000000003	0.0	+	42	verb	phrase	1	12	match	chasser	5	1	y	1.2029
411.5501	0.0	CHASSER	42	verb	phrase	1	13	match	chasser	5	1	y	1.2029
412.81620000000004	0.0	+	42	verb	phrase	1	14	match	chasser	5	1	y	1.2029
412.753	0.0	[response]	42	verb	phrase	1	15	match	chasser	5	1	y	1.2029
413.9491	0.0	+	43	noun	list	4	1	match	marc	2	1	y	0.75233
414.4988	0.2	pdqj	43	noun	list	4	2	match	marc	2	1	y	0.75233
414.6988	0.0	+	43	noun	list	4	3	match	marc	2	1	y	0.75233
415.0985	0.2	marc	43	noun	list	4	4	match	marc	2	1	y	0.75233
415.2985	0.0	+	43	noun	list	4	5	match	marc	2	1	y	0.75233
415.6983	0.2	leur	43	noun	list	4	6	match	marc	2	1	y	0.75233
415.89820000000003	0.0	+	43	noun	list	4	7	match	marc	2	1	y	0.75233
416.298	0.2	mieux	43	noun	list	4	8	match	marc	2	1	y	0.75233
416.4979	0.0	+	43	noun	list	4	9	match	marc	2	1	y	0.75233
416.8977	0.2	sablier	43	noun	list	4	10	match	marc	2	1	y	0.75233
417.09770000000003	0.0	+	43	noun	list	4	11	match	marc	2	1	y	0.75233
417.4975	0.0	+	43	noun	list	4	12	match	marc	2	1	y	0.75233
419.4966	0.0	MARC	43	noun	list	4	13	match	marc	2	1	y	0.75233
420.3129	0.0	+	43	noun	list	4	14	match	marc	2	1	y	0.75233
420.2489	0.0	[response]	43	noun	list	4	15	match	marc	2	1	y	0.75233
421.8955	0.0	+	44	verb	list	3	1	match	beau	4	1	y	0.89204
422.44530000000003	0.2	cxqdm	44	verb	list	3	2	match	beau	4	1	y	0.89204
422.6452	0.0	+	44	verb	list	3	3	match	beau	4	1	y	0.89204
423.045	0.2	cfhm	44	verb	list	3	4	match	beau	4	1	y	0.89204
423.24490000000003	0.0	+	44	verb	list	3	5	match	beau	4	1	y	0.89204
423.64480000000003	0.2	va	44	verb	list	3	6	match	beau	4	1	y	0.89204
423.8447	0.0	+	44	verb	list	3	7	match	beau	4	1	y	0.89204
424.2445	0.2	beau	44	verb	list	3	8	match	beau	4	1	y	0.89204
424.44440000000003	0.0	+	44	verb	list	3	9	match	beau	4	1	y	0.89204
424.8442	0.2	plonger	44	verb	list	3	10	match	beau	4	1	y	0.89204
425.0441	0.0	+	44	verb	list	3	11	match	beau	4	1	y	0.89204
425.444	0.0	+	44	verb	list	3	12	match	beau	4	1	y	0.89204
427.4431	0.0	BEAU	44	verb	list	3	13	match	beau	4	1	y	0.89204
428.3926	0.0	+	44	verb	list	3	14	match	beau	4	1	y	0.89204
428.33510000000007	0.0	[response]	44	verb	list	3	15	match	beau	4	1	y	0.89204
429.842	0.0	+	45	verb	phrase	1	1	match	chasser	5	1	y	1.0841
430.3918	0.2	cvjtb	45	verb	phrase	1	2	match	chasser	5	1	y	1.0841
430.5917	0.0	+	45	verb	phrase	1	3	match	chasser	5	1	y	1.0841
430.99150000000003	0.2	vdsk	45	verb	phrase	1	4	match	chasser	5	1	y	1.0841
431.1914	0.0	+	45	verb	phrase	1	5	match	chasser	5	1	y	1.0841
431.5912	0.2	kw	45	verb	phrase	1	6	match	chasser	5	1	y	1.0841
431.7911	0.0	+	45	verb	phrase	1	7	match	chasser	5	1	y	1.0841
432.191	0.2	cwmn	45	verb	phrase	1	8	match	chasser	5	1	y	1.0841
432.39090000000004	0.0	+	45	verb	phrase	1	9	match	chasser	5	1	y	1.0841
432.79069999999996	0.2	chasser	45	verb	phrase	1	10	match	chasser	5	1	y	1.0841
432.99060000000003	0.0	+	45	verb	phrase	1	11	match	chasser	5	1	y	1.0841
433.39040000000006	0.0	+	45	verb	phrase	1	12	match	chasser	5	1	y	1.0841
435.38960000000003	0.0	CHASSER	45	verb	phrase	1	13	match	chasser	5	1	y	1.0841
436.53900000000004	0.0	+	45	verb	phrase	1	14	match	chasser	5	1	y	1.0841
436.47370000000006	0.0	[response]	45	verb	phrase	1	15	match	chasser	5	1	y	1.0841
437.78850000000006	0.0	+	46	verb	phrase	1	1	match	plonger	5	0	p	1.7116
438.3382	0.2	jbclhf	46	verb	phrase	1	2	match	plonger	5	0	p	1.7116
438.5382	0.0	+	46	verb	phrase	1	3	match	plonger	5	0	p	1.7116
438.93800000000005	0.2	jvbz	46	verb	phrase	1	4	match	plonger	5	0	p	1.7116
439.1379	0.0	+	46	verb	phrase	1	5	match	plonger	5	0	p	1.7116
439.53770000000003	0.2	qgfj	46	verb	phrase	1	6	match	plonger	5	0	p	1.7116
439.7376	0.0	+	46	verb	phrase	1	7	match	plonger	5	0	p	1.7116
440.1375	0.2	txwfg	46	verb	phrase	1	8	match	plonger	5	0	p	1.7116
440.33740000000006	0.0	+	46	verb	phrase	1	9	match	plonger	5	0	p	1.7116
440.7372	0.2	plonger	46	verb	phrase	1	10	match	plonger	5	0	p	1.7116
440.93710000000004	0.0	+	46	verb	phrase	1	11	match	plonger	5	0	p	1.7116
441.33689999999996	0.0	+	46	verb	phrase	1	12	match	plonger	5	0	p	1.7116
443.33599999999996	0.0	PLONGER	46	verb	phrase	1	13	match	plonger	5	0	p	1.7116
445.10190000000006	0.0	+	46	verb	phrase	1	14	match	plonger	5	0	p	1.7116
445.04760000000005	0.0	[response]	46	verb	phrase	1	15	match	plonger	5	0	p	1.7116
445.73499999999996	0.0	+	47	verb	list	4	1	match	grand	4	1	y	0.6788
446.2847	0.2	bxl	47	verb	list	4	2	match	grand	4	1	y	0.6788
446.48460000000006	0.0	+	47	verb	list	4	3	match	grand	4	1	y	0.6788
446.88450000000006	0.2	dans	47	verb	list	4	4	match	grand	4	1	y	0.6788
447.0844	0.0	+	47	verb	list	4	5	match	grand	4	1	y	0.6788
447.48420000000004	0.2	va	47	verb	list	4	6	match	grand	4	1	y	0.6788
447.6841	0.0	+	47	verb	list	4	7	match	grand	4	1	y	0.6788
448.0839	0.2	grand	47	verb	list	4	8	match	grand	4	1	y	0.6788
448.28389999999996	0.0	+	47	verb	list	4	9	match	grand	4	1	y	0.6788
448.7003	0.2	nager	47	verb	list	4	10	match	grand	4	1	y	0.6788
448.9002	0.0	+	47	verb	list	4	11	match	grand	4	1	y	0.6788
449.3001	0.0	+	47	verb	list	4	12	match	grand	4	1	y	0.6788
451.2992	0.0	GRAND	47	verb	list	4	13	match	grand	4	1	y	0.6788
452.03220000000005	0.0	+	47	verb	list	4	14	match	grand	4	1	y	0.6788
451.9780000000001	0.0	[response]	47	verb	list	4	15	match	grand	4	1	y	0.6788
453.6981	0.0	+	48	noun	phrase	4	1	match	rouge	5	1	y	0.39654
454.2479	0.2	pntcwz	48	noun	phrase	4	2	match	rouge	5	1	y	0.39654
454.4478	0.0	+	48	noun	phrase	4	3	match	rouge	5	1	y	0.39654
454.8476	0.2	sans	48	noun	phrase	4	4	match	rouge	5	1	y	0.39654
455.04749999999996	0.0	+	48	noun	phrase	4	5	match	rouge	5	1	y	0.39654
455.4473	0.2	leur	48	noun	phrase	4	6	match	rouge	5	1	y	0.39654
455.64730000000003	0.0	+	48	noun	phrase	4	7	match	rouge	5	1	y	0.39654
456.04710000000006	0.2	clavier	48	noun	phrase	4	8	match	rouge	5	1	y	0.39654
456.247	0.0	+	48	noun	phrase	4	9	match	rouge	5	1	y	0.39654
456.64680000000004	0.2	rouge	48	noun	phrase	4	10	match	rouge	5	1	y	0.39654
456.8467	0.0	+	48	noun	phrase	4	11	match	rouge	5	1	y	0.39654
457.2465	0.0	+	48	noun	phrase	4	12	match	rouge	5	1	y	0.39654
459.2457	0.0	ROUGE	48	noun	phrase	4	13	match	rouge	5	1	y	0.39654
459.6955	0.0	+	48	noun	phrase	4	14	match	rouge	5	1	y	0.39654
459.64220000000006	0.0	[response]	48	noun	phrase	4	15	match	rouge	5	1	y	0.39654
461.6446	0.0	+	49	verb	list	1	1	match	rouler	5	1	y	0.59596
462.19440000000003	0.2	dqjgxtk	49	verb	list	1	2	match	rouler	5	1	y	0.59596
462.3943	0.0	+	49	verb	list	1	3	match	rouler	5	1	y	0.59596
462.7941	0.2	cxgm	49	verb	list	1	4	match	rouler	5	1	y	0.59596
462.99399999999997	0.0	+	49	verb	list	1	5	match	rouler	5	1	y	0.59596
463.3938	0.2	kw	49	verb	list	1	6	match	rouler	5	1	y	0.59596
463.59369999999996	0.0	+	49	verb	list	1	7	match	rouler	5	1	y	0.59596
463.99359999999996	0.2	psbrw	49	verb	list	1	8	match	rouler	5	1	y	0.59596
464.19350000000003	0.0	+	49	verb	list	1	9	match	rouler	5	1	y	0.59596
464.59330000000006	0.2	rouler	49	verb	list	1	10	match	rouler	5	1	y	0.59596
464.7932	0.0	+	49	verb	list	1	11	match	rouler	5	1	y	0.59596
465.19300000000004	0.0	+	49	verb	list	1	12	match	rouler	5	1	y	0.59596
467.19210000000004	0.0	ROULER	49	verb	list	1	13	match	rouler	5	1	y	0.59596
467.84190000000007	0.0	+	49	verb	list	1	14	match	rouler	5	1	y	0.59596
467.78810000000004	0.0	[response]	49	verb	list	1	15	match	rouler	5	1	y	0.59596
469.59110000000004	0.0	+	50	noun	phrase	1	1	match	beau	5	1	y	0.49563
470.14079999999996	0.2	pcj	50	noun	phrase	1	2	match	beau	5	1	y	0.49563
470.3407	0.0	+	50	noun	phrase	1	3	match	beau	5	1	y	0.49563
470.74060000000003	0.2	mfdt	50	noun	phrase	1	4	match	beau	5	1	y	0.49563
470.9405	0.0	+	50	noun	phrase	1	5	match	beau	5	1	y	0.49563
471.3403	0.2	gkpq	50	noun	phrase	1	6	match	beau	5	1	y	0.49563
471.54019999999997	0.0	+	50	noun	phrase	1	7	match	beau	5	1	y	0.49563
471.9405	0.2	dhrcxv	50	noun	phrase	1	8	match	beau	5	1	y	0.49563
472.13989999999995	0.0	+	50	noun	phrase	1	9	match	beau	5	1	y	0.49563
472.53979999999996	0.2	beau	50	noun	phrase	1	10	match	beau	5	1	y	0.49563
472.7397	0.0	+	50	noun	phrase	1	11	match	beau	5	1	y	0.49563
473.13950000000006	0.0	+	50	noun	phrase	1	12	match	beau	5	1	y	0.49563
475.13860000000005	0.0	BEAU	50	noun	phrase	1	13	match	beau	5	1	y	0.49563
475.68840000000006	0.0	+	50	noun	phrase	1	14	match	beau	5	1	y	0.49563
475.6343	0.0	[response]	50	noun	phrase	1	15	match	beau	5	1	y	0.49563
477.53760000000005	0.0	+	51	noun	phrase	2	1	match	rouge	5	1	y	0.47683
478.08729999999997	0.2	hstdl	51	noun	phrase	2	2	match	rouge	5	1	y	0.47683
478.28720000000004	0.0	+	51	noun	phrase	2	3	match	rouge	5	1	y	0.47683
478.68699999999995	0.2	vpfm	51	noun	phrase	2	4	match	rouge	5	1	y	0.47683
478.887	0.0	+	51	noun	phrase	2	5	match	rouge	5	1	y	0.47683
479.2868	0.2	jwq	51	noun	phrase	2	6	match	rouge	5	1	y	0.47683
479.4867	0.0	+	51	noun	phrase	2	7	match	rouge	5	1	y	0.47683
479.8865	0.2	casier	51	noun	phrase	2	8	match	rouge	5	1	y	0.47683
480.08639999999997	0.0	+	51	noun	phrase	2	9	match	rouge	5	1	y	0.47683
480.4862	0.2	rouge	51	noun	phrase	2	10	match	rouge	5	1	y	0.47683
480.68620000000004	0.0	+	51	noun	phrase	2	11	match	rouge	5	1	y	0.47683
481.08599999999996	0.0	+	51	noun	phrase	2	12	match	rouge	5	1	y	0.47683
483.08509999999995	0.0	ROUGE	51	noun	phrase	2	13	match	rouge	5	1	y	0.47683
483.61820000000006	0.0	+	51	noun	phrase	2	14	match	rouge	5	1	y	0.47683
483.5619	0.0	[response]	51	noun	phrase	2	15	match	rouge	5	1	y	0.47683
485.484	0.0	+	52	verb	phrase	3	1	match	doit	3	1	y	0.77969
486.0505	0.2	qsmd	52	verb	phrase	3	2	match	doit	3	1	y	0.77969
486.25039999999996	0.0	+	52	verb	phrase	3	3	match	doit	3	1	y	0.77969
486.6502	0.2	tnwf	52	verb	phrase	3	4	match	doit	3	1	y	0.77969
486.85010000000005	0.0	+	52	verb	phrase	3	5	match	doit	3	1	y	0.77969
487.24989999999997	0.2	doit	52	verb	phrase	3	6	match	doit	3	1	y	0.77969
487.4499	0.0	+	52	verb	phrase	3	7	match	doit	3	1	y	0.77969
487.84970000000004	0.2	beaucoup	52	verb	phrase	3	8	match	doit	3	1	y	0.77969
488.0496	0.0	+	52	verb	phrase	3	9	match	doit	3	1	y	0.77969
488.4494	0.2	chasser	52	verb	phrase	3	10	match	doit	3	1	y	0.77969
488.6493	0.0	+	52	verb	phrase	3	11	match	doit	3	1	y	0.77969
489.0491	0.0	+	52	verb	phrase	3	12	match	doit	3	1	y	0.77969
491.0482	0.0	DOIT	52	verb	phrase	3	13	match	doit	3	1	y	0.77969
491.8812	0.0	+	52	verb	phrase	3	14	match	doit	3	1	y	0.77969
491.82790000000006	0.0	[response]	52	verb	phrase	3	15	match	doit	3	1	y	0.77969
493.4472	0.0	+	53	noun	phrase	1	1	match	clavier	5	1	y	0.38508
493.99690000000004	0.2	stc	53	noun	phrase	1	2	match	clavier	5	1	y	0.38508
494.1968	0.0	+	53	noun	phrase	1	3	match	clavier	5	1	y	0.38508
494.5967	0.2	cxgm	53	noun	phrase	1	4	match	clavier	5	1	y	0.38508
494.79659999999996	0.0	+	53	noun	phrase	1	5	match	clavier	5	1	y	0.38508
495.1964	0.2	jwq	53	noun	phrase	1	6	match	clavier	5	1	y	0.38508
495.39630000000005	0.0	+	53	noun	phrase	1	7	match	clavier	5	1	y	0.38508
495.79620000000006	0.2	prwd	53	noun	phrase	1	8	match	clavier	5	1	y	0.38508
495.9961	0.0	+	53	noun	phrase	1	9	match	clavier	5	1	y	0.38508
496.39590000000004	0.2	clavier	53	noun	phrase	1	10	match	clavier	5	1	y	0.38508
496.5958	0.0	+	53	noun	phrase	1	11	match	clavier	5	1	y	0.38508
496.9956	0.0	+	53	noun	phrase	1	12	match	clavier	5	1	y	0.38508
498.9947	0.0	CLAVIER	53	noun	phrase	1	13	match	clavier	5	1	y	0.38508
499.4445	0.0	+	53	noun	phrase	1	14	match	clavier	5	1	y	0.38508
499.3798	0.0	[response]	53	noun	phrase	1	15	match	clavier	5	1	y	0.38508
501.3937	0.0	+	54	verb	phrase	1	1	nomatch	jade	-1	1	p	0.64025
501.94340000000005	0.2	kdhclzr	54	verb	phrase	1	2	nomatch	jade	-1	1	p	0.64025
502.1433	0.0	+	54	verb	phrase	1	3	nomatch	jade	-1	1	p	0.64025
502.54310000000004	0.2	jvbz	54	verb	phrase	1	4	nomatch	jade	-1	1	p	0.64025
502.74309999999997	0.0	+	54	verb	phrase	1	5	nomatch	jade	-1	1	p	0.64025
503.1429	0.2	vdfh	54	verb	phrase	1	6	nomatch	jade	-1	1	p	0.64025
503.34280000000007	0.0	+	54	verb	phrase	1	7	nomatch	jade	-1	1	p	0.64025
503.7426	0.2	fphn	54	verb	phrase	1	8	nomatch	jade	-1	1	p	0.64025
503.9426	0.0	+	54	verb	phrase	1	9	nomatch	jade	-1	1	p	0.64025
504.34229999999997	0.2	danser	54	verb	phrase	1	10	nomatch	jade	-1	1	p	0.64025
504.5423	0.0	+	54	verb	phrase	1	11	nomatch	jade	-1	1	p	0.64025
504.94210000000004	0.0	+	54	verb	phrase	1	12	nomatch	jade	-1	1	p	0.64025
506.94120000000004	0.0	JADE	54	verb	phrase	1	13	nomatch	jade	-1	1	p	0.64025
507.64090000000004	0.0	+	54	verb	phrase	1	14	nomatch	jade	-1	1	p	0.64025
507.58150000000006	0.0	[response]	54	verb	phrase	1	15	nomatch	jade	-1	1	p	0.64025
517.3366	0.0	+	55	verb	phrase	1	1	nomatch	plus	-1	1	p	0.90442
517.8864	0.2	bxdvn	55	verb	phrase	1	2	nomatch	plus	-1	1	p	0.90442
518.0862999999999	0.0	+	55	verb	phrase	1	3	nomatch	plus	-1	1	p	0.90442
518.4861	0.2	tnwf	55	verb	phrase	1	4	nomatch	plus	-1	1	p	0.90442
518.6859999999999	0.0	+	55	verb	phrase	1	5	nomatch	plus	-1	1	p	0.90442
519.0858	0.2	qgfj	55	verb	phrase	1	6	nomatch	plus	-1	1	p	0.90442
519.2856999999999	0.0	+	55	verb	phrase	1	7	nomatch	plus	-1	1	p	0.90442
519.6855999999999	0.2	pcgtzw	55	verb	phrase	1	8	nomatch	plus	-1	1	p	0.90442
519.8855	0.0	+	55	verb	phrase	1	9	nomatch	plus	-1	1	p	0.90442
520.2853	0.2	beaucoup	55	verb	phrase	1	10	nomatch	plus	-1	1	p	0.90442
520.4857	0.0	+	55	verb	phrase	1	11	nomatch	plus	-1	1	p	0.90442
520.885	0.0	+	55	verb	phrase	1	12	nomatch	plus	-1	1	p	0.90442
522.8841	0.0	PLUS	55	verb	phrase	1	13	nomatch	plus	-1	1	p	0.90442
523.8503999999999	0.0	+	55	verb	phrase	1	14	nomatch	plus	-1	1	p	0.90442
523.7886	0.0	[response]	55	verb	phrase	1	15	nomatch	plus	-1	1	p	0.90442
525.2996999999999	0.0	+	56	noun	phrase	4	1	nomatch	leur	-1	1	p	0.7751700000000001
525.8494999999999	0.2	fcnvhb	56	noun	phrase	4	2	nomatch	leur	-1	1	p	0.7751700000000001
526.0494	0.0	+	56	noun	phrase	4	3	nomatch	leur	-1	1	p	0.7751700000000001
526.4491999999999	0.2	sans	56	noun	phrase	4	4	nomatch	leur	-1	1	p	0.7751700000000001
526.6491	0.0	+	56	noun	phrase	4	5	nomatch	leur	-1	1	p	0.7751700000000001
527.049	0.2	mon	56	noun	phrase	4	6	nomatch	leur	-1	1	p	0.7751700000000001
527.2488999999999	0.0	+	56	noun	phrase	4	7	nomatch	leur	-1	1	p	0.7751700000000001
527.6487	0.2	cendrier	56	noun	phrase	4	8	nomatch	leur	-1	1	p	0.7751700000000001
527.8485999999999	0.0	+	56	noun	phrase	4	9	nomatch	leur	-1	1	p	0.7751700000000001
528.2484	0.2	vert	56	noun	phrase	4	10	nomatch	leur	-1	1	p	0.7751700000000001
528.4482999999999	0.0	+	56	noun	phrase	4	11	nomatch	leur	-1	1	p	0.7751700000000001
528.8481999999999	0.0	+	56	noun	phrase	4	12	nomatch	leur	-1	1	p	0.7751700000000001
530.8472999999999	0.0	LEUR	56	noun	phrase	4	13	nomatch	leur	-1	1	p	0.7751700000000001
531.6801999999999	0.0	+	56	noun	phrase	4	14	nomatch	leur	-1	1	p	0.7751700000000001
531.6224000000001	0.0	[response]	56	noun	phrase	4	15	nomatch	leur	-1	1	p	0.7751700000000001
533.2461999999999	0.0	+	57	verb	list	1	1	match	vieux	5	1	y	0.6568700000000001
533.7959999999999	0.2	qmnc	57	verb	list	1	2	match	vieux	5	1	y	0.6568700000000001
533.9959	0.0	+	57	verb	list	1	3	match	vieux	5	1	y	0.6568700000000001
534.3956999999999	0.2	cfhm	57	verb	list	1	4	match	vieux	5	1	y	0.6568700000000001
534.5956	0.0	+	57	verb	list	1	5	match	vieux	5	1	y	0.6568700000000001
534.9955	0.2	kw	57	verb	list	1	6	match	vieux	5	1	y	0.6568700000000001
535.1954	0.0	+	57	verb	list	1	7	match	vieux	5	1	y	0.6568700000000001
535.5952	0.2	lrmsdpq	57	verb	list	1	8	match	vieux	5	1	y	0.6568700000000001
535.7950999999999	0.0	+	57	verb	list	1	9	match	vieux	5	1	y	0.6568700000000001
536.1949	0.2	vieux	57	verb	list	1	10	match	vieux	5	1	y	0.6568700000000001
536.3947999999999	0.0	+	57	verb	list	1	11	match	vieux	5	1	y	0.6568700000000001
536.7946	0.0	+	57	verb	list	1	12	match	vieux	5	1	y	0.6568700000000001
538.7937999999999	0.0	VIEUX	57	verb	list	1	13	match	vieux	5	1	y	0.6568700000000001
539.5101	0.0	+	57	verb	list	1	14	match	vieux	5	1	y	0.6568700000000001
539.4506	0.0	[response]	57	verb	list	1	15	match	vieux	5	1	y	0.6568700000000001
541.1927	0.0	+	58	verb	list	2	1	match	rouge	5	1	y	0.97127
541.7425	0.2	tfs	58	verb	list	2	2	match	rouge	5	1	y	0.97127
541.9423999999999	0.0	+	58	verb	list	2	3	match	rouge	5	1	y	0.97127
542.3421999999999	0.2	tnwf	58	verb	list	2	4	match	rouge	5	1	y	0.97127
542.5421	0.0	+	58	verb	list	2	5	match	rouge	5	1	y	0.97127
542.9418999999999	0.2	jwq	58	verb	list	2	6	match	rouge	5	1	y	0.97127
543.1418	0.0	+	58	verb	list	2	7	match	rouge	5	1	y	0.97127
543.5417	0.2	plonger	58	verb	list	2	8	match	rouge	5	1	y	0.97127
543.7416	0.0	+	58	verb	list	2	9	match	rouge	5	1	y	0.97127
544.1414	0.2	rouge	58	verb	list	2	10	match	rouge	5	1	y	0.97127
544.3412999999999	0.0	+	58	verb	list	2	11	match	rouge	5	1	y	0.97127
544.7411	0.0	+	58	verb	list	2	12	match	rouge	5	1	y	0.97127
546.7402	0.0	ROUGE	58	verb	list	2	13	match	rouge	5	1	y	0.97127
547.7731	0.0	+	58	verb	list	2	14	match	rouge	5	1	y	0.97127
547.7115	0.0	[response]	58	verb	list	2	15	match	rouge	5	1	y	0.97127
549.1392	0.0	+	59	noun	phrase	2	1	match	casier	5	1	y	0.55343
549.6889	0.2	vgt	59	noun	phrase	2	2	match	casier	5	1	y	0.55343
549.8888999999999	0.0	+	59	noun	phrase	2	3	match	casier	5	1	y	0.55343
550.2887	0.2	bldw	59	noun	phrase	2	4	match	casier	5	1	y	0.55343
550.4885999999999	0.0	+	59	noun	phrase	2	5	match	casier	5	1	y	0.55343
550.8883999999999	0.2	gkpq	59	noun	phrase	2	6	match	casier	5	1	y	0.55343
551.0883	0.0	+	59	noun	phrase	2	7	match	casier	5	1	y	0.55343
551.4880999999999	0.2	beau	59	noun	phrase	2	8	match	casier	5	1	y	0.55343
551.688	0.0	+	59	noun	phrase	2	9	match	casier	5	1	y	0.55343
552.0879	0.2	casier	59	noun	phrase	2	10	match	casier	5	1	y	0.55343
552.2878	0.0	+	59	noun	phrase	2	11	match	casier	5	1	y	0.55343
552.6876	0.0	+	59	noun	phrase	2	12	match	casier	5	1	y	0.55343
554.6867	0.0	CASIER	59	noun	phrase	2	13	match	casier	5	1	y	0.55343
555.3031	0.0	+	59	noun	phrase	2	14	match	casier	5	1	y	0.55343
555.2401	0.0	[response]	59	noun	phrase	2	15	match	casier	5	1	y	0.55343
557.0857	0.0	+	60	verb	phrase	2	1	match	danser	4	1	y	0.61443
557.6354	0.2	pwtx	60	verb	phrase	2	2	match	danser	4	1	y	0.61443
557.8353	0.0	+	60	verb	phrase	2	3	match	danser	4	1	y	0.61443
558.2352	0.2	vdsk	60	verb	phrase	2	4	match	danser	4	1	y	0.61443
558.4350999999999	0.0	+	60	verb	phrase	2	5	match	danser	4	1	y	0.61443
558.8349	0.2	qgfj	60	verb	phrase	2	6	match	danser	4	1	y	0.61443
559.0347999999999	0.0	+	60	verb	phrase	2	7	match	danser	4	1	y	0.61443
559.4345999999999	0.2	danser	60	verb	phrase	2	8	match	danser	4	1	y	0.61443
559.6345	0.0	+	60	verb	phrase	2	9	match	danser	4	1	y	0.61443
560.0344	0.2	ainsi	60	verb	phrase	2	10	match	danser	4	1	y	0.61443
560.2343	0.0	+	60	verb	phrase	2	11	match	danser	4	1	y	0.61443
560.6341	0.0	+	60	verb	phrase	2	12	match	danser	4	1	y	0.61443
562.6499	0.0	DANSER	60	verb	phrase	2	13	match	danser	4	1	y	0.61443
563.3162	0.0	+	60	verb	phrase	2	14	match	danser	4	1	y	0.61443
563.2642999999999	0.0	[response]	60	verb	phrase	2	15	match	danser	4	1	y	0.61443
565.0487999999999	0.0	+	61	noun	phrase	1	1	nomatch	sablier	-1	1	p	1.2077
565.5985999999999	0.2	dvz	61	noun	phrase	1	2	nomatch	sablier	-1	1	p	1.2077
565.7985	0.0	+	61	noun	phrase	1	3	nomatch	sablier	-1	1	p	1.2077
566.1982999999999	0.2	vpfm	61	noun	phrase	1	4	nomatch	sablier	-1	1	p	1.2077
566.3982	0.0	+	61	noun	phrase	1	5	nomatch	sablier	-1	1	p	1.2077
566.798	0.2	gkpq	61	noun	phrase	1	6	nomatch	sablier	-1	1	p	1.2077
566.9979999999999	0.0	+	61	noun	phrase	1	7	nomatch	sablier	-1	1	p	1.2077
567.3978	0.2	scvhk	61	noun	phrase	1	8	nomatch	sablier	-1	1	p	1.2077
567.5976999999999	0.0	+	61	noun	phrase	1	9	nomatch	sablier	-1	1	p	1.2077
567.9975	0.2	rocher	61	noun	phrase	1	10	nomatch	sablier	-1	1	p	1.2077
568.1973999999999	0.0	+	61	noun	phrase	1	11	nomatch	sablier	-1	1	p	1.2077
568.5971999999999	0.0	+	61	noun	phrase	1	12	nomatch	sablier	-1	1	p	1.2077
570.5962999999999	0.0	SABLIER	61	noun	phrase	1	13	nomatch	sablier	-1	1	p	1.2077
571.8625	0.0	+	61	noun	phrase	1	14	nomatch	sablier	-1	1	p	1.2077
571.804	0.0	[response]	61	noun	phrase	1	15	nomatch	sablier	-1	1	p	1.2077
572.9952999999999	0.0	+	62	verb	list	2	1	match	danser	5	1	y	0.52825
573.545	0.2	frqwbz	62	verb	list	2	2	match	danser	5	1	y	0.52825
573.7448999999999	0.0	+	62	verb	list	2	3	match	danser	5	1	y	0.52825
574.1447999999999	0.2	cxgm	62	verb	list	2	4	match	danser	5	1	y	0.52825
574.3447	0.0	+	62	verb	list	2	5	match	danser	5	1	y	0.52825
574.7444999999999	0.2	kw	62	verb	list	2	6	match	danser	5	1	y	0.52825
574.9444	0.0	+	62	verb	list	2	7	match	danser	5	1	y	0.52825
575.3442	0.2	vieux	62	verb	list	2	8	match	danser	5	1	y	0.52825
575.5441999999999	0.0	+	62	verb	list	2	9	match	danser	5	1	y	0.52825
575.9443	0.2	danser	62	verb	list	2	10	match	danser	5	1	y	0.52825
576.1438999999999	0.0	+	62	verb	list	2	11	match	danser	5	1	y	0.52825
576.5437	0.0	+	62	verb	list	2	12	match	danser	5	1	y	0.52825
578.5427999999999	0.0	DANSER	62	verb	list	2	13	match	danser	5	1	y	0.52825
579.1259	0.0	+	62	verb	list	2	14	match	danser	5	1	y	0.52825
579.0711	0.0	[response]	62	verb	list	2	15	match	danser	5	1	y	0.52825
580.9422	0.0	+	63	verb	phrase	3	1	nomatch	mieux	-1	1	p	0.76158
581.4915	0.2	dgzbwx	63	verb	phrase	3	2	nomatch	mieux	-1	1	p	0.76158
581.6913999999999	0.0	+	63	verb	phrase	3	3	nomatch	mieux	-1	1	p	0.76158
582.0912999999999	0.2	bcs	63	verb	phrase	3	4	nomatch	mieux	-1	1	p	0.76158
582.2912	0.0	+	63	verb	phrase	3	5	nomatch	mieux	-1	1	p	0.76158
582.6909999999999	0.2	doit	63	verb	phrase	3	6	nomatch	mieux	-1	1	p	0.76158
582.8909	0.0	+	63	verb	phrase	3	7	nomatch	mieux	-1	1	p	0.76158
583.2906999999999	0.2	plus	63	verb	phrase	3	8	nomatch	mieux	-1	1	p	0.76158
583.4906	0.0	+	63	verb	phrase	3	9	nomatch	mieux	-1	1	p	0.76158
583.8905	0.2	jongler	63	verb	phrase	3	10	nomatch	mieux	-1	1	p	0.76158
584.0903999999999	0.0	+	63	verb	phrase	3	11	nomatch	mieux	-1	1	p	0.76158
584.4902	0.0	+	63	verb	phrase	3	12	nomatch	mieux	-1	1	p	0.76158
586.4893	0.0	MIEUX	63	verb	phrase	3	13	nomatch	mieux	-1	1	p	0.76158
587.3055999999999	0.0	+	63	verb	phrase	3	14	nomatch	mieux	-1	1	p	0.76158
587.2509	0.0	[response]	63	verb	phrase	3	15	nomatch	mieux	-1	1	p	0.76158
588.8882	0.0	+	64	verb	list	1	1	nomatch	leur	-1	0	y	0.74227
589.438	0.2	mrwqhst	64	verb	list	1	2	nomatch	leur	-1	0	y	0.74227
589.6379	0.0	+	64	verb	list	1	3	nomatch	leur	-1	0	y	0.74227
590.0377	0.2	jdlv	64	verb	list	1	4	nomatch	leur	-1	0	y	0.74227
590.2375999999999	0.0	+	64	verb	list	1	5	nomatch	leur	-1	0	y	0.74227
590.6374999999999	0.2	gkpq	64	verb	list	1	6	nomatch	leur	-1	0	y	0.74227
590.8374	0.0	+	64	verb	list	1	7	nomatch	leur	-1	0	y	0.74227
591.2371999999999	0.2	twcs	64	verb	list	1	8	nomatch	leur	-1	0	y	0.74227
591.4371	0.0	+	64	verb	list	1	9	nomatch	leur	-1	0	y	0.74227
591.8368999999999	0.2	voyager	64	verb	list	1	10	nomatch	leur	-1	0	y	0.74227
592.0369	0.0	+	64	verb	list	1	11	nomatch	leur	-1	0	y	0.74227
592.4367	0.0	+	64	verb	list	1	12	nomatch	leur	-1	0	y	0.74227
594.4363	0.0	LEUR	64	verb	list	1	13	nomatch	leur	-1	0	y	0.74227
595.2353999999999	0.0	+	64	verb	list	1	14	nomatch	leur	-1	0	y	0.74227
595.1786	0.0	[response]	64	verb	list	1	15	nomatch	leur	-1	0	y	0.74227
596.8347	0.0	+	65	verb	phrase	4	1	match	peut	3	1	y	0.63588
597.3845	0.2	mxtszpf	65	verb	phrase	4	2	match	peut	3	1	y	0.63588
597.5844	0.0	+	65	verb	phrase	4	3	match	peut	3	1	y	0.63588
597.9842	0.2	jean	65	verb	phrase	4	4	match	peut	3	1	y	0.63588
598.1841	0.0	+	65	verb	phrase	4	5	match	peut	3	1	y	0.63588
598.584	0.2	peut	65	verb	phrase	4	6	match	peut	3	1	y	0.63588
598.7838999999999	0.0	+	65	verb	phrase	4	7	match	peut	3	1	y	0.63588
599.2004	0.2	chasser	65	verb	phrase	4	8	match	peut	3	1	y	0.63588
599.4002999999999	0.0	+	65	verb	phrase	4	9	match	peut	3	1	y	0.63588
599.8000999999999	0.2	vite	65	verb	phrase	4	10	match	peut	3	1	y	0.63588
600.0	0.0	+	65	verb	phrase	4	11	match	peut	3	1	y	0.63588
600.3997999999999	0.0	+	65	verb	phrase	4	12	match	peut	3	1	y	0.63588
602.3988999999999	0.0	PEUT	65	verb	phrase	4	13	match	peut	3	1	y	0.63588
603.0985999999999	0.0	+	65	verb	phrase	4	14	match	peut	3	1	y	0.63588
603.0347999999999	0.0	[response]	65	verb	phrase	4	15	match	peut	3	1	y	0.63588
604.7978999999999	0.0	+	66	noun	phrase	3	1	nomatch	vert	-1	1	p	0.94168
605.3475999999999	0.2	znb	66	noun	phrase	3	2	nomatch	vert	-1	1	p	0.94168
605.5474999999999	0.0	+	66	noun	phrase	3	3	nomatch	vert	-1	1	p	0.94168
605.9473999999999	0.2	cfhm	66	noun	phrase	3	4	nomatch	vert	-1	1	p	0.94168
606.1473	0.0	+	66	noun	phrase	3	5	nomatch	vert	-1	1	p	0.94168
606.5471	0.2	mon	66	noun	phrase	3	6	nomatch	vert	-1	1	p	0.94168
606.747	0.0	+	66	noun	phrase	3	7	nomatch	vert	-1	1	p	0.94168
607.1468	0.2	tablier	66	noun	phrase	3	8	nomatch	vert	-1	1	p	0.94168
607.3466999999999	0.0	+	66	noun	phrase	3	9	nomatch	vert	-1	1	p	0.94168
607.7470999999999	0.2	bleu	66	noun	phrase	3	10	nomatch	vert	-1	1	p	0.94168
607.9464999999999	0.0	+	66	noun	phrase	3	11	nomatch	vert	-1	1	p	0.94168
608.3465	0.0	+	66	noun	phrase	3	12	nomatch	vert	-1	1	p	0.94168
610.3453999999999	0.0	VERT	66	noun	phrase	3	13	nomatch	vert	-1	1	p	0.94168
611.3449999999999	0.0	+	66	noun	phrase	3	14	nomatch	vert	-1	1	p	0.94168
611.2871	0.0	[response]	66	noun	phrase	3	15	nomatch	vert	-1	1	p	0.94168
620.7407999999999	0.0	+	67	verb	phrase	4	1	match	plus	4	1	y	0.63402
621.2905999999999	0.2	hnqbvs	67	verb	phrase	4	2	match	plus	4	1	y	0.63402
621.4905	0.0	+	67	verb	phrase	4	3	match	plus	4	1	y	0.63402
621.8902999999999	0.2	paul	67	verb	phrase	4	4	match	plus	4	1	y	0.63402
622.0902	0.0	+	67	verb	phrase	4	5	match	plus	4	1	y	0.63402
622.49	0.2	doit	67	verb	phrase	4	6	match	plus	4	1	y	0.63402
622.6899	0.0	+	67	verb	phrase	4	7	match	plus	4	1	y	0.63402
623.0898	0.2	plus	67	verb	phrase	4	8	match	plus	4	1	y	0.63402
623.2896999999999	0.0	+	67	verb	phrase	4	9	match	plus	4	1	y	0.63402
623.6895	0.2	danser	67	verb	phrase	4	10	match	plus	4	1	y	0.63402
623.8893999999999	0.0	+	67	verb	phrase	4	11	match	plus	4	1	y	0.63402
624.2891999999999	0.0	+	67	verb	phrase	4	12	match	plus	4	1	y	0.63402
626.2882999999999	0.0	PLUS	67	verb	phrase	4	13	match	plus	4	1	y	0.63402
626.9880999999999	0.0	+	67	verb	phrase	4	14	match	plus	4	1	y	0.63402
626.9223999999999	0.0	[response]	67	verb	phrase	4	15	match	plus	4	1	y	0.63402
644.6968999999999	0.0	+	68	verb	list	1	1	nomatch	rouler	-1	1	p	0.6737200000000001
645.2466	0.2	hzwj	68	verb	list	1	2	nomatch	rouler	-1	1	p	0.6737200000000001
645.4464999999999	0.0	+	68	verb	list	1	3	nomatch	rouler	-1	1	p	0.6737200000000001
645.8463999999999	0.2	cfhm	68	verb	list	1	4	nomatch	rouler	-1	1	p	0.6737200000000001
646.0463	0.0	+	68	verb	list	1	5	nomatch	rouler	-1	1	p	0.6737200000000001
646.4461	0.2	qgfj	68	verb	list	1	6	nomatch	rouler	-1	1	p	0.6737200000000001
646.646	0.0	+	68	verb	list	1	7	nomatch	rouler	-1	1	p	0.6737200000000001
647.0458	0.2	kljsn	68	verb	list	1	8	nomatch	rouler	-1	1	p	0.6737200000000001
647.2456999999999	0.0	+	68	verb	list	1	9	nomatch	rouler	-1	1	p	0.6737200000000001
647.6456	0.2	nager	68	verb	list	1	10	nomatch	rouler	-1	1	p	0.6737200000000001
647.8454999999999	0.0	+	68	verb	list	1	11	nomatch	rouler	-1	1	p	0.6737200000000001
648.2452999999999	0.0	+	68	verb	list	1	12	nomatch	rouler	-1	1	p	0.6737200000000001
650.2443999999999	0.0	ROULER	68	verb	list	1	13	nomatch	rouler	-1	1	p	0.6737200000000001
650.9774	0.0	+	68	verb	list	1	14	nomatch	rouler	-1	1	p	0.6737200000000001
650.9181	0.0	[response]	68	verb	list	1	15	nomatch	rouler	-1	1	p	0.6737200000000001
660.6397999999999	0.0	+	69	verb	phrase	4	1	match	moins	4	0	TIMEOUT	-1.0
661.1895999999999	0.2	jbfxnls	69	verb	phrase	4	2	match	moins	4	0	TIMEOUT	-1.0
661.3895	0.0	+	69	verb	phrase	4	3	match	moins	4	0	TIMEOUT	-1.0
661.7892999999999	0.2	jade	69	verb	phrase	4	4	match	moins	4	0	TIMEOUT	-1.0
661.9892	0.0	+	69	verb	phrase	4	5	match	moins	4	0	TIMEOUT	-1.0
662.389	0.2	va	69	verb	phrase	4	6	match	moins	4	0	TIMEOUT	-1.0
662.5889	0.0	+	69	verb	phrase	4	7	match	moins	4	0	TIMEOUT	-1.0
662.9888	0.2	moins	69	verb	phrase	4	8	match	moins	4	0	TIMEOUT	-1.0
663.1886999999999	0.0	+	69	verb	phrase	4	9	match	moins	4	0	TIMEOUT	-1.0
663.5885	0.2	voyager	69	verb	phrase	4	10	match	moins	4	0	TIMEOUT	-1.0
663.7883999999999	0.0	+	69	verb	phrase	4	11	match	moins	4	0	TIMEOUT	-1.0
664.1881999999999	0.0	+	69	verb	phrase	4	12	match	moins	4	0	TIMEOUT	-1.0
666.1872999999999	0.0	MOINS	69	verb	phrase	4	13	match	moins	4	0	TIMEOUT	-1.0
668.5862999999999	0.0	+	70	verb	list	3	1	nomatch	rocher	-1	1	p	2.1744000000000003
669.1859999999999	0.2	nhxqkm	70	verb	list	3	2	nomatch	rocher	-1	1	p	2.1744000000000003
669.3859	0.0	+	70	verb	list	3	3	nomatch	rocher	-1	1	p	2.1744000000000003
669.7856999999999	0.2	mfdt	70	verb	list	3	4	nomatch	rocher	-1	1	p	2.1744000000000003
669.9857	0.0	+	70	verb	list	3	5	nomatch	rocher	-1	1	p	2.1744000000000003
670.3855	0.2	peut	70	verb	list	3	6	nomatch	rocher	-1	1	p	2.1744000000000003
670.5853999999999	0.0	+	70	verb	list	3	7	nomatch	rocher	-1	1	p	2.1744000000000003
670.9852	0.2	petit	70	verb	list	3	8	nomatch	rocher	-1	1	p	2.1744000000000003
671.1850999999999	0.0	+	70	verb	list	3	9	nomatch	rocher	-1	1	p	2.1744000000000003
671.5849999999999	0.2	rouler	70	verb	list	3	10	nomatch	rocher	-1	1	p	2.1744000000000003
671.7849	0.0	+	70	verb	list	3	11	nomatch	rocher	-1	1	p	2.1744000000000003
672.1846999999999	0.0	+	70	verb	list	3	12	nomatch	rocher	-1	1	p	2.1744000000000003
674.2004999999999	0.0	ROCHER	70	verb	list	3	13	nomatch	rocher	-1	1	p	2.1744000000000003
676.4331999999999	0.0	+	70	verb	list	3	14	nomatch	rocher	-1	1	p	2.1744000000000003
676.3747999999999	0.0	[response]	70	verb	list	3	15	nomatch	rocher	-1	1	p	2.1744000000000003
676.5994	0.0	+	71	noun	list	1	1	match	voilier	5	1	y	0.37886
677.1492	0.2	bxqckp	71	noun	list	1	2	match	voilier	5	1	y	0.37886
677.3490999999999	0.0	+	71	noun	list	1	3	match	voilier	5	1	y	0.37886
677.7488999999999	0.2	tnwf	71	noun	list	1	4	match	voilier	5	1	y	0.37886
677.9488	0.0	+	71	noun	list	1	5	match	voilier	5	1	y	0.37886
678.3489	0.2	jvp	71	noun	list	1	6	match	voilier	5	1	y	0.37886
678.5485	0.0	+	71	noun	list	1	7	match	voilier	5	1	y	0.37886
678.9484	0.2	rnhvc	71	noun	list	1	8	match	voilier	5	1	y	0.37886
679.1483	0.0	+	71	noun	list	1	9	match	voilier	5	1	y	0.37886
679.5481	0.2	voilier	71	noun	list	1	10	match	voilier	5	1	y	0.37886
679.7479999999999	0.0	+	71	noun	list	1	11	match	voilier	5	1	y	0.37886
680.1478999999999	0.0	+	71	noun	list	1	12	match	voilier	5	1	y	0.37886
682.1469	0.0	VOILIER	71	noun	list	1	13	match	voilier	5	1	y	0.37886
682.5800999999999	0.0	+	71	noun	list	1	14	match	voilier	5	1	y	0.37886
682.5258000000001	0.0	[response]	71	noun	list	1	15	match	voilier	5	1	y	0.37886
684.5459	0.0	+	72	verb	phrase	4	1	nomatch	sur	-1	1	p	0.64678
685.0956	0.2	vdmz	72	verb	phrase	4	2	nomatch	sur	-1	1	p	0.64678
685.2955999999999	0.0	+	72	verb	phrase	4	3	nomatch	sur	-1	1	p	0.64678
685.6954	0.2	marc	72	verb	phrase	4	4	nomatch	sur	-1	1	p	0.64678
685.8952999999999	0.0	+	72	verb	phrase	4	5	nomatch	sur	-1	1	p	0.64678
686.2950999999999	0.2	peut	72	verb	phrase	4	6	nomatch	sur	-1	1	p	0.64678
686.495	0.0	+	72	verb	phrase	4	7	nomatch	sur	-1	1	p	0.64678
686.8947999999999	0.2	plonger	72	verb	phrase	4	8	nomatch	sur	-1	1	p	0.64678
687.0948	0.0	+	72	verb	phrase	4	9	nomatch	sur	-1	1	p	0.64678
687.4946	0.2	ainsi	72	verb	phrase	4	10	nomatch	sur	-1	1	p	0.64678
687.6945	0.0	+	72	verb	phrase	4	11	nomatch	sur	-1	1	p	0.64678
688.0943	0.0	+	72	verb	phrase	4	12	nomatch	sur	-1	1	p	0.64678
690.0934	0.0	SUR	72	verb	phrase	4	13	nomatch	sur	-1	1	p	0.64678
690.7931	0.0	+	72	verb	phrase	4	14	nomatch	sur	-1	1	p	0.64678
690.7402	0.0	[response]	72	verb	phrase	4	15	nomatch	sur	-1	1	p	0.64678
692.4924	0.0	+	73	verb	phrase	2	1	match	parader	4	1	y	1.1538
693.0421	0.2	gcrzxt	73	verb	phrase	2	2	match	parader	4	1	y	1.1538
693.242	0.0	+	73	verb	phrase	2	3	match	parader	4	1	y	1.1538
693.6419	0.2	jdlv	73	verb	phrase	2	4	match	parader	4	1	y	1.1538
693.8419	0.0	+	73	verb	phrase	2	5	match	parader	4	1	y	1.1538
694.2416	0.2	vdfh	73	verb	phrase	2	6	match	parader	4	1	y	1.1538
694.4414999999999	0.0	+	73	verb	phrase	2	7	match	parader	4	1	y	1.1538
694.8412999999999	0.2	parader	73	verb	phrase	2	8	match	parader	4	1	y	1.1538
695.0412	0.0	+	73	verb	phrase	2	9	match	parader	4	1	y	1.1538
695.4411	0.2	tôt	73	verb	phrase	2	10	match	parader	4	1	y	1.1538
695.641	0.0	+	73	verb	phrase	2	11	match	parader	4	1	y	1.1538
696.0408	0.0	+	73	verb	phrase	2	12	match	parader	4	1	y	1.1538
698.0399	0.0	PARADER	73	verb	phrase	2	13	match	parader	4	1	y	1.1538
699.256	0.0	+	73	verb	phrase	2	14	match	parader	4	1	y	1.1538
699.1936999999999	0.0	[response]	73	verb	phrase	2	15	match	parader	4	1	y	1.1538
708.4353	0.0	+	74	noun	phrase	3	1	match	leur	3	0	p	1.8416
708.9851	0.2	fjvck	74	noun	phrase	3	2	match	leur	3	0	p	1.8416
709.185	0.0	+	74	noun	phrase	3	3	match	leur	3	0	p	1.8416
709.5848	0.2	dnmw	74	noun	phrase	3	4	match	leur	3	0	p	1.8416
709.7846999999999	0.0	+	74	noun	phrase	3	5	match	leur	3	0	p	1.8416
710.1845	0.2	leur	74	noun	phrase	3	6	match	leur	3	0	p	1.8416
710.3843999999999	0.0	+	74	noun	phrase	3	7	match	leur	3	0	p	1.8416
710.7842999999999	0.2	nouveau	74	noun	phrase	3	8	match	leur	3	0	p	1.8416
710.9842	0.0	+	74	noun	phrase	3	9	match	leur	3	0	p	1.8416
711.3839999999999	0.2	sablier	74	noun	phrase	3	10	match	leur	3	0	p	1.8416
711.5839	0.0	+	74	noun	phrase	3	11	match	leur	3	0	p	1.8416
712.0003999999999	0.0	+	74	noun	phrase	3	12	match	leur	3	0	p	1.8416
713.9994999999999	0.0	LEUR	74	noun	phrase	3	13	match	leur	3	0	p	1.8416
715.8987	0.0	+	74	noun	phrase	3	14	match	leur	3	0	p	1.8416
715.8411	0.0	[response]	74	noun	phrase	3	15	match	leur	3	0	p	1.8416
716.3983999999999	0.0	+	75	verb	list	1	1	nomatch	doit	-1	1	p	0.66194
716.9481999999999	0.2	dwvrzl	75	verb	list	1	2	nomatch	doit	-1	1	p	0.66194
717.1481	0.0	+	75	verb	list	1	3	nomatch	doit	-1	1	p	0.66194
717.5478999999999	0.2	mqnx	75	verb	list	1	4	nomatch	doit	-1	1	p	0.66194
717.7478	0.0	+	75	verb	list	1	5	nomatch	doit	-1	1	p	0.66194
718.1477	0.2	gkpq	75	verb	list	1	6	nomatch	doit	-1	1	p	0.66194
718.3475999999999	0.0	+	75	verb	list	1	7	nomatch	doit	-1	1	p	0.66194
718.7474	0.2	brqzflk	75	verb	list	1	8	nomatch	doit	-1	1	p	0.66194
718.9472999999999	0.0	+	75	verb	list	1	9	nomatch	doit	-1	1	p	0.66194
719.3471	0.2	rouge	75	verb	list	1	10	nomatch	doit	-1	1	p	0.66194
719.5469999999999	0.0	+	75	verb	list	1	11	nomatch	doit	-1	1	p	0.66194
719.9468999999999	0.0	+	75	verb	list	1	12	nomatch	doit	-1	1	p	0.66194
721.9459999999999	0.0	DOIT	75	verb	list	1	13	nomatch	doit	-1	1	p	0.66194
722.6623	0.0	+	75	verb	list	1	14	nomatch	doit	-1	1	p	0.66194
722.6079000000001	0.0	[response]	75	verb	list	1	15	nomatch	doit	-1	1	p	0.66194
724.3448999999999	0.0	+	76	verb	list	1	1	match	rouler	5	1	y	0.51795
724.8947	0.2	mtrpk	76	verb	list	1	2	match	rouler	5	1	y	0.51795
725.0945999999999	0.0	+	76	verb	list	1	3	match	rouler	5	1	y	0.51795
725.4943999999999	0.2	dgtf	76	verb	list	1	4	match	rouler	5	1	y	0.51795
725.6943	0.0	+	76	verb	list	1	5	match	rouler	5	1	y	0.51795
726.0942	0.2	jwq	76	verb	list	1	6	match	rouler	5	1	y	0.51795
726.2941	0.0	+	76	verb	list	1	7	match	rouler	5	1	y	0.51795
726.6939	0.2	scvhk	76	verb	list	1	8	match	rouler	5	1	y	0.51795
726.8937999999999	0.0	+	76	verb	list	1	9	match	rouler	5	1	y	0.51795
727.2936	0.2	rouler	76	verb	list	1	10	match	rouler	5	1	y	0.51795
727.4934999999999	0.0	+	76	verb	list	1	11	match	rouler	5	1	y	0.51795
727.8933999999999	0.0	+	76	verb	list	1	12	match	rouler	5	1	y	0.51795
729.8924999999999	0.0	ROULER	76	verb	list	1	13	match	rouler	5	1	y	0.51795
730.4755	0.0	+	76	verb	list	1	14	match	rouler	5	1	y	0.51795
730.4104000000001	0.0	[response]	76	verb	list	1	15	match	rouler	5	1	y	0.51795
732.2914	0.0	+	77	verb	phrase	2	1	nomatch	jongler	-1	1	p	0.67314
732.8412	0.2	zrfklbx	77	verb	phrase	2	2	nomatch	jongler	-1	1	p	0.67314
733.0410999999999	0.0	+	77	verb	phrase	2	3	nomatch	jongler	-1	1	p	0.67314
733.4408999999999	0.2	mqnx	77	verb	phrase	2	4	nomatch	jongler	-1	1	p	0.67314
733.6407999999999	0.0	+	77	verb	phrase	2	5	nomatch	jongler	-1	1	p	0.67314
734.0405999999999	0.2	qgfj	77	verb	phrase	2	6	nomatch	jongler	-1	1	p	0.67314
734.2405	0.0	+	77	verb	phrase	2	7	nomatch	jongler	-1	1	p	0.67314
734.6404	0.2	trop	77	verb	phrase	2	8	nomatch	jongler	-1	1	p	0.67314
734.8403	0.0	+	77	verb	phrase	2	9	nomatch	jongler	-1	1	p	0.67314
735.2401	0.2	plonger	77	verb	phrase	2	10	nomatch	jongler	-1	1	p	0.67314
735.4399999999999	0.0	+	77	verb	phrase	2	11	nomatch	jongler	-1	1	p	0.67314
735.8398	0.0	+	77	verb	phrase	2	12	nomatch	jongler	-1	1	p	0.67314
737.8389999999999	0.0	JONGLER	77	verb	phrase	2	13	nomatch	jongler	-1	1	p	0.67314
738.572	0.0	+	77	verb	phrase	2	14	nomatch	jongler	-1	1	p	0.67314
738.5120999999999	0.0	[response]	77	verb	phrase	2	15	nomatch	jongler	-1	1	p	0.67314
740.2379	0.0	+	78	noun	list	3	1	match	mieux	4	1	y	0.87272
740.7876	0.2	kdc	78	noun	list	3	2	match	mieux	4	1	y	0.87272
740.9875999999999	0.0	+	78	noun	list	3	3	match	mieux	4	1	y	0.87272
741.3874	0.2	jvbz	78	noun	list	3	4	match	mieux	4	1	y	0.87272
741.5872999999999	0.0	+	78	noun	list	3	5	match	mieux	4	1	y	0.87272
741.9870999999999	0.2	mon	78	noun	list	3	6	match	mieux	4	1	y	0.87272
742.1869999999999	0.0	+	78	noun	list	3	7	match	mieux	4	1	y	0.87272
742.5867999999999	0.2	mieux	78	noun	list	3	8	match	mieux	4	1	y	0.87272
742.7868	0.0	+	78	noun	list	3	9	match	mieux	4	1	y	0.87272
743.1866	0.2	boîtier	78	noun	list	3	10	match	mieux	4	1	y	0.87272
743.3865	0.0	+	78	noun	list	3	11	match	mieux	4	1	y	0.87272
743.7863	0.0	+	78	noun	list	3	12	match	mieux	4	1	y	0.87272
745.7854	0.0	MIEUX	78	noun	list	3	13	match	mieux	4	1	y	0.87272
746.7183	0.0	+	78	noun	list	3	14	match	mieux	4	1	y	0.87272
746.6581	0.0	[response]	78	noun	list	3	15	match	mieux	4	1	y	0.87272
748.1844	0.0	+	79	verb	phrase	2	1	nomatch	peut	-1	1	p	0.85111
748.7340999999999	0.2	wlsfz	79	verb	phrase	2	2	nomatch	peut	-1	1	p	0.85111
748.934	0.0	+	79	verb	phrase	2	3	nomatch	peut	-1	1	p	0.85111
749.3505	0.2	tnwf	79	verb	phrase	2	4	nomatch	peut	-1	1	p	0.85111
749.5504	0.0	+	79	verb	phrase	2	5	nomatch	peut	-1	1	p	0.85111
749.9503	0.2	kw	79	verb	phrase	2	6	nomatch	peut	-1	1	p	0.85111
750.1501999999999	0.0	+	79	verb	phrase	2	7	nomatch	peut	-1	1	p	0.85111
750.55	0.2	nager	79	verb	phrase	2	8	nomatch	peut	-1	1	p	0.85111
750.7498999999999	0.0	+	79	verb	phrase	2	9	nomatch	peut	-1	1	p	0.85111
751.1496999999999	0.2	loin	79	verb	phrase	2	10	nomatch	peut	-1	1	p	0.85111
751.3496	0.0	+	79	verb	phrase	2	11	nomatch	peut	-1	1	p	0.85111
751.7494999999999	0.0	+	79	verb	phrase	2	12	nomatch	peut	-1	1	p	0.85111
753.7486	0.0	PEUT	79	verb	phrase	2	13	nomatch	peut	-1	1	p	0.85111
754.6647999999999	0.0	+	79	verb	phrase	2	14	nomatch	peut	-1	1	p	0.85111
754.5997	0.0	[response]	79	verb	phrase	2	15	nomatch	peut	-1	1	p	0.85111
756.1474999999999	0.0	+	80	verb	list	1	1	nomatch	parader	-1	1	p	0.78085
756.6972999999999	0.2	kvprdg	80	verb	list	1	2	nomatch	parader	-1	1	p	0.78085
756.8972	0.0	+	80	verb	list	1	3	nomatch	parader	-1	1	p	0.78085
757.2969999999999	0.2	jdlv	80	verb	list	1	4	nomatch	parader	-1	1	p	0.78085
757.4969	0.0	+	80	verb	list	1	5	nomatch	parader	-1	1	p	0.78085
757.8967	0.2	jvp	80	verb	list	1	6	nomatch	parader	-1	1	p	0.78085
758.0966	0.0	+	80	verb	list	1	7	nomatch	parader	-1	1	p	0.78085
758.4965	0.2	grtm	80	verb	list	1	8	nomatch	parader	-1	1	p	0.78085
758.6963999999999	0.0	+	80	verb	list	1	9	nomatch	parader	-1	1	p	0.78085
759.0962	0.2	chasser	80	verb	list	1	10	nomatch	parader	-1	1	p	0.78085
759.2960999999999	0.0	+	80	verb	list	1	11	nomatch	parader	-1	1	p	0.78085
759.6958999999999	0.0	+	80	verb	list	1	12	nomatch	parader	-1	1	p	0.78085
761.6950999999999	0.0	PARADER	80	verb	list	1	13	nomatch	parader	-1	1	p	0.78085
762.5446999999999	0.0	+	80	verb	list	1	14	nomatch	parader	-1	1	p	0.78085
764.0939999999999	0.0	+	80	verb	list	1	15	nomatch	parader	-1	1	p	0.78085
765.0102999999999	0.0	+	80	verb	list	1	16	nomatch	parader	-1	1	p	0.78085
765.1102999999999	0.0	+	80	verb	list	1	17	nomatch	parader	-1	1	p	0.78085
766.5096	0.0	+	80	verb	list	1	18	nomatch	parader	-1	1	p	0.78085
766.6094999999999	0.0	+	80	verb	list	1	19	nomatch	parader	-1	1	p	0.78085
768.0088999999999	0.0	+	80	verb	list	1	20	nomatch	parader	-1	1	p	0.78085
768.1089	0.0	+	80	verb	list	1	21	nomatch	parader	-1	1	p	0.78085
769.5083	0.0	+	80	verb	list	1	22	nomatch	parader	-1	1	p	0.78085
769.6082	0.0	+	80	verb	list	1	23	nomatch	parader	-1	1	p	0.78085
771.0075999999999	0.0	+	80	verb	list	1	24	nomatch	parader	-1	1	p	0.78085
771.1075999999999	0.0	+	80	verb	list	1	25	nomatch	parader	-1	1	p	0.78085
772.5069	0.0	+	80	verb	list	1	26	nomatch	parader	-1	1	p	0.78085
772.6069	0.0	+	80	verb	list	1	27	nomatch	parader	-1	1	p	0.78085
774.0063	0.0	+	80	verb	list	1	28	nomatch	parader	-1	1	p	0.78085
774.1062	0.0	+	80	verb	list	1	29	nomatch	parader	-1	1	p	0.78085
775.5056	0.0	+	80	verb	list	1	30	nomatch	parader	-1	1	p	0.78085
775.6055	0.0	+	80	verb	list	1	31	nomatch	parader	-1	1	p	0.78085
777.0215999999999	0.0	+	80	verb	list	1	32	nomatch	parader	-1	1	p	0.78085
777.1215	0.0	+	80	verb	list	1	33	nomatch	parader	-1	1	p	0.78085
778.5209	0.0	+	80	verb	list	1	34	nomatch	parader	-1	1	p	0.78085
778.6209	0.0	+	80	verb	list	1	35	nomatch	parader	-1	1	p	0.78085
781.7695	0.0	+	80	verb	list	1	36	nomatch	parader	-1	1	p	0.78085
762.4758999999999	0.0	[response]	80	verb	list	1	37	nomatch	parader	-1	1	p	0.78085
