onset	duration	stim	trial_number	trial_type	trial_structure	trial_length	sequential_position	probe_type	probe	probe_position	response_correct	response_key	response_time
0.05459999999999354	0.0	+	1	noun	phrase	1	1	nomatch	noir	-1	1	p	0.79123
0.5376999999999938	0.2	kmfxb	1	noun	phrase	1	2	nomatch	noir	-1	1	p	0.79123
0.7376999999999967	0.0	+	1	noun	phrase	1	3	nomatch	noir	-1	1	p	0.79123
1.1374999999999957	0.2	jqbv	1	noun	phrase	1	4	nomatch	noir	-1	1	p	0.79123
1.3373999999999953	0.0	+	1	noun	phrase	1	5	nomatch	noir	-1	1	p	0.79123
1.7371999999999943	0.2	rdq	1	noun	phrase	1	6	nomatch	noir	-1	1	p	0.79123
1.9370999999999938	0.0	+	1	noun	phrase	1	7	nomatch	noir	-1	1	p	0.79123
2.336999999999996	0.2	fnvpbld	1	noun	phrase	1	8	nomatch	noir	-1	1	p	0.79123
2.5368999999999957	0.0	+	1	noun	phrase	1	9	nomatch	noir	-1	1	p	0.79123
2.9366999999999948	0.2	bleu	1	noun	phrase	1	10	nomatch	noir	-1	1	p	0.79123
3.1365999999999943	0.0	+	1	noun	phrase	1	11	nomatch	noir	-1	1	p	0.79123
3.5534999999999997	0.0	+	1	noun	phrase	1	12	nomatch	noir	-1	1	p	0.79123
5.535499999999999	0.0	NOIR	1	noun	phrase	1	13	nomatch	noir	-1	1	p	0.79123
6.3851999999999975	0.0	+	1	noun	phrase	1	14	nomatch	noir	-1	1	p	0.79123
6.326799999999999	0.0	[response]	1	noun	phrase	1	15	nomatch	noir	-1	1	p	0.79123
7.9345	0.0	+	2	noun	list	1	1	nomatch	plonger	-1	1	p	0.47374
8.484199999999994	0.2	wgsn	2	noun	list	1	2	nomatch	plonger	-1	1	p	0.47374
8.684099999999994	0.0	+	2	noun	list	1	3	nomatch	plonger	-1	1	p	0.47374
9.0839	0.2	ctdq	2	noun	list	1	4	nomatch	plonger	-1	1	p	0.47374
9.283899999999996	0.0	+	2	noun	list	1	5	nomatch	plonger	-1	1	p	0.47374
9.683699999999995	0.2	vcmh	2	noun	list	1	6	nomatch	plonger	-1	1	p	0.47374
9.8842	0.0	+	2	noun	list	1	7	nomatch	plonger	-1	1	p	0.47374
10.300299999999993	0.2	dlwxn	2	noun	list	1	8	nomatch	plonger	-1	1	p	0.47374
10.5	0.0	+	2	noun	list	1	9	nomatch	plonger	-1	1	p	0.47374
10.899799999999999	0.2	voilier	2	noun	list	1	10	nomatch	plonger	-1	1	p	0.47374
11.099699999999999	0.0	+	2	noun	list	1	11	nomatch	plonger	-1	1	p	0.47374
11.499499999999998	0.0	+	2	noun	list	1	12	nomatch	plonger	-1	1	p	0.47374
13.4987	0.0	PLONGER	2	noun	list	1	13	nomatch	plonger	-1	1	p	0.47374
14.03179999999999	0.0	+	2	noun	list	1	14	nomatch	plonger	-1	1	p	0.47374
13.972399999999993	0.0	[response]	2	noun	list	1	15	nomatch	plonger	-1	1	p	0.47374
23.89399999999999	0.0	+	3	noun	list	1	1	match	mieux	5	1	y	0.4776
24.443799999999996	0.2	kht	3	noun	list	1	2	match	mieux	5	1	y	0.4776
24.643699999999995	0.0	+	3	noun	list	1	3	match	mieux	5	1	y	0.4776
25.043499999999995	0.2	vqf	3	noun	list	1	4	match	mieux	5	1	y	0.4776
25.243399999999994	0.0	+	3	noun	list	1	5	match	mieux	5	1	y	0.4776
25.643199999999993	0.2	rdq	3	noun	list	1	6	match	mieux	5	1	y	0.4776
25.843199999999996	0.0	+	3	noun	list	1	7	match	mieux	5	1	y	0.4776
26.2436	0.2	kdvwnxf	3	noun	list	1	8	match	mieux	5	1	y	0.4776
26.4435	0.0	+	3	noun	list	1	9	match	mieux	5	1	y	0.4776
26.842799999999997	0.2	mieux	3	noun	list	1	10	match	mieux	5	1	y	0.4776
27.043300000000002	0.0	+	3	noun	list	1	11	match	mieux	5	1	y	0.4776
27.442399999999992	0.0	+	3	noun	list	1	12	match	mieux	5	1	y	0.4776
29.44149999999999	0.0	MIEUX	3	noun	list	1	13	match	mieux	5	1	y	0.4776
30.007999999999996	0.0	+	3	noun	list	1	14	match	mieux	5	1	y	0.4776
29.9191	0.0	[response]	3	noun	list	1	15	match	mieux	5	1	y	0.4776
31.84049999999999	0.0	+	4	verb	phrase	1	1	match	plus	5	1	y	0.53631
32.3905	0.2	lftjwmx	4	verb	phrase	1	2	match	plus	5	1	y	0.53631
32.59009999999999	0.0	+	4	verb	phrase	1	3	match	plus	5	1	y	0.53631
32.9906	0.2	tgcf	4	verb	phrase	1	4	match	plus	5	1	y	0.53631
33.1905	0.0	+	4	verb	phrase	1	5	match	plus	5	1	y	0.53631
33.5904	0.2	vcmh	4	verb	phrase	1	6	match	plus	5	1	y	0.53631
33.7898	0.0	+	4	verb	phrase	1	7	match	plus	5	1	y	0.53631
34.1897	0.2	jmbzkhs	4	verb	phrase	1	8	match	plus	5	1	y	0.53631
34.38929999999999	0.0	+	4	verb	phrase	1	9	match	plus	5	1	y	0.53631
34.789199999999994	0.2	plus	4	verb	phrase	1	10	match	plus	5	1	y	0.53631
34.98909999999999	0.0	+	4	verb	phrase	1	11	match	plus	5	1	y	0.53631
35.38889999999999	0.0	+	4	verb	phrase	1	12	match	plus	5	1	y	0.53631
37.3887	0.0	PLUS	4	verb	phrase	1	13	match	plus	5	1	y	0.53631
37.987700000000004	0.0	+	4	verb	phrase	1	14	match	plus	5	1	y	0.53631
37.925	0.0	[response]	4	verb	phrase	1	15	match	plus	5	1	y	0.53631
39.7869	0.0	+	5	noun	phrase	1	1	nomatch	sans	-1	1	p	0.61122
40.3373	0.2	qdbntr	5	noun	phrase	1	2	nomatch	sans	-1	1	p	0.61122
40.536699999999996	0.0	+	5	noun	phrase	1	3	nomatch	sans	-1	1	p	0.61122
40.936499999999995	0.2	jqbv	5	noun	phrase	1	4	nomatch	sans	-1	1	p	0.61122
41.15339999999999	0.0	+	5	noun	phrase	1	5	nomatch	sans	-1	1	p	0.61122
41.53609999999999	0.2	wqp	5	noun	phrase	1	6	nomatch	sans	-1	1	p	0.61122
41.73609999999999	0.0	+	5	noun	phrase	1	7	nomatch	sans	-1	1	p	0.61122
42.13589999999999	0.2	xjplbd	5	noun	phrase	1	8	nomatch	sans	-1	1	p	0.61122
42.33579999999999	0.0	+	5	noun	phrase	1	9	nomatch	sans	-1	1	p	0.61122
42.73559999999999	0.2	grand	5	noun	phrase	1	10	nomatch	sans	-1	1	p	0.61122
42.93549999999999	0.0	+	5	noun	phrase	1	11	nomatch	sans	-1	1	p	0.61122
43.335300000000004	0.0	+	5	noun	phrase	1	12	nomatch	sans	-1	1	p	0.61122
45.33449999999999	0.0	SANS	5	noun	phrase	1	13	nomatch	sans	-1	1	p	0.61122
46.0008	0.0	+	5	noun	phrase	1	14	nomatch	sans	-1	1	p	0.61122
45.9457	0.0	[response]	5	noun	phrase	1	15	nomatch	sans	-1	1	p	0.61122
47.75	0.0	+	6	noun	phrase	2	1	match	panier	5	1	y	0.58105
48.29979999999999	0.2	xczphk	6	noun	phrase	2	2	match	panier	5	1	y	0.58105
48.49969999999999	0.0	+	6	noun	phrase	2	3	match	panier	5	1	y	0.58105
48.8995	0.2	hqjx	6	noun	phrase	2	4	match	panier	5	1	y	0.58105
49.0994	0.0	+	6	noun	phrase	2	5	match	panier	5	1	y	0.58105
49.49929999999999	0.2	xzdl	6	noun	phrase	2	6	match	panier	5	1	y	0.58105
49.69919999999999	0.0	+	6	noun	phrase	2	7	match	panier	5	1	y	0.58105
50.116299999999995	0.2	beau	6	noun	phrase	2	8	match	panier	5	1	y	0.58105
50.2993	0.0	+	6	noun	phrase	2	9	match	panier	5	1	y	0.58105
50.69919999999999	0.2	panier	6	noun	phrase	2	10	match	panier	5	1	y	0.58105
50.8986	0.0	+	6	noun	phrase	2	11	match	panier	5	1	y	0.58105
51.29849999999999	0.0	+	6	noun	phrase	2	12	match	panier	5	1	y	0.58105
53.2976	0.0	PANIER	6	noun	phrase	2	13	match	panier	5	1	y	0.58105
53.9306	0.0	+	6	noun	phrase	2	14	match	panier	5	1	y	0.58105
53.87859999999999	0.0	[response]	6	noun	phrase	2	15	match	panier	5	1	y	0.58105
55.6965	0.0	+	7	noun	phrase	2	1	match	sablier	4	1	y	1.2486
56.24629999999999	0.2	fbwrvtj	7	noun	phrase	2	2	match	sablier	4	1	y	1.2486
56.44619999999999	0.0	+	7	noun	phrase	2	3	match	sablier	4	1	y	1.2486
56.846000000000004	0.2	jqbv	7	noun	phrase	2	4	match	sablier	4	1	y	1.2486
57.0459	0.0	+	7	noun	phrase	2	5	match	sablier	4	1	y	1.2486
57.4457	0.2	rdq	7	noun	phrase	2	6	match	sablier	4	1	y	1.2486
57.6456	0.0	+	7	noun	phrase	2	7	match	sablier	4	1	y	1.2486
58.0454	0.2	sablier	7	noun	phrase	2	8	match	sablier	4	1	y	1.2486
58.245400000000004	0.0	+	7	noun	phrase	2	9	match	sablier	4	1	y	1.2486
58.64529999999999	0.2	rouge	7	noun	phrase	2	10	match	sablier	4	1	y	1.2486
58.861999999999995	0.0	+	7	noun	phrase	2	11	match	sablier	4	1	y	1.2486
59.24499999999999	0.0	+	7	noun	phrase	2	12	match	sablier	4	1	y	1.2486
61.244	0.0	SABLIER	7	noun	phrase	2	13	match	sablier	4	1	y	1.2486
62.56009999999999	0.0	+	7	noun	phrase	2	14	match	sablier	4	1	y	1.2486
62.4927	0.0	[response]	7	noun	phrase	2	15	match	sablier	4	1	y	1.2486
63.643	0.0	+	8	noun	list	1	1	match	mieux	5	1	y	0.37205
64.1927	0.2	csrq	8	noun	list	1	2	match	mieux	5	1	y	0.37205
64.3926	0.0	+	8	noun	list	1	3	match	mieux	5	1	y	0.37205
64.79249999999999	0.2	qsdf	8	noun	list	1	4	match	mieux	5	1	y	0.37205
64.9924	0.0	+	8	noun	list	1	5	match	mieux	5	1	y	0.37205
65.3922	0.2	xzdl	8	noun	list	1	6	match	mieux	5	1	y	0.37205
65.5921	0.0	+	8	noun	list	1	7	match	mieux	5	1	y	0.37205
65.99199999999999	0.2	fnvpbld	8	noun	list	1	8	match	mieux	5	1	y	0.37205
66.1925	0.0	+	8	noun	list	1	9	match	mieux	5	1	y	0.37205
66.60889999999999	0.2	mieux	8	noun	list	1	10	match	mieux	5	1	y	0.37205
66.7923	0.0	+	8	noun	list	1	11	match	mieux	5	1	y	0.37205
67.1917	0.0	+	8	noun	list	1	12	match	mieux	5	1	y	0.37205
69.1905	0.0	MIEUX	8	noun	list	1	13	match	mieux	5	1	y	0.37205
69.64059999999999	0.0	+	8	noun	list	1	14	match	mieux	5	1	y	0.37205
69.5625	0.0	[response]	8	noun	list	1	15	match	mieux	5	1	y	0.37205
71.5894	0.0	+	9	noun	list	4	1	match	rocher	4	1	y	0.75497
72.1392	0.2	lwq	9	noun	list	4	2	match	rocher	4	1	y	0.75497
72.3391	0.0	+	9	noun	list	4	3	match	rocher	4	1	y	0.75497
72.7392	0.2	sur	9	noun	list	4	4	match	rocher	4	1	y	0.75497
72.9395	0.0	+	9	noun	list	4	5	match	rocher	4	1	y	0.75497
73.356	0.2	va	9	noun	list	4	6	match	rocher	4	1	y	0.75497
73.5393	0.0	+	9	noun	list	4	7	match	rocher	4	1	y	0.75497
73.9384	0.2	rocher	9	noun	list	4	8	match	rocher	4	1	y	0.75497
74.1383	0.0	+	9	noun	list	4	9	match	rocher	4	1	y	0.75497
74.5381	0.2	tôt	9	noun	list	4	10	match	rocher	4	1	y	0.75497
74.73799999999999	0.0	+	9	noun	list	4	11	match	rocher	4	1	y	0.75497
75.13779999999998	0.0	+	9	noun	list	4	12	match	rocher	4	1	y	0.75497
77.13689999999998	0.0	ROCHER	9	noun	list	4	13	match	rocher	4	1	y	0.75497
78.03689999999999	0.0	+	9	noun	list	4	14	match	rocher	4	1	y	0.75497
77.8919	0.0	[response]	9	noun	list	4	15	match	rocher	4	1	y	0.75497
79.53589999999998	0.0	+	10	verb	phrase	1	1	nomatch	paul	-1	1	p	0.66445
80.08559999999999	0.2	tbq	10	verb	phrase	1	2	nomatch	paul	-1	1	p	0.66445
80.2855	0.0	+	10	verb	phrase	1	3	nomatch	paul	-1	1	p	0.66445
80.6854	0.2	qsdf	10	verb	phrase	1	4	nomatch	paul	-1	1	p	0.66445
80.88529999999999	0.0	+	10	verb	phrase	1	5	nomatch	paul	-1	1	p	0.66445
81.28509999999999	0.2	vcmh	10	verb	phrase	1	6	nomatch	paul	-1	1	p	0.66445
81.485	0.0	+	10	verb	phrase	1	7	nomatch	paul	-1	1	p	0.66445
81.8848	0.2	zfkw	10	verb	phrase	1	8	nomatch	paul	-1	1	p	0.66445
82.08469999999998	0.0	+	10	verb	phrase	1	9	nomatch	paul	-1	1	p	0.66445
82.485	0.2	galoper	10	verb	phrase	1	10	nomatch	paul	-1	1	p	0.66445
82.68499999999999	0.0	+	10	verb	phrase	1	11	nomatch	paul	-1	1	p	0.66445
83.1014	0.0	+	10	verb	phrase	1	12	nomatch	paul	-1	1	p	0.66445
85.1005	0.0	PAUL	10	verb	phrase	1	13	nomatch	paul	-1	1	p	0.66445
85.8164	0.0	+	10	verb	phrase	1	14	nomatch	paul	-1	1	p	0.66445
85.7649	0.0	[response]	10	verb	phrase	1	15	nomatch	paul	-1	1	p	0.66445
87.49900000000001	0.0	+	11	noun	list	1	1	nomatch	panier	-1	1	p	0.78061
88.04870000000001	0.2	dsklvq	11	noun	list	1	2	nomatch	panier	-1	1	p	0.78061
88.2486	0.0	+	11	noun	list	1	3	nomatch	panier	-1	1	p	0.78061
88.6485	0.2	zndv	11	noun	list	1	4	nomatch	panier	-1	1	p	0.78061
88.84839999999998	0.0	+	11	noun	list	1	5	nomatch	panier	-1	1	p	0.78061
89.24849999999999	0.2	xzdl	11	noun	list	1	6	nomatch	panier	-1	1	p	0.78061
89.4655	0.0	+	11	noun	list	1	7	nomatch	panier	-1	1	p	0.78061
89.84830000000001	0.2	pmsdbjzx	11	noun	list	1	8	nomatch	panier	-1	1	p	0.78061
90.04809999999999	0.0	+	11	noun	list	1	9	nomatch	panier	-1	1	p	0.78061
90.4483	0.2	casier	11	noun	list	1	10	nomatch	panier	-1	1	p	0.78061
90.6476	0.0	+	11	noun	list	1	11	nomatch	panier	-1	1	p	0.78061
91.0474	0.0	+	11	noun	list	1	12	nomatch	panier	-1	1	p	0.78061
93.0465	0.0	PANIER	11	noun	list	1	13	nomatch	panier	-1	1	p	0.78061
93.8795	0.0	+	11	noun	list	1	14	nomatch	panier	-1	1	p	0.78061
93.82709999999999	0.0	[response]	11	noun	list	1	15	nomatch	panier	-1	1	p	0.78061
95.44539999999999	0.0	+	12	verb	list	1	1	match	noir	5	1	y	0.69623
95.9952	0.2	nsphz	12	verb	list	1	2	match	noir	5	1	y	0.69623
96.19510000000001	0.0	+	12	verb	list	1	3	match	noir	5	1	y	0.69623
96.59490000000001	0.2	vqf	12	verb	list	1	4	match	noir	5	1	y	0.69623
96.7948	0.0	+	12	verb	list	1	5	match	noir	5	1	y	0.69623
97.19510000000001	0.2	wqp	12	verb	list	1	6	match	noir	5	1	y	0.69623
97.39489999999999	0.0	+	12	verb	list	1	7	match	noir	5	1	y	0.69623
97.79449999999999	0.2	btcks	12	verb	list	1	8	match	noir	5	1	y	0.69623
97.99489999999999	0.0	+	12	verb	list	1	9	match	noir	5	1	y	0.69623
98.3941	0.2	noir	12	verb	list	1	10	match	noir	5	1	y	0.69623
98.59400000000001	0.0	+	12	verb	list	1	11	match	noir	5	1	y	0.69623
98.99390000000001	0.0	+	12	verb	list	1	12	match	noir	5	1	y	0.69623
100.9935	0.0	NOIR	12	verb	list	1	13	match	noir	5	1	y	0.69623
101.7933	0.0	+	12	verb	list	1	14	match	noir	5	1	y	0.69623
101.6897	0.0	[response]	12	verb	list	1	15	match	noir	5	1	y	0.69623
111.4054	0.0	+	13	noun	list	1	1	match	tôt	5	1	y	0.66638
111.955	0.2	bqpr	13	noun	list	1	2	match	tôt	5	1	y	0.66638
112.1384	0.0	+	13	noun	list	1	3	match	tôt	5	1	y	0.66638
112.53779999999999	0.2	hqjx	13	noun	list	1	4	match	tôt	5	1	y	0.66638
112.7377	0.0	+	13	noun	list	1	5	match	tôt	5	1	y	0.66638
113.1376	0.2	vcmh	13	noun	list	1	6	match	tôt	5	1	y	0.66638
113.33749999999999	0.0	+	13	noun	list	1	7	match	tôt	5	1	y	0.66638
113.73729999999999	0.2	gmszdxh	13	noun	list	1	8	match	tôt	5	1	y	0.66638
113.9372	0.0	+	13	noun	list	1	9	match	tôt	5	1	y	0.66638
114.337	0.2	tôt	13	noun	list	1	10	match	tôt	5	1	y	0.66638
114.5371	0.0	+	13	noun	list	1	11	match	tôt	5	1	y	0.66638
114.95360000000001	0.0	+	13	noun	list	1	12	match	tôt	5	1	y	0.66638
116.93589999999999	0.0	TÔT	13	noun	list	1	13	match	tôt	5	1	y	0.66638
117.66959999999999	0.0	+	13	noun	list	1	14	match	tôt	5	1	y	0.66638
117.6022	0.0	[response]	13	noun	list	1	15	match	tôt	5	1	y	0.66638
119.33479999999999	0.0	+	14	noun	list	1	1	nomatch	peut	-1	1	p	0.61164
119.88449999999999	0.2	przjghk	14	noun	list	1	2	nomatch	peut	-1	1	p	0.61164
120.0845	0.0	+	14	noun	list	1	3	nomatch	peut	-1	1	p	0.61164
120.4843	0.2	vrzh	14	noun	list	1	4	nomatch	peut	-1	1	p	0.61164
120.68419999999999	0.0	+	14	noun	list	1	5	nomatch	peut	-1	1	p	0.61164
121.08399999999999	0.2	sk	14	noun	list	1	6	nomatch	peut	-1	1	p	0.61164
121.2839	0.0	+	14	noun	list	1	7	nomatch	peut	-1	1	p	0.61164
121.6837	0.2	wltv	14	noun	list	1	8	nomatch	peut	-1	1	p	0.61164
121.88359999999999	0.0	+	14	noun	list	1	9	nomatch	peut	-1	1	p	0.61164
122.30040000000001	0.2	casier	14	noun	list	1	10	nomatch	peut	-1	1	p	0.61164
122.50009999999999	0.0	+	14	noun	list	1	11	nomatch	peut	-1	1	p	0.61164
122.9004	0.0	+	14	noun	list	1	12	nomatch	peut	-1	1	p	0.61164
124.89899999999999	0.0	PEUT	14	noun	list	1	13	nomatch	peut	-1	1	p	0.61164
125.5654	0.0	+	14	noun	list	1	14	nomatch	peut	-1	1	p	0.61164
125.5106	0.0	[response]	14	noun	list	1	15	nomatch	peut	-1	1	p	0.61164
127.33129999999998	0.0	+	15	verb	list	3	1	match	noir	5	1	y	0.85953
127.86469999999998	0.2	qzv	15	verb	list	3	2	match	noir	5	1	y	0.85953
128.04770000000002	0.0	+	15	verb	list	3	3	match	noir	5	1	y	0.85953
128.44799999999998	0.2	gpqk	15	verb	list	3	4	match	noir	5	1	y	0.85953
128.64729999999997	0.0	+	15	verb	list	3	5	match	noir	5	1	y	0.85953
129.0471	0.2	son	15	verb	list	3	6	match	noir	5	1	y	0.85953
129.247	0.0	+	15	verb	list	3	7	match	noir	5	1	y	0.85953
129.64690000000002	0.2	plonger	15	verb	list	3	8	match	noir	5	1	y	0.85953
129.84679999999997	0.0	+	15	verb	list	3	9	match	noir	5	1	y	0.85953
130.2466	0.2	noir	15	verb	list	3	10	match	noir	5	1	y	0.85953
130.44650000000001	0.0	+	15	verb	list	3	11	match	noir	5	1	y	0.85953
130.84629999999999	0.0	+	15	verb	list	3	12	match	noir	5	1	y	0.85953
132.84589999999997	0.0	NOIR	15	verb	list	3	13	match	noir	5	1	y	0.85953
133.76170000000002	0.0	+	15	verb	list	3	14	match	noir	5	1	y	0.85953
133.7054	0.0	[response]	15	verb	list	3	15	match	noir	5	1	y	0.85953
135.24439999999998	0.0	+	16	verb	phrase	2	1	match	chasser	4	1	y	0.57914
135.79410000000001	0.2	xqn	16	verb	phrase	2	2	match	chasser	4	1	y	0.57914
135.99399999999997	0.0	+	16	verb	phrase	2	3	match	chasser	4	1	y	0.57914
136.39389999999997	0.2	gxnp	16	verb	phrase	2	4	match	chasser	4	1	y	0.57914
136.5938	0.0	+	16	verb	phrase	2	5	match	chasser	4	1	y	0.57914
136.99360000000001	0.2	sk	16	verb	phrase	2	6	match	chasser	4	1	y	0.57914
137.21069999999997	0.0	+	16	verb	phrase	2	7	match	chasser	4	1	y	0.57914
137.59339999999997	0.2	chasser	16	verb	phrase	2	8	match	chasser	4	1	y	0.57914
137.81040000000002	0.0	+	16	verb	phrase	2	9	match	chasser	4	1	y	0.57914
138.19349999999997	0.2	tôt	16	verb	phrase	2	10	match	chasser	4	1	y	0.57914
138.39370000000002	0.0	+	16	verb	phrase	2	11	match	chasser	4	1	y	0.57914
138.7928	0.0	+	16	verb	phrase	2	12	match	chasser	4	1	y	0.57914
140.79219999999998	0.0	CHASSER	16	verb	phrase	2	13	match	chasser	4	1	y	0.57914
141.425	0.0	+	16	verb	phrase	2	14	match	chasser	4	1	y	0.57914
141.37130000000002	0.0	[response]	16	verb	phrase	2	15	match	chasser	4	1	y	0.57914
143.19080000000002	0.0	+	17	noun	phrase	4	1	nomatch	leur	-1	1	p	0.85573
143.74130000000002	0.2	vlbzkr	17	noun	phrase	4	2	nomatch	leur	-1	1	p	0.85573
143.95749999999998	0.0	+	17	noun	phrase	4	3	nomatch	leur	-1	1	p	0.85573
144.3403	0.2	sans	17	noun	phrase	4	4	nomatch	leur	-1	1	p	0.85573
144.54090000000002	0.0	+	17	noun	phrase	4	5	nomatch	leur	-1	1	p	0.85573
144.94009999999997	0.2	son	17	noun	phrase	4	6	nomatch	leur	-1	1	p	0.85573
145.1399	0.0	+	17	noun	phrase	4	7	nomatch	leur	-1	1	p	0.85573
145.5398	0.2	petit	17	noun	phrase	4	8	nomatch	leur	-1	1	p	0.85573
145.73969999999997	0.0	+	17	noun	phrase	4	9	nomatch	leur	-1	1	p	0.85573
146.1395	0.2	clavier	17	noun	phrase	4	10	nomatch	leur	-1	1	p	0.85573
146.3394	0.0	+	17	noun	phrase	4	11	nomatch	leur	-1	1	p	0.85573
146.73919999999998	0.0	+	17	noun	phrase	4	12	nomatch	leur	-1	1	p	0.85573
148.7387	0.0	LEUR	17	noun	phrase	4	13	nomatch	leur	-1	1	p	0.85573
149.6879	0.0	+	17	noun	phrase	4	14	nomatch	leur	-1	1	p	0.85573
149.5944	0.0	[response]	17	noun	phrase	4	15	nomatch	leur	-1	1	p	0.85573
151.13729999999998	0.0	+	18	noun	phrase	1	1	nomatch	peut	-1	1	p	0.70572
151.687	0.2	mqrph	18	noun	phrase	1	2	nomatch	peut	-1	1	p	0.70572
151.88689999999997	0.0	+	18	noun	phrase	1	3	nomatch	peut	-1	1	p	0.70572
152.28679999999997	0.2	vrzh	18	noun	phrase	1	4	nomatch	peut	-1	1	p	0.70572
152.48669999999998	0.0	+	18	noun	phrase	1	5	nomatch	peut	-1	1	p	0.70572
152.8865	0.2	xzdl	18	noun	phrase	1	6	nomatch	peut	-1	1	p	0.70572
153.08639999999997	0.0	+	18	noun	phrase	1	7	nomatch	peut	-1	1	p	0.70572
153.4869	0.2	xbgvhml	18	noun	phrase	1	8	nomatch	peut	-1	1	p	0.70572
153.68619999999999	0.0	+	18	noun	phrase	1	9	nomatch	peut	-1	1	p	0.70572
154.1026	0.2	casier	18	noun	phrase	1	10	nomatch	peut	-1	1	p	0.70572
154.2862	0.0	+	18	noun	phrase	1	11	nomatch	peut	-1	1	p	0.70572
154.6857	0.0	+	18	noun	phrase	1	12	nomatch	peut	-1	1	p	0.70572
156.6848	0.0	PEUT	18	noun	phrase	1	13	nomatch	peut	-1	1	p	0.70572
157.4511	0.0	+	18	noun	phrase	1	14	nomatch	peut	-1	1	p	0.70572
157.39049999999997	0.0	[response]	18	noun	phrase	1	15	nomatch	peut	-1	1	p	0.70572
159.08370000000002	0.0	+	19	noun	phrase	1	1	nomatch	loin	-1	1	p	0.4361
159.63369999999998	0.2	gkhv	19	noun	phrase	1	2	nomatch	loin	-1	1	p	0.4361
159.8501	0.0	+	19	noun	phrase	1	3	nomatch	loin	-1	1	p	0.4361
160.25029999999998	0.2	rkh	19	noun	phrase	1	4	nomatch	loin	-1	1	p	0.4361
160.4669	0.0	+	19	noun	phrase	1	5	nomatch	loin	-1	1	p	0.4361
160.85000000000002	0.2	rdq	19	noun	phrase	1	6	nomatch	loin	-1	1	p	0.4361
161.05020000000002	0.0	+	19	noun	phrase	1	7	nomatch	loin	-1	1	p	0.4361
161.4665	0.2	kgcwht	19	noun	phrase	1	8	nomatch	loin	-1	1	p	0.4361
161.64929999999998	0.0	+	19	noun	phrase	1	9	nomatch	loin	-1	1	p	0.4361
162.0491	0.2	rouge	19	noun	phrase	1	10	nomatch	loin	-1	1	p	0.4361
162.24900000000002	0.0	+	19	noun	phrase	1	11	nomatch	loin	-1	1	p	0.4361
162.6488	0.0	+	19	noun	phrase	1	12	nomatch	loin	-1	1	p	0.4361
164.6479	0.0	LOIN	19	noun	phrase	1	13	nomatch	loin	-1	1	p	0.4361
165.1477	0.0	+	19	noun	phrase	1	14	nomatch	loin	-1	1	p	0.4361
165.084	0.0	[response]	19	noun	phrase	1	15	nomatch	loin	-1	1	p	0.4361
167.0469	0.0	+	20	noun	list	3	1	nomatch	rocher	-1	1	p	0.97372
167.59660000000002	0.2	qbvw	20	noun	list	3	2	nomatch	rocher	-1	1	p	0.97372
167.79649999999998	0.0	+	20	noun	list	3	3	nomatch	rocher	-1	1	p	0.97372
168.19689999999997	0.2	qsdf	20	noun	list	3	4	nomatch	rocher	-1	1	p	0.97372
168.3965	0.0	+	20	noun	list	3	5	nomatch	rocher	-1	1	p	0.97372
168.7966	0.2	leur	20	noun	list	3	6	nomatch	rocher	-1	1	p	0.97372
168.9966	0.0	+	20	noun	list	3	7	nomatch	rocher	-1	1	p	0.97372
169.3958	0.2	beaucoup	20	noun	list	3	8	nomatch	rocher	-1	1	p	0.97372
169.59570000000002	0.0	+	20	noun	list	3	9	nomatch	rocher	-1	1	p	0.97372
169.9955	0.2	panier	20	noun	list	3	10	nomatch	rocher	-1	1	p	0.97372
170.1954	0.0	+	20	noun	list	3	11	nomatch	rocher	-1	1	p	0.97372
170.5953	0.0	+	20	noun	list	3	12	nomatch	rocher	-1	1	p	0.97372
172.59449999999998	0.0	ROCHER	20	noun	list	3	13	nomatch	rocher	-1	1	p	0.97372
173.6273	0.0	+	20	noun	list	3	14	nomatch	rocher	-1	1	p	0.97372
173.5682	0.0	[response]	20	noun	list	3	15	nomatch	rocher	-1	1	p	0.97372
174.99329999999998	0.0	+	21	verb	list	1	1	match	grand	5	1	y	0.93181
175.54309999999998	0.2	ncjkbvs	21	verb	list	1	2	match	grand	5	1	y	0.93181
175.743	0.0	+	21	verb	list	1	3	match	grand	5	1	y	0.93181
176.14280000000002	0.2	rkh	21	verb	list	1	4	match	grand	5	1	y	0.93181
176.34269999999998	0.0	+	21	verb	list	1	5	match	grand	5	1	y	0.93181
176.7425	0.2	sk	21	verb	list	1	6	match	grand	5	1	y	0.93181
176.94240000000002	0.0	+	21	verb	list	1	7	match	grand	5	1	y	0.93181
177.34230000000002	0.2	jmbzkhs	21	verb	list	1	8	match	grand	5	1	y	0.93181
177.54219999999998	0.0	+	21	verb	list	1	9	match	grand	5	1	y	0.93181
177.959	0.2	grand	21	verb	list	1	10	match	grand	5	1	y	0.93181
178.15929999999997	0.0	+	21	verb	list	1	11	match	grand	5	1	y	0.93181
178.5417	0.0	+	21	verb	list	1	12	match	grand	5	1	y	0.93181
180.5408	0.0	GRAND	21	verb	list	1	13	match	grand	5	1	y	0.93181
181.54039999999998	0.0	+	21	verb	list	1	14	match	grand	5	1	y	0.93181
181.4726	0.0	[response]	21	verb	list	1	15	match	grand	5	1	y	0.93181
182.9398	0.0	+	22	noun	list	1	1	nomatch	vers	-1	1	p	0.49997
183.48950000000002	0.2	tsp	22	noun	list	1	2	nomatch	vers	-1	1	p	0.49997
183.68939999999998	0.0	+	22	noun	list	1	3	nomatch	vers	-1	1	p	0.49997
184.08929999999998	0.2	qsdf	22	noun	list	1	4	nomatch	vers	-1	1	p	0.49997
184.2892	0.0	+	22	noun	list	1	5	nomatch	vers	-1	1	p	0.49997
184.68900000000002	0.2	wqp	22	noun	list	1	6	nomatch	vers	-1	1	p	0.49997
184.88889999999998	0.0	+	22	noun	list	1	7	nomatch	vers	-1	1	p	0.49997
185.2892	0.2	brkds	22	noun	list	1	8	nomatch	vers	-1	1	p	0.49997
185.4891	0.0	+	22	noun	list	1	9	nomatch	vers	-1	1	p	0.49997
185.88889999999998	0.2	tablier	22	noun	list	1	10	nomatch	vers	-1	1	p	0.49997
186.08870000000002	0.0	+	22	noun	list	1	11	nomatch	vers	-1	1	p	0.49997
186.4882	0.0	+	22	noun	list	1	12	nomatch	vers	-1	1	p	0.49997
188.488	0.0	VERS	22	noun	list	1	13	nomatch	vers	-1	1	p	0.49997
189.0704	0.0	+	22	noun	list	1	14	nomatch	vers	-1	1	p	0.49997
188.988	0.0	[response]	22	noun	list	1	15	nomatch	vers	-1	1	p	0.49997
190.88619999999997	0.0	+	23	noun	list	2	1	match	panier	5	1	y	0.84075
191.43599999999998	0.2	wvg	23	noun	list	2	2	match	panier	5	1	y	0.84075
191.6359	0.0	+	23	noun	list	2	3	match	panier	5	1	y	0.84075
192.03570000000002	0.2	gtzv	23	noun	list	2	4	match	panier	5	1	y	0.84075
192.23559999999998	0.0	+	23	noun	list	2	5	match	panier	5	1	y	0.84075
192.6354	0.2	rdq	23	noun	list	2	6	match	panier	5	1	y	0.84075
192.8354	0.0	+	23	noun	list	2	7	match	panier	5	1	y	0.84075
193.23520000000002	0.2	beaucoup	23	noun	list	2	8	match	panier	5	1	y	0.84075
193.43579999999997	0.0	+	23	noun	list	2	9	match	panier	5	1	y	0.84075
193.83530000000002	0.2	panier	23	noun	list	2	10	match	panier	5	1	y	0.84075
194.0355	0.0	+	23	noun	list	2	11	match	panier	5	1	y	0.84075
194.43529999999998	0.0	+	23	noun	list	2	12	match	panier	5	1	y	0.84075
196.4337	0.0	PANIER	23	noun	list	2	13	match	panier	5	1	y	0.84075
197.3333	0.0	+	23	noun	list	2	14	match	panier	5	1	y	0.84075
197.27450000000005	0.0	[response]	23	noun	list	2	15	match	panier	5	1	y	0.84075
206.8458	0.0	+	24	noun	phrase	2	1	match	nouveau	4	1	y	0.48435000000000006
207.39589999999998	0.2	lgxj	24	noun	phrase	2	2	match	nouveau	4	1	y	0.48435000000000006
207.6128	0.0	+	24	noun	phrase	2	3	match	nouveau	4	1	y	0.48435000000000006
208.01259999999996	0.2	vrzh	24	noun	phrase	2	4	match	nouveau	4	1	y	0.48435000000000006
208.1959	0.0	+	24	noun	phrase	2	5	match	nouveau	4	1	y	0.48435000000000006
208.59569999999997	0.2	xzdl	24	noun	phrase	2	6	match	nouveau	4	1	y	0.48435000000000006
208.79489999999998	0.0	+	24	noun	phrase	2	7	match	nouveau	4	1	y	0.48435000000000006
209.19469999999995	0.2	nouveau	24	noun	phrase	2	8	match	nouveau	4	1	y	0.48435000000000006
209.39459999999997	0.0	+	24	noun	phrase	2	9	match	nouveau	4	1	y	0.48435000000000006
209.79449999999997	0.2	voilier	24	noun	phrase	2	10	match	nouveau	4	1	y	0.48435000000000006
209.99439999999998	0.0	+	24	noun	phrase	2	11	match	nouveau	4	1	y	0.48435000000000006
210.39419999999996	0.0	+	24	noun	phrase	2	12	match	nouveau	4	1	y	0.48435000000000006
212.39369999999997	0.0	NOUVEAU	24	noun	phrase	2	13	match	nouveau	4	1	y	0.48435000000000006
212.99349999999998	0.0	+	24	noun	phrase	2	14	match	nouveau	4	1	y	0.48435000000000006
212.87809999999996	0.0	[response]	24	noun	phrase	2	15	match	nouveau	4	1	y	0.48435000000000006
214.79219999999998	0.0	+	25	verb	list	2	1	match	bleu	5	1	y	0.39834
215.34199999999998	0.2	dpl	25	verb	list	2	2	match	bleu	5	1	y	0.39834
215.5419	0.0	+	25	verb	list	2	3	match	bleu	5	1	y	0.39834
215.94169999999997	0.2	tgcf	25	verb	list	2	4	match	bleu	5	1	y	0.39834
216.14159999999998	0.0	+	25	verb	list	2	5	match	bleu	5	1	y	0.39834
216.54149999999998	0.2	wqp	25	verb	list	2	6	match	bleu	5	1	y	0.39834
216.7414	0.0	+	25	verb	list	2	7	match	bleu	5	1	y	0.39834
217.14119999999997	0.2	rouler	25	verb	list	2	8	match	bleu	5	1	y	0.39834
217.34179999999998	0.0	+	25	verb	list	2	9	match	bleu	5	1	y	0.39834
217.7416	0.2	bleu	25	verb	list	2	10	match	bleu	5	1	y	0.39834
217.95779999999996	0.0	+	25	verb	list	2	11	match	bleu	5	1	y	0.39834
218.3413	0.0	+	25	verb	list	2	12	match	bleu	5	1	y	0.39834
220.33979999999997	0.0	BLEU	25	verb	list	2	13	match	bleu	5	1	y	0.39834
220.8062	0.0	+	25	verb	list	2	14	match	bleu	5	1	y	0.39834
220.73809999999997	0.0	[response]	25	verb	list	2	15	match	bleu	5	1	y	0.39834
222.7387	0.0	+	26	verb	phrase	3	1	nomatch	nouveau	-1	1	p	0.57487
223.28839999999997	0.2	wdmv	26	verb	phrase	3	2	nomatch	nouveau	-1	1	p	0.57487
223.48839999999996	0.0	+	26	verb	phrase	3	3	nomatch	nouveau	-1	1	p	0.57487
223.88819999999998	0.2	zndv	26	verb	phrase	3	4	nomatch	nouveau	-1	1	p	0.57487
224.0881	0.0	+	26	verb	phrase	3	5	nomatch	nouveau	-1	1	p	0.57487
224.48789999999997	0.2	peut	26	verb	phrase	3	6	nomatch	nouveau	-1	1	p	0.57487
224.68779999999998	0.0	+	26	verb	phrase	3	7	nomatch	nouveau	-1	1	p	0.57487
225.08819999999997	0.2	parader	26	verb	phrase	3	8	nomatch	nouveau	-1	1	p	0.57487
225.2883	0.0	+	26	verb	phrase	3	9	nomatch	nouveau	-1	1	p	0.57487
225.70439999999996	0.2	loin	26	verb	phrase	3	10	nomatch	nouveau	-1	1	p	0.57487
225.88779999999997	0.0	+	26	verb	phrase	3	11	nomatch	nouveau	-1	1	p	0.57487
226.30419999999998	0.0	+	26	verb	phrase	3	12	nomatch	nouveau	-1	1	p	0.57487
228.2862	0.0	NOUVEAU	26	verb	phrase	3	13	nomatch	nouveau	-1	1	p	0.57487
228.93619999999999	0.0	+	26	verb	phrase	3	14	nomatch	nouveau	-1	1	p	0.57487
228.86109999999996	0.0	[response]	26	verb	phrase	3	15	nomatch	nouveau	-1	1	p	0.57487
246.7285	0.0	+	27	noun	phrase	3	1	match	leur	3	1	y	0.82324
247.24509999999998	0.2	slxvd	27	noun	phrase	3	2	match	leur	3	1	y	0.82324
247.4443	0.0	+	27	noun	phrase	3	3	match	leur	3	1	y	0.82324
247.8442	0.2	nvmf	27	noun	phrase	3	4	match	leur	3	1	y	0.82324
248.04409999999996	0.0	+	27	noun	phrase	3	5	match	leur	3	1	y	0.82324
248.44389999999999	0.2	leur	27	noun	phrase	3	6	match	leur	3	1	y	0.82324
248.6438	0.0	+	27	noun	phrase	3	7	match	leur	3	1	y	0.82324
249.04359999999997	0.2	rocher	27	noun	phrase	3	8	match	leur	3	1	y	0.82324
249.24349999999998	0.0	+	27	noun	phrase	3	9	match	leur	3	1	y	0.82324
249.66069999999996	0.2	noir	27	noun	phrase	3	10	match	leur	3	1	y	0.82324
249.8433	0.0	+	27	noun	phrase	3	11	match	leur	3	1	y	0.82324
250.24309999999997	0.0	+	27	noun	phrase	3	12	match	leur	3	1	y	0.82324
252.24219999999997	0.0	LEUR	27	noun	phrase	3	13	match	leur	3	1	y	0.82324
253.2092	0.0	+	27	noun	phrase	3	14	match	leur	3	1	y	0.82324
253.0655	0.0	[response]	27	noun	phrase	3	15	match	leur	3	1	y	0.82324
254.6411	0.0	+	28	noun	list	1	1	match	panier	5	1	y	0.47857
255.1909	0.2	zxrwgp	28	noun	list	1	2	match	panier	5	1	y	0.47857
255.39079999999996	0.0	+	28	noun	list	1	3	match	panier	5	1	y	0.47857
255.79059999999998	0.2	gxnp	28	noun	list	1	4	match	panier	5	1	y	0.47857
255.9905	0.0	+	28	noun	list	1	5	match	panier	5	1	y	0.47857
256.39029999999997	0.2	rdq	28	noun	list	1	6	match	panier	5	1	y	0.47857
256.59029999999996	0.0	+	28	noun	list	1	7	match	panier	5	1	y	0.47857
256.9901	0.2	kbnfm	28	noun	list	1	8	match	panier	5	1	y	0.47857
257.19	0.0	+	28	noun	list	1	9	match	panier	5	1	y	0.47857
257.59049999999996	0.2	panier	28	noun	list	1	10	match	panier	5	1	y	0.47857
257.79019999999997	0.0	+	28	noun	list	1	11	match	panier	5	1	y	0.47857
258.18989999999997	0.0	+	28	noun	list	1	12	match	panier	5	1	y	0.47857
260.1887	0.0	PANIER	28	noun	list	1	13	match	panier	5	1	y	0.47857
260.7218	0.0	+	28	noun	list	1	14	match	panier	5	1	y	0.47857
260.6672	0.0	[response]	28	noun	list	1	15	match	panier	5	1	y	0.47857
270.584	0.0	+	29	noun	list	3	1	match	mon	3	1	y	0.48968
271.1338	0.2	cbn	29	noun	list	3	2	match	mon	3	1	y	0.48968
271.33369999999996	0.0	+	29	noun	list	3	3	match	mon	3	1	y	0.48968
271.73359999999997	0.2	tgcf	29	noun	list	3	4	match	mon	3	1	y	0.48968
271.93359999999996	0.0	+	29	noun	list	3	5	match	mon	3	1	y	0.48968
272.3503	0.2	mon	29	noun	list	3	6	match	mon	3	1	y	0.48968
272.55019999999996	0.0	+	29	noun	list	3	7	match	mon	3	1	y	0.48968
272.94989999999996	0.2	plus	29	noun	list	3	8	match	mon	3	1	y	0.48968
273.1669	0.0	+	29	noun	list	3	9	match	mon	3	1	y	0.48968
273.5494	0.2	boîtier	29	noun	list	3	10	match	mon	3	1	y	0.48968
273.7493	0.0	+	29	noun	list	3	11	match	mon	3	1	y	0.48968
274.1491	0.0	+	29	noun	list	3	12	match	mon	3	1	y	0.48968
276.1653	0.0	MON	29	noun	list	3	13	match	mon	3	1	y	0.48968
276.71459999999996	0.0	+	29	noun	list	3	14	match	mon	3	1	y	0.48968
276.655	0.0	[response]	29	noun	list	3	15	match	mon	3	1	y	0.48968
278.5471	0.0	+	30	noun	list	2	1	nomatch	nager	-1	0	TIMEOUT	-1.0
279.0969	0.2	sqw	30	noun	list	2	2	nomatch	nager	-1	0	TIMEOUT	-1.0
279.29679999999996	0.0	+	30	noun	list	2	3	nomatch	nager	-1	0	TIMEOUT	-1.0
279.6966	0.2	hqjx	30	noun	list	2	4	nomatch	nager	-1	0	TIMEOUT	-1.0
279.8972	0.0	+	30	noun	list	2	5	nomatch	nager	-1	0	TIMEOUT	-1.0
280.31379999999996	0.2	bzct	30	noun	list	2	6	nomatch	nager	-1	0	TIMEOUT	-1.0
280.49629999999996	0.0	+	30	noun	list	2	7	nomatch	nager	-1	0	TIMEOUT	-1.0
280.8961	0.2	voilier	30	noun	list	2	8	nomatch	nager	-1	0	TIMEOUT	-1.0
281.096	0.0	+	30	noun	list	2	9	nomatch	nager	-1	0	TIMEOUT	-1.0
281.4958	0.2	ainsi	30	noun	list	2	10	nomatch	nager	-1	0	TIMEOUT	-1.0
281.6957	0.0	+	30	noun	list	2	11	nomatch	nager	-1	0	TIMEOUT	-1.0
282.0956	0.0	+	30	noun	list	2	12	nomatch	nager	-1	0	TIMEOUT	-1.0
284.0947	0.0	NAGER	30	noun	list	2	13	nomatch	nager	-1	0	TIMEOUT	-1.0
286.49359999999996	0.0	+	31	verb	phrase	2	1	nomatch	leur	-1	1	p	0.4714
287.0933	0.2	zdm	31	verb	phrase	2	2	nomatch	leur	-1	1	p	0.4714
287.29319999999996	0.0	+	31	verb	phrase	2	3	nomatch	leur	-1	1	p	0.4714
287.69309999999996	0.2	qsdf	31	verb	phrase	2	4	nomatch	leur	-1	1	p	0.4714
287.893	0.0	+	31	verb	phrase	2	5	nomatch	leur	-1	1	p	0.4714
288.2928	0.2	sk	31	verb	phrase	2	6	nomatch	leur	-1	1	p	0.4714
288.49269999999996	0.0	+	31	verb	phrase	2	7	nomatch	leur	-1	1	p	0.4714
288.8925	0.2	moins	31	verb	phrase	2	8	nomatch	leur	-1	1	p	0.4714
289.0924	0.0	+	31	verb	phrase	2	9	nomatch	leur	-1	1	p	0.4714
289.4926	0.2	plonger	31	verb	phrase	2	10	nomatch	leur	-1	1	p	0.4714
289.69239999999996	0.0	+	31	verb	phrase	2	11	nomatch	leur	-1	1	p	0.4714
290.0925	0.0	+	31	verb	phrase	2	12	nomatch	leur	-1	1	p	0.4714
292.0911	0.0	LEUR	31	verb	phrase	2	13	nomatch	leur	-1	1	p	0.4714
292.6576	0.0	+	31	verb	phrase	2	14	nomatch	leur	-1	1	p	0.4714
292.56250000000006	0.0	[response]	31	verb	phrase	2	15	nomatch	leur	-1	1	p	0.4714
294.49	0.0	+	32	noun	phrase	1	1	nomatch	tablier	-1	1	p	0.6665
295.03979999999996	0.2	csg	32	noun	phrase	1	2	nomatch	tablier	-1	1	p	0.6665
295.23969999999997	0.0	+	32	noun	phrase	1	3	nomatch	tablier	-1	1	p	0.6665
295.6395	0.2	nvmf	32	noun	phrase	1	4	nomatch	tablier	-1	1	p	0.6665
295.83939999999996	0.0	+	32	noun	phrase	1	5	nomatch	tablier	-1	1	p	0.6665
296.2396	0.2	xzdl	32	noun	phrase	1	6	nomatch	tablier	-1	1	p	0.6665
296.43919999999997	0.0	+	32	noun	phrase	1	7	nomatch	tablier	-1	1	p	0.6665
296.8563	0.2	thdc	32	noun	phrase	1	8	nomatch	tablier	-1	1	p	0.6665
297.0394	0.0	+	32	noun	phrase	1	9	nomatch	tablier	-1	1	p	0.6665
297.4387	0.2	panier	32	noun	phrase	1	10	nomatch	tablier	-1	1	p	0.6665
297.6386	0.0	+	32	noun	phrase	1	11	nomatch	tablier	-1	1	p	0.6665
298.03839999999997	0.0	+	32	noun	phrase	1	12	nomatch	tablier	-1	1	p	0.6665
300.0379	0.0	TABLIER	32	noun	phrase	1	13	nomatch	tablier	-1	1	p	0.6665
300.8042	0.0	+	32	noun	phrase	1	14	nomatch	tablier	-1	1	p	0.6665
300.70439999999996	0.0	[response]	32	noun	phrase	1	15	nomatch	tablier	-1	1	p	0.6665
302.43649999999997	0.0	+	33	noun	phrase	3	1	nomatch	rocher	-1	1	p	0.62984
302.9867	0.2	chfqx	33	noun	phrase	3	2	nomatch	rocher	-1	1	p	0.62984
303.1861	0.0	+	33	noun	phrase	3	3	nomatch	rocher	-1	1	p	0.62984
303.58639999999997	0.2	ctdq	33	noun	phrase	3	4	nomatch	rocher	-1	1	p	0.62984
303.78589999999997	0.0	+	33	noun	phrase	3	5	nomatch	rocher	-1	1	p	0.62984
304.20239999999995	0.2	son	33	noun	phrase	3	6	nomatch	rocher	-1	1	p	0.62984
304.3856	0.0	+	33	noun	phrase	3	7	nomatch	rocher	-1	1	p	0.62984
304.7854	0.2	sablier	33	noun	phrase	3	8	nomatch	rocher	-1	1	p	0.62984
304.98539999999997	0.0	+	33	noun	phrase	3	9	nomatch	rocher	-1	1	p	0.62984
305.3852	0.2	blanc	33	noun	phrase	3	10	nomatch	rocher	-1	1	p	0.62984
305.58509999999995	0.0	+	33	noun	phrase	3	11	nomatch	rocher	-1	1	p	0.62984
305.9849	0.0	+	33	noun	phrase	3	12	nomatch	rocher	-1	1	p	0.62984
307.984	0.0	ROCHER	33	noun	phrase	3	13	nomatch	rocher	-1	1	p	0.62984
308.6671	0.0	+	33	noun	phrase	3	14	nomatch	rocher	-1	1	p	0.62984
308.6139	0.0	[response]	33	noun	phrase	3	15	nomatch	rocher	-1	1	p	0.62984
310.39959999999996	0.0	+	34	noun	phrase	1	1	nomatch	petit	-1	1	p	0.7253
310.94939999999997	0.2	gpmk	34	noun	phrase	1	2	nomatch	petit	-1	1	p	0.7253
311.1493	0.0	+	34	noun	phrase	1	3	nomatch	petit	-1	1	p	0.7253
311.5491	0.2	hrms	34	noun	phrase	1	4	nomatch	petit	-1	1	p	0.7253
311.74899999999997	0.0	+	34	noun	phrase	1	5	nomatch	petit	-1	1	p	0.7253
312.1488	0.2	wqp	34	noun	phrase	1	6	nomatch	petit	-1	1	p	0.7253
312.3487	0.0	+	34	noun	phrase	1	7	nomatch	petit	-1	1	p	0.7253
312.7486	0.2	rtlpm	34	noun	phrase	1	8	nomatch	petit	-1	1	p	0.7253
312.9491	0.0	+	34	noun	phrase	1	9	nomatch	petit	-1	1	p	0.7253
313.3485	0.2	boîtier	34	noun	phrase	1	10	nomatch	petit	-1	1	p	0.7253
313.5482	0.0	+	34	noun	phrase	1	11	nomatch	petit	-1	1	p	0.7253
313.948	0.0	+	34	noun	phrase	1	12	nomatch	petit	-1	1	p	0.7253
315.96439999999996	0.0	PETIT	34	noun	phrase	1	13	nomatch	petit	-1	1	p	0.7253
316.7468	0.0	+	34	noun	phrase	1	14	nomatch	petit	-1	1	p	0.7253
316.6897	0.0	[response]	34	noun	phrase	1	15	nomatch	petit	-1	1	p	0.7253
318.3461	0.0	+	35	verb	phrase	4	1	nomatch	yves	-1	1	p	0.88619
318.8958	0.2	jzqhr	35	verb	phrase	4	2	nomatch	yves	-1	1	p	0.88619
319.09569999999997	0.0	+	35	verb	phrase	4	3	nomatch	yves	-1	1	p	0.88619
319.49559999999997	0.2	adam	35	verb	phrase	4	4	nomatch	yves	-1	1	p	0.88619
319.6955	0.0	+	35	verb	phrase	4	5	nomatch	yves	-1	1	p	0.88619
320.09569999999997	0.2	va	35	verb	phrase	4	6	nomatch	yves	-1	1	p	0.88619
320.29589999999996	0.0	+	35	verb	phrase	4	7	nomatch	yves	-1	1	p	0.88619
320.69509999999997	0.2	plonger	35	verb	phrase	4	8	nomatch	yves	-1	1	p	0.88619
320.8952	0.0	+	35	verb	phrase	4	9	nomatch	yves	-1	1	p	0.88619
321.2947	0.2	ainsi	35	verb	phrase	4	10	nomatch	yves	-1	1	p	0.88619
321.49469999999997	0.0	+	35	verb	phrase	4	11	nomatch	yves	-1	1	p	0.88619
321.8945	0.0	+	35	verb	phrase	4	12	nomatch	yves	-1	1	p	0.88619
323.8938	0.0	YVES	35	verb	phrase	4	13	nomatch	yves	-1	1	p	0.88619
324.84319999999997	0.0	+	35	verb	phrase	4	14	nomatch	yves	-1	1	p	0.88619
324.78	0.0	[response]	35	verb	phrase	4	15	nomatch	yves	-1	1	p	0.88619
326.29249999999996	0.0	+	36	noun	phrase	3	1	nomatch	son	-1	0	TIMEOUT	-1.0
326.84229999999997	0.2	kzlcsng	36	noun	phrase	3	2	nomatch	son	-1	0	TIMEOUT	-1.0
327.0422	0.0	+	36	noun	phrase	3	3	nomatch	son	-1	0	TIMEOUT	-1.0
327.442	0.2	rkh	36	noun	phrase	3	4	nomatch	son	-1	0	TIMEOUT	-1.0
327.64189999999996	0.0	+	36	noun	phrase	3	5	nomatch	son	-1	0	TIMEOUT	-1.0
328.0417	0.2	mon	36	noun	phrase	3	6	nomatch	son	-1	0	TIMEOUT	-1.0
328.2416	0.0	+	36	noun	phrase	3	7	nomatch	son	-1	0	TIMEOUT	-1.0
328.6416	0.2	nouveau	36	noun	phrase	3	8	nomatch	son	-1	0	TIMEOUT	-1.0
328.8588	0.0	+	36	noun	phrase	3	9	nomatch	son	-1	0	TIMEOUT	-1.0
329.2415	0.2	sablier	36	noun	phrase	3	10	nomatch	son	-1	0	TIMEOUT	-1.0
329.4418	0.0	+	36	noun	phrase	3	11	nomatch	son	-1	0	TIMEOUT	-1.0
329.8409	0.0	+	36	noun	phrase	3	12	nomatch	son	-1	0	TIMEOUT	-1.0
331.84	0.0	SON	36	noun	phrase	3	13	nomatch	son	-1	0	TIMEOUT	-1.0
334.239	0.0	+	37	verb	list	1	1	match	parader	5	1	y	0.4528
334.83869999999996	0.2	kqsmbvw	37	verb	list	1	2	match	parader	5	1	y	0.4528
335.0386	0.0	+	37	verb	list	1	3	match	parader	5	1	y	0.4528
335.4384	0.2	gpqk	37	verb	list	1	4	match	parader	5	1	y	0.4528
335.6384	0.0	+	37	verb	list	1	5	match	parader	5	1	y	0.4528
336.0385	0.2	rdq	37	verb	list	1	6	match	parader	5	1	y	0.4528
336.2387	0.0	+	37	verb	list	1	7	match	parader	5	1	y	0.4528
336.6386	0.2	thdc	37	verb	list	1	8	match	parader	5	1	y	0.4528
336.8382	0.0	+	37	verb	list	1	9	match	parader	5	1	y	0.4528
337.23839999999996	0.2	parader	37	verb	list	1	10	match	parader	5	1	y	0.4528
337.4376	0.0	+	37	verb	list	1	11	match	parader	5	1	y	0.4528
337.8374	0.0	+	37	verb	list	1	12	match	parader	5	1	y	0.4528
339.8536	0.0	PARADER	37	verb	list	1	13	match	parader	5	1	y	0.4528
340.3696	0.0	+	37	verb	list	1	14	match	parader	5	1	y	0.4528
340.3064	0.0	[response]	37	verb	list	1	15	match	parader	5	1	y	0.4528
342.23539999999997	0.0	+	38	noun	phrase	4	1	nomatch	boîtier	-1	1	p	0.80378
342.8021	0.2	mzwrcbf	38	noun	phrase	4	2	nomatch	boîtier	-1	1	p	0.80378
342.9853	0.0	+	38	noun	phrase	4	3	nomatch	boîtier	-1	1	p	0.80378
343.3854	0.2	vers	38	noun	phrase	4	4	nomatch	boîtier	-1	1	p	0.80378
343.6019	0.0	+	38	noun	phrase	4	5	nomatch	boîtier	-1	1	p	0.80378
343.9846	0.2	leur	38	noun	phrase	4	6	nomatch	boîtier	-1	1	p	0.80378
344.18449999999996	0.0	+	38	noun	phrase	4	7	nomatch	boîtier	-1	1	p	0.80378
344.58439999999996	0.2	grand	38	noun	phrase	4	8	nomatch	boîtier	-1	1	p	0.80378
344.7843	0.0	+	38	noun	phrase	4	9	nomatch	boîtier	-1	1	p	0.80378
345.1841	0.2	tablier	38	noun	phrase	4	10	nomatch	boîtier	-1	1	p	0.80378
345.38399999999996	0.0	+	38	noun	phrase	4	11	nomatch	boîtier	-1	1	p	0.80378
345.7838	0.0	+	38	noun	phrase	4	12	nomatch	boîtier	-1	1	p	0.80378
347.7997	0.0	BOÎTIER	38	noun	phrase	4	13	nomatch	boîtier	-1	1	p	0.80378
348.6825	0.0	+	38	noun	phrase	4	14	nomatch	boîtier	-1	1	p	0.80378
348.6035	0.0	[response]	38	noun	phrase	4	15	nomatch	boîtier	-1	1	p	0.80378
350.19849999999997	0.0	+	39	noun	list	4	1	match	yves	2	1	y	0.54212
350.7483	0.2	bkmqlxt	39	noun	list	4	2	match	yves	2	1	y	0.54212
350.9482	0.0	+	39	noun	list	4	3	match	yves	2	1	y	0.54212
351.34799999999996	0.2	yves	39	noun	list	4	4	match	yves	2	1	y	0.54212
351.54789999999997	0.0	+	39	noun	list	4	5	match	yves	2	1	y	0.54212
351.9478	0.2	son	39	noun	list	4	6	match	yves	2	1	y	0.54212
352.1477	0.0	+	39	noun	list	4	7	match	yves	2	1	y	0.54212
352.5482	0.2	plus	39	noun	list	4	8	match	yves	2	1	y	0.54212
352.748	0.0	+	39	noun	list	4	9	match	yves	2	1	y	0.54212
353.16429999999997	0.2	panier	39	noun	list	4	10	match	yves	2	1	y	0.54212
353.3474	0.0	+	39	noun	list	4	11	match	yves	2	1	y	0.54212
353.7469	0.0	+	39	noun	list	4	12	match	yves	2	1	y	0.54212
355.74609999999996	0.0	YVES	39	noun	list	4	13	match	yves	2	1	y	0.54212
356.3458	0.0	+	39	noun	list	4	14	match	yves	2	1	y	0.54212
356.2882	0.0	[response]	39	noun	list	4	15	match	yves	2	1	y	0.54212
358.145	0.0	+	40	verb	phrase	3	1	match	plonger	5	0	p	0.87411
358.69469999999995	0.2	kgmxbp	40	verb	phrase	3	2	match	plonger	5	0	p	0.87411
358.8947	0.0	+	40	verb	phrase	3	3	match	plonger	5	0	p	0.87411
359.29449999999997	0.2	tgcf	40	verb	phrase	3	4	match	plonger	5	0	p	0.87411
359.4944	0.0	+	40	verb	phrase	3	5	match	plonger	5	0	p	0.87411
359.89419999999996	0.2	peut	40	verb	phrase	3	6	match	plonger	5	0	p	0.87411
360.0945	0.0	+	40	verb	phrase	3	7	match	plonger	5	0	p	0.87411
360.4944	0.2	beaucoup	40	verb	phrase	3	8	match	plonger	5	0	p	0.87411
360.7109	0.0	+	40	verb	phrase	3	9	match	plonger	5	0	p	0.87411
361.09369999999996	0.2	plonger	40	verb	phrase	3	10	match	plonger	5	0	p	0.87411
361.2942	0.0	+	40	verb	phrase	3	11	match	plonger	5	0	p	0.87411
361.6934	0.0	+	40	verb	phrase	3	12	match	plonger	5	0	p	0.87411
363.6928	0.0	PLONGER	40	verb	phrase	3	13	match	plonger	5	0	p	0.87411
364.7092	0.0	+	40	verb	phrase	3	14	match	plonger	5	0	p	0.87411
364.5669	0.0	[response]	40	verb	phrase	3	15	match	plonger	5	0	p	0.87411
366.09139999999996	0.0	+	41	noun	phrase	2	1	nomatch	nouveau	-1	0	TIMEOUT	-1.0
366.64119999999997	0.2	gmwczxf	41	noun	phrase	2	2	nomatch	nouveau	-1	0	TIMEOUT	-1.0
366.8411	0.0	+	41	noun	phrase	2	3	nomatch	nouveau	-1	0	TIMEOUT	-1.0
367.2415	0.2	hrms	41	noun	phrase	2	4	nomatch	nouveau	-1	0	TIMEOUT	-1.0
367.441	0.0	+	41	noun	phrase	2	5	nomatch	nouveau	-1	0	TIMEOUT	-1.0
367.8413	0.2	xzdl	41	noun	phrase	2	6	nomatch	nouveau	-1	0	TIMEOUT	-1.0
368.0411	0.0	+	41	noun	phrase	2	7	nomatch	nouveau	-1	0	TIMEOUT	-1.0
368.44039999999995	0.2	grand	41	noun	phrase	2	8	nomatch	nouveau	-1	0	TIMEOUT	-1.0
368.64029999999997	0.0	+	41	noun	phrase	2	9	nomatch	nouveau	-1	0	TIMEOUT	-1.0
369.0401	0.2	casier	41	noun	phrase	2	10	nomatch	nouveau	-1	0	TIMEOUT	-1.0
369.24	0.0	+	41	noun	phrase	2	11	nomatch	nouveau	-1	0	TIMEOUT	-1.0
369.63989999999995	0.0	+	41	noun	phrase	2	12	nomatch	nouveau	-1	0	TIMEOUT	-1.0
371.6397	0.0	NOUVEAU	41	noun	phrase	2	13	nomatch	nouveau	-1	0	TIMEOUT	-1.0
374.0379	0.0	+	42	verb	phrase	3	1	match	moins	4	0	p	0.81741
374.63759999999996	0.2	nhrqx	42	verb	phrase	3	2	match	moins	4	0	p	0.81741
374.8375	0.0	+	42	verb	phrase	3	3	match	moins	4	0	p	0.81741
375.2374	0.2	gtzv	42	verb	phrase	3	4	match	moins	4	0	p	0.81741
375.4373	0.0	+	42	verb	phrase	3	5	match	moins	4	0	p	0.81741
375.83709999999996	0.2	doit	42	verb	phrase	3	6	match	moins	4	0	p	0.81741
376.037	0.0	+	42	verb	phrase	3	7	match	moins	4	0	p	0.81741
376.4368	0.2	moins	42	verb	phrase	3	8	match	moins	4	0	p	0.81741
376.63669999999996	0.0	+	42	verb	phrase	3	9	match	moins	4	0	p	0.81741
377.03659999999996	0.2	nager	42	verb	phrase	3	10	match	moins	4	0	p	0.81741
377.2365	0.0	+	42	verb	phrase	3	11	match	moins	4	0	p	0.81741
377.63649999999996	0.0	+	42	verb	phrase	3	12	match	moins	4	0	p	0.81741
379.6354	0.0	MOINS	42	verb	phrase	3	13	match	moins	4	0	p	0.81741
380.5183	0.0	+	42	verb	phrase	3	14	match	moins	4	0	p	0.81741
380.45279999999997	0.0	[response]	42	verb	phrase	3	15	match	moins	4	0	p	0.81741
390.0474	0.0	+	43	noun	phrase	4	1	nomatch	pour	-1	1	p	0.59744
390.5974	0.2	zbnxrls	43	noun	phrase	4	2	nomatch	pour	-1	1	p	0.59744
390.7972	0.0	+	43	noun	phrase	4	3	nomatch	pour	-1	1	p	0.59744
391.2143	0.2	sans	43	noun	phrase	4	4	nomatch	pour	-1	1	p	0.59744
391.41409999999996	0.0	+	43	noun	phrase	4	5	nomatch	pour	-1	1	p	0.59744
391.79659999999996	0.2	son	43	noun	phrase	4	6	nomatch	pour	-1	1	p	0.59744
391.9966	0.0	+	43	noun	phrase	4	7	nomatch	pour	-1	1	p	0.59744
392.39639999999997	0.2	nouveau	43	noun	phrase	4	8	nomatch	pour	-1	1	p	0.59744
392.5963	0.0	+	43	noun	phrase	4	9	nomatch	pour	-1	1	p	0.59744
392.99609999999996	0.2	casier	43	noun	phrase	4	10	nomatch	pour	-1	1	p	0.59744
393.19599999999997	0.0	+	43	noun	phrase	4	11	nomatch	pour	-1	1	p	0.59744
393.5958	0.0	+	43	noun	phrase	4	12	nomatch	pour	-1	1	p	0.59744
395.5953	0.0	POUR	43	noun	phrase	4	13	nomatch	pour	-1	1	p	0.59744
396.2953	0.0	+	43	noun	phrase	4	14	nomatch	pour	-1	1	p	0.59744
396.1927	0.0	[response]	43	noun	phrase	4	15	nomatch	pour	-1	1	p	0.59744
397.9939	0.0	+	44	verb	phrase	2	1	nomatch	beaucoup	-1	1	p	0.63315
398.54359999999997	0.2	glq	44	verb	phrase	2	2	nomatch	beaucoup	-1	1	p	0.63315
398.7442	0.0	+	44	verb	phrase	2	3	nomatch	beaucoup	-1	1	p	0.63315
399.16069999999996	0.2	gtzv	44	verb	phrase	2	4	nomatch	beaucoup	-1	1	p	0.63315
399.3433	0.0	+	44	verb	phrase	2	5	nomatch	beaucoup	-1	1	p	0.63315
399.7432	0.2	sk	44	verb	phrase	2	6	nomatch	beaucoup	-1	1	p	0.63315
399.943	0.0	+	44	verb	phrase	2	7	nomatch	beaucoup	-1	1	p	0.63315
400.34279999999995	0.2	galoper	44	verb	phrase	2	8	nomatch	beaucoup	-1	1	p	0.63315
400.54269999999997	0.0	+	44	verb	phrase	2	9	nomatch	beaucoup	-1	1	p	0.63315
400.94259999999997	0.2	tôt	44	verb	phrase	2	10	nomatch	beaucoup	-1	1	p	0.63315
401.1425	0.0	+	44	verb	phrase	2	11	nomatch	beaucoup	-1	1	p	0.63315
401.5428	0.0	+	44	verb	phrase	2	12	nomatch	beaucoup	-1	1	p	0.63315
403.5414	0.0	BEAUCOUP	44	verb	phrase	2	13	nomatch	beaucoup	-1	1	p	0.63315
404.24109999999996	0.0	+	44	verb	phrase	2	14	nomatch	beaucoup	-1	1	p	0.63315
404.1746	0.0	[response]	44	verb	phrase	2	15	nomatch	beaucoup	-1	1	p	0.63315
405.94039999999995	0.0	+	45	verb	phrase	1	1	nomatch	chasser	-1	1	p	0.52451
406.4901	0.2	msqzht	45	verb	phrase	1	2	nomatch	chasser	-1	1	p	0.52451
406.69	0.0	+	45	verb	phrase	1	3	nomatch	chasser	-1	1	p	0.52451
407.08979999999997	0.2	tgcf	45	verb	phrase	1	4	nomatch	chasser	-1	1	p	0.52451
407.2897	0.0	+	45	verb	phrase	1	5	nomatch	chasser	-1	1	p	0.52451
407.6896	0.2	vcmh	45	verb	phrase	1	6	nomatch	chasser	-1	1	p	0.52451
407.8898	0.0	+	45	verb	phrase	1	7	nomatch	chasser	-1	1	p	0.52451
408.2897	0.2	wjpk	45	verb	phrase	1	8	nomatch	chasser	-1	1	p	0.52451
408.4892	0.0	+	45	verb	phrase	1	9	nomatch	chasser	-1	1	p	0.52451
408.889	0.2	plonger	45	verb	phrase	1	10	nomatch	chasser	-1	1	p	0.52451
409.08889999999997	0.0	+	45	verb	phrase	1	11	nomatch	chasser	-1	1	p	0.52451
409.48879999999997	0.0	+	45	verb	phrase	1	12	nomatch	chasser	-1	1	p	0.52451
411.48789999999997	0.0	CHASSER	45	verb	phrase	1	13	nomatch	chasser	-1	1	p	0.52451
412.0709	0.0	+	45	verb	phrase	1	14	nomatch	chasser	-1	1	p	0.52451
412.01239999999996	0.0	[response]	45	verb	phrase	1	15	nomatch	chasser	-1	1	p	0.52451
413.8868	0.0	+	46	noun	phrase	1	1	match	sablier	5	0	TIMEOUT	-1.0
414.4366	0.2	pkvc	46	noun	phrase	1	2	match	sablier	5	0	TIMEOUT	-1.0
414.63649999999996	0.0	+	46	noun	phrase	1	3	match	sablier	5	0	TIMEOUT	-1.0
415.0365	0.2	hqjx	46	noun	phrase	1	4	match	sablier	5	0	TIMEOUT	-1.0
415.23679999999996	0.0	+	46	noun	phrase	1	5	match	sablier	5	0	TIMEOUT	-1.0
415.63599999999997	0.2	xzdl	46	noun	phrase	1	6	match	sablier	5	0	TIMEOUT	-1.0
415.8359	0.0	+	46	noun	phrase	1	7	match	sablier	5	0	TIMEOUT	-1.0
416.2357	0.2	zgbqn	46	noun	phrase	1	8	match	sablier	5	0	TIMEOUT	-1.0
416.436	0.0	+	46	noun	phrase	1	9	match	sablier	5	0	TIMEOUT	-1.0
416.83549999999997	0.2	sablier	46	noun	phrase	1	10	match	sablier	5	0	TIMEOUT	-1.0
417.0354	0.0	+	46	noun	phrase	1	11	match	sablier	5	0	TIMEOUT	-1.0
417.4352	0.0	+	46	noun	phrase	1	12	match	sablier	5	0	TIMEOUT	-1.0
419.4343	0.0	SABLIER	46	noun	phrase	1	13	match	sablier	5	0	TIMEOUT	-1.0
421.8499	0.0	+	47	verb	list	1	1	match	petit	5	1	y	1.1576
422.4496	0.2	rzbm	47	verb	list	1	2	match	petit	5	1	y	1.1576
422.64959999999996	0.0	+	47	verb	list	1	3	match	petit	5	1	y	1.1576
423.0494	0.2	jqbv	47	verb	list	1	4	match	petit	5	1	y	1.1576
423.2493	0.0	+	47	verb	list	1	5	match	petit	5	1	y	1.1576
423.6491	0.2	bzct	47	verb	list	1	6	match	petit	5	1	y	1.1576
423.849	0.0	+	47	verb	list	1	7	match	petit	5	1	y	1.1576
424.2489	0.2	btcks	47	verb	list	1	8	match	petit	5	1	y	1.1576
424.4488	0.0	+	47	verb	list	1	9	match	petit	5	1	y	1.1576
424.8486	0.2	petit	47	verb	list	1	10	match	petit	5	1	y	1.1576
425.0485	0.0	+	47	verb	list	1	11	match	petit	5	1	y	1.1576
425.44829999999996	0.0	+	47	verb	list	1	12	match	petit	5	1	y	1.1576
427.4475	0.0	PETIT	47	verb	list	1	13	match	petit	5	1	y	1.1576
428.6636	0.0	+	47	verb	list	1	14	match	petit	5	1	y	1.1576
428.6051	0.0	[response]	47	verb	list	1	15	match	petit	5	1	y	1.1576
429.84639999999996	0.0	+	48	noun	list	2	1	nomatch	jean	-1	1	p	0.62805
430.3961	0.2	jnr	48	noun	list	2	2	nomatch	jean	-1	1	p	0.62805
430.596	0.0	+	48	noun	list	2	3	nomatch	jean	-1	1	p	0.62805
430.9958	0.2	ctdq	48	noun	list	2	4	nomatch	jean	-1	1	p	0.62805
431.19579999999996	0.0	+	48	noun	list	2	5	nomatch	jean	-1	1	p	0.62805
431.5956	0.2	vcmh	48	noun	list	2	6	nomatch	jean	-1	1	p	0.62805
431.7955	0.0	+	48	noun	list	2	7	nomatch	jean	-1	1	p	0.62805
432.1953	0.2	panier	48	noun	list	2	8	nomatch	jean	-1	1	p	0.62805
432.3956	0.0	+	48	noun	list	2	9	nomatch	jean	-1	1	p	0.62805
432.7957	0.2	tard	48	noun	list	2	10	nomatch	jean	-1	1	p	0.62805
432.9955	0.0	+	48	noun	list	2	11	nomatch	jean	-1	1	p	0.62805
433.4117	0.0	+	48	noun	list	2	12	nomatch	jean	-1	1	p	0.62805
435.3939	0.0	JEAN	48	noun	list	2	13	nomatch	jean	-1	1	p	0.62805
436.07689999999997	0.0	+	48	noun	list	2	14	nomatch	jean	-1	1	p	0.62805
436.02189999999996	0.0	[response]	48	noun	list	2	15	nomatch	jean	-1	1	p	0.62805
437.7928	0.0	+	49	verb	list	1	1	nomatch	nager	-1	1	p	0.62564
438.3426	0.2	wzd	49	verb	list	1	2	nomatch	nager	-1	1	p	0.62564
438.54249999999996	0.0	+	49	verb	list	1	3	nomatch	nager	-1	1	p	0.62564
438.95939999999996	0.2	vrzh	49	verb	list	1	4	nomatch	nager	-1	1	p	0.62564
439.1425	0.0	+	49	verb	list	1	5	nomatch	nager	-1	1	p	0.62564
439.542	0.2	bzct	49	verb	list	1	6	nomatch	nager	-1	1	p	0.62564
439.7419	0.0	+	49	verb	list	1	7	nomatch	nager	-1	1	p	0.62564
440.1418	0.2	nlrpk	49	verb	list	1	8	nomatch	nager	-1	1	p	0.62564
440.3417	0.0	+	49	verb	list	1	9	nomatch	nager	-1	1	p	0.62564
440.7415	0.2	voyager	49	verb	list	1	10	nomatch	nager	-1	1	p	0.62564
440.9414	0.0	+	49	verb	list	1	11	nomatch	nager	-1	1	p	0.62564
441.34119999999996	0.0	+	49	verb	list	1	12	nomatch	nager	-1	1	p	0.62564
443.34029999999996	0.0	NAGER	49	verb	list	1	13	nomatch	nager	-1	1	p	0.62564
444.0234	0.0	+	49	verb	list	1	14	nomatch	nager	-1	1	p	0.62564
443.96600000000007	0.0	[response]	49	verb	list	1	15	nomatch	nager	-1	1	p	0.62564
445.73929999999996	0.0	+	50	verb	phrase	1	1	match	parader	5	1	y	0.44887
446.289	0.2	crgwt	50	verb	phrase	1	2	match	parader	5	1	y	0.44887
446.4889	0.0	+	50	verb	phrase	1	3	match	parader	5	1	y	0.44887
446.8888	0.2	gpqk	50	verb	phrase	1	4	match	parader	5	1	y	0.44887
447.08869999999996	0.0	+	50	verb	phrase	1	5	match	parader	5	1	y	0.44887
447.4885	0.2	vcmh	50	verb	phrase	1	6	match	parader	5	1	y	0.44887
447.6884	0.0	+	50	verb	phrase	1	7	match	parader	5	1	y	0.44887
448.08869999999996	0.2	kbnfm	50	verb	phrase	1	8	match	parader	5	1	y	0.44887
448.28839999999997	0.0	+	50	verb	phrase	1	9	match	parader	5	1	y	0.44887
448.688	0.2	parader	50	verb	phrase	1	10	match	parader	5	1	y	0.44887
448.8879	0.0	+	50	verb	phrase	1	11	match	parader	5	1	y	0.44887
449.2877	0.0	+	50	verb	phrase	1	12	match	parader	5	1	y	0.44887
451.3037	0.0	PARADER	50	verb	phrase	1	13	match	parader	5	1	y	0.44887
451.82	0.0	+	50	verb	phrase	1	14	match	parader	5	1	y	0.44887
451.7526	0.0	[response]	50	verb	phrase	1	15	match	parader	5	1	y	0.44887
461.6988	0.0	+	51	noun	phrase	3	1	match	nouveau	4	1	y	0.99403
462.2486	0.2	wpqjzs	51	noun	phrase	3	2	match	nouveau	4	1	y	0.99403
462.44849999999997	0.0	+	51	noun	phrase	3	3	match	nouveau	4	1	y	0.99403
462.8483	0.2	ctdq	51	noun	phrase	3	4	match	nouveau	4	1	y	0.99403
463.04819999999995	0.0	+	51	noun	phrase	3	5	match	nouveau	4	1	y	0.99403
463.44859999999994	0.2	mon	51	noun	phrase	3	6	match	nouveau	4	1	y	0.99403
463.64829999999995	0.0	+	51	noun	phrase	3	7	match	nouveau	4	1	y	0.99403
464.04779999999994	0.2	nouveau	51	noun	phrase	3	8	match	nouveau	4	1	y	0.99403
464.2483	0.0	+	51	noun	phrase	3	9	match	nouveau	4	1	y	0.99403
464.64750000000004	0.2	clavier	51	noun	phrase	3	10	match	nouveau	4	1	y	0.99403
464.8474	0.0	+	51	noun	phrase	3	11	match	nouveau	4	1	y	0.99403
465.2472	0.0	+	51	noun	phrase	3	12	match	nouveau	4	1	y	0.99403
467.2463	0.0	NOUVEAU	51	noun	phrase	3	13	match	nouveau	4	1	y	0.99403
468.3462999999999	0.0	+	51	noun	phrase	3	14	match	nouveau	4	1	y	0.99403
468.2404	0.0	[response]	51	noun	phrase	3	15	match	nouveau	4	1	y	0.99403
469.6453	0.0	+	52	noun	list	3	1	match	va	3	1	y	0.48319
470.19499999999994	0.2	dqmfz	52	noun	list	3	2	match	va	3	1	y	0.48319
470.3949	0.0	+	52	noun	list	3	3	match	va	3	1	y	0.48319
470.7948	0.2	nvmf	52	noun	list	3	4	match	va	3	1	y	0.48319
470.99469999999997	0.0	+	52	noun	list	3	5	match	va	3	1	y	0.48319
471.39459999999997	0.2	va	52	noun	list	3	6	match	va	3	1	y	0.48319
471.6115	0.0	+	52	noun	list	3	7	match	va	3	1	y	0.48319
471.99479999999994	0.2	casier	52	noun	list	3	8	match	va	3	1	y	0.48319
472.19449999999995	0.0	+	52	noun	list	3	9	match	va	3	1	y	0.48319
472.59399999999994	0.2	tôt	52	noun	list	3	10	match	va	3	1	y	0.48319
472.7939	0.0	+	52	noun	list	3	11	match	va	3	1	y	0.48319
473.19370000000004	0.0	+	52	noun	list	3	12	match	va	3	1	y	0.48319
475.19309999999996	0.0	VA	52	noun	list	3	13	match	va	3	1	y	0.48319
475.74260000000004	0.0	+	52	noun	list	3	14	match	va	3	1	y	0.48319
475.6762	0.0	[response]	52	noun	list	3	15	match	va	3	1	y	0.48319
477.59169999999995	0.0	+	53	verb	phrase	1	1	match	vite	5	1	y	0.49882
478.14149999999995	0.2	gxwqn	53	verb	phrase	1	2	match	vite	5	1	y	0.49882
478.3414	0.0	+	53	verb	phrase	1	3	match	vite	5	1	y	0.49882
478.74119999999994	0.2	gpqk	53	verb	phrase	1	4	match	vite	5	1	y	0.49882
478.9416	0.0	+	53	verb	phrase	1	5	match	vite	5	1	y	0.49882
479.3411	0.2	vcmh	53	verb	phrase	1	6	match	vite	5	1	y	0.49882
479.54089999999997	0.0	+	53	verb	phrase	1	7	match	vite	5	1	y	0.49882
479.9407	0.2	mktczvs	53	verb	phrase	1	8	match	vite	5	1	y	0.49882
480.14059999999995	0.0	+	53	verb	phrase	1	9	match	vite	5	1	y	0.49882
480.5404	0.2	vite	53	verb	phrase	1	10	match	vite	5	1	y	0.49882
480.74029999999993	0.0	+	53	verb	phrase	1	11	match	vite	5	1	y	0.49882
481.14009999999996	0.0	+	53	verb	phrase	1	12	match	vite	5	1	y	0.49882
483.13929999999993	0.0	VITE	53	verb	phrase	1	13	match	vite	5	1	y	0.49882
483.7057	0.0	+	53	verb	phrase	1	14	match	vite	5	1	y	0.49882
483.6381	0.0	[response]	53	verb	phrase	1	15	match	vite	5	1	y	0.49882
485.53819999999996	0.0	+	54	verb	phrase	3	1	nomatch	peut	-1	1	p	0.77756
486.0879	0.2	wvmtsfk	54	verb	phrase	3	2	nomatch	peut	-1	1	p	0.77756
486.28790000000004	0.0	+	54	verb	phrase	3	3	nomatch	peut	-1	1	p	0.77756
486.68769999999995	0.2	vqf	54	verb	phrase	3	4	nomatch	peut	-1	1	p	0.77756
486.8876	0.0	+	54	verb	phrase	3	5	nomatch	peut	-1	1	p	0.77756
487.2877	0.2	doit	54	verb	phrase	3	6	nomatch	peut	-1	1	p	0.77756
487.4878	0.0	+	54	verb	phrase	3	7	nomatch	peut	-1	1	p	0.77756
487.8877	0.2	moins	54	verb	phrase	3	8	nomatch	peut	-1	1	p	0.77756
488.0876999999999	0.0	+	54	verb	phrase	3	9	nomatch	peut	-1	1	p	0.77756
488.48699999999997	0.2	chasser	54	verb	phrase	3	10	nomatch	peut	-1	1	p	0.77756
488.68679999999995	0.0	+	54	verb	phrase	3	11	nomatch	peut	-1	1	p	0.77756
489.0866	0.0	+	54	verb	phrase	3	12	nomatch	peut	-1	1	p	0.77756
491.0857	0.0	PEUT	54	verb	phrase	3	13	nomatch	peut	-1	1	p	0.77756
491.91869999999994	0.0	+	54	verb	phrase	3	14	nomatch	peut	-1	1	p	0.77756
491.8633	0.0	[response]	54	verb	phrase	3	15	nomatch	peut	-1	1	p	0.77756
493.4846	0.0	+	55	noun	phrase	4	1	nomatch	bleu	-1	1	p	0.92583
494.0344	0.2	hnwjgk	55	noun	phrase	4	2	nomatch	bleu	-1	1	p	0.92583
494.23429999999996	0.0	+	55	noun	phrase	4	3	nomatch	bleu	-1	1	p	0.92583
494.6341	0.2	pour	55	noun	phrase	4	4	nomatch	bleu	-1	1	p	0.92583
494.83399999999995	0.0	+	55	noun	phrase	4	5	nomatch	bleu	-1	1	p	0.92583
495.23389999999995	0.2	son	55	noun	phrase	4	6	nomatch	bleu	-1	1	p	0.92583
495.4338	0.0	+	55	noun	phrase	4	7	nomatch	bleu	-1	1	p	0.92583
495.83399999999995	0.2	nouveau	55	noun	phrase	4	8	nomatch	bleu	-1	1	p	0.92583
496.0336	0.0	+	55	noun	phrase	4	9	nomatch	bleu	-1	1	p	0.92583
496.44999999999993	0.2	boîtier	55	noun	phrase	4	10	nomatch	bleu	-1	1	p	0.92583
496.6499	0.0	+	55	noun	phrase	4	11	nomatch	bleu	-1	1	p	0.92583
497.04970000000003	0.0	+	55	noun	phrase	4	12	nomatch	bleu	-1	1	p	0.92583
499.04949999999997	0.0	BLEU	55	noun	phrase	4	13	nomatch	bleu	-1	1	p	0.92583
500.0317	0.0	+	55	noun	phrase	4	14	nomatch	bleu	-1	1	p	0.92583
499.97540000000004	0.0	[response]	55	noun	phrase	4	15	nomatch	bleu	-1	1	p	0.92583
501.44780000000003	0.0	+	56	verb	list	1	1	nomatch	sans	-1	1	p	1.4036
501.99749999999995	0.2	tjsk	56	verb	list	1	2	nomatch	sans	-1	1	p	1.4036
502.1979	0.0	+	56	verb	list	1	3	nomatch	sans	-1	1	p	1.4036
502.5974	0.2	gpqk	56	verb	list	1	4	nomatch	sans	-1	1	p	1.4036
502.79779999999994	0.0	+	56	verb	list	1	5	nomatch	sans	-1	1	p	1.4036
503.1974	0.2	wqp	56	verb	list	1	6	nomatch	sans	-1	1	p	1.4036
503.39689999999996	0.0	+	56	verb	list	1	7	nomatch	sans	-1	1	p	1.4036
503.7967	0.2	gjhtq	56	verb	list	1	8	nomatch	sans	-1	1	p	1.4036
503.99659999999994	0.0	+	56	verb	list	1	9	nomatch	sans	-1	1	p	1.4036
504.39639999999997	0.2	galoper	56	verb	list	1	10	nomatch	sans	-1	1	p	1.4036
504.5964	0.0	+	56	verb	list	1	11	nomatch	sans	-1	1	p	1.4036
504.99619999999993	0.0	+	56	verb	list	1	12	nomatch	sans	-1	1	p	1.4036
506.99529999999993	0.0	SANS	56	verb	list	1	13	nomatch	sans	-1	1	p	1.4036
508.46129999999994	0.0	+	56	verb	list	1	14	nomatch	sans	-1	1	p	1.4036
508.39879999999994	0.0	[response]	56	verb	list	1	15	nomatch	sans	-1	1	p	1.4036
525.3876	0.0	+	57	verb	phrase	1	1	match	rouler	5	1	y	0.36431
525.9368	0.2	kqltcd	57	verb	phrase	1	2	match	rouler	5	1	y	0.36431
526.1368	0.0	+	57	verb	phrase	1	3	match	rouler	5	1	y	0.36431
526.5366	0.2	qsdf	57	verb	phrase	1	4	match	rouler	5	1	y	0.36431
526.7365	0.0	+	57	verb	phrase	1	5	match	rouler	5	1	y	0.36431
527.1363	0.2	sk	57	verb	phrase	1	6	match	rouler	5	1	y	0.36431
527.3362	0.0	+	57	verb	phrase	1	7	match	rouler	5	1	y	0.36431
527.736	0.2	kbnfm	57	verb	phrase	1	8	match	rouler	5	1	y	0.36431
527.936	0.0	+	57	verb	phrase	1	9	match	rouler	5	1	y	0.36431
528.3362999999999	0.2	rouler	57	verb	phrase	1	10	match	rouler	5	1	y	0.36431
528.5358	0.0	+	57	verb	phrase	1	11	match	rouler	5	1	y	0.36431
528.9361	0.0	+	57	verb	phrase	1	12	match	rouler	5	1	y	0.36431
530.935	0.0	ROULER	57	verb	phrase	1	13	match	rouler	5	1	y	0.36431
531.3678	0.0	+	57	verb	phrase	1	14	match	rouler	5	1	y	0.36431
531.2993	0.0	[response]	57	verb	phrase	1	15	match	rouler	5	1	y	0.36431
533.3335	0.0	+	58	noun	list	4	1	nomatch	leur	-1	1	p	0.61219
533.9	0.2	jngvd	58	noun	list	4	2	nomatch	leur	-1	1	p	0.61219
534.0998999999999	0.0	+	58	noun	list	4	3	nomatch	leur	-1	1	p	0.61219
534.4997	0.2	marc	58	noun	list	4	4	nomatch	leur	-1	1	p	0.61219
534.6996	0.0	+	58	noun	list	4	5	nomatch	leur	-1	1	p	0.61219
535.0997	0.2	mon	58	noun	list	4	6	nomatch	leur	-1	1	p	0.61219
535.3166	0.0	+	58	noun	list	4	7	nomatch	leur	-1	1	p	0.61219
535.6998	0.2	moins	58	noun	list	4	8	nomatch	leur	-1	1	p	0.61219
535.8994	0.0	+	58	noun	list	4	9	nomatch	leur	-1	1	p	0.61219
536.2993	0.2	voilier	58	noun	list	4	10	nomatch	leur	-1	1	p	0.61219
536.4988	0.0	+	58	noun	list	4	11	nomatch	leur	-1	1	p	0.61219
536.8986	0.0	+	58	noun	list	4	12	nomatch	leur	-1	1	p	0.61219
538.8982	0.0	LEUR	58	noun	list	4	13	nomatch	leur	-1	1	p	0.61219
539.6143	0.0	+	58	noun	list	4	14	nomatch	leur	-1	1	p	0.61219
539.5104000000001	0.0	[response]	58	noun	list	4	15	nomatch	leur	-1	1	p	0.61219
541.2967	0.0	+	59	verb	list	1	1	match	nager	5	1	y	1.9148
541.8464	0.2	mgclhvs	59	verb	list	1	2	match	nager	5	1	y	1.9148
542.0463	0.0	+	59	verb	list	1	3	match	nager	5	1	y	1.9148
542.4633	0.2	nvmf	59	verb	list	1	4	match	nager	5	1	y	1.9148
542.6468	0.0	+	59	verb	list	1	5	match	nager	5	1	y	1.9148
543.0465	0.2	vcmh	59	verb	list	1	6	match	nager	5	1	y	1.9148
543.263	0.0	+	59	verb	list	1	7	match	nager	5	1	y	1.9148
543.6456	0.2	rtlpm	59	verb	list	1	8	match	nager	5	1	y	1.9148
543.8455	0.0	+	59	verb	list	1	9	match	nager	5	1	y	1.9148
544.2454	0.2	nager	59	verb	list	1	10	match	nager	5	1	y	1.9148
544.4453	0.0	+	59	verb	list	1	11	match	nager	5	1	y	1.9148
544.8451	0.0	+	59	verb	list	1	12	match	nager	5	1	y	1.9148
546.8442	0.0	NAGER	59	verb	list	1	13	match	nager	5	1	y	1.9148
548.8266	0.0	+	59	verb	list	1	14	match	nager	5	1	y	1.9148
548.759	0.0	[response]	59	verb	list	1	15	match	nager	5	1	y	1.9148
549.2431	0.0	+	60	verb	phrase	1	1	match	voyager	5	1	y	0.58663
549.7929	0.2	qtnlx	60	verb	phrase	1	2	match	voyager	5	1	y	0.58663
549.9928	0.0	+	60	verb	phrase	1	3	match	voyager	5	1	y	0.58663
550.3926	0.2	gtzv	60	verb	phrase	1	4	match	voyager	5	1	y	0.58663
550.5925	0.0	+	60	verb	phrase	1	5	match	voyager	5	1	y	0.58663
550.9923	0.2	sk	60	verb	phrase	1	6	match	voyager	5	1	y	0.58663
551.1922	0.0	+	60	verb	phrase	1	7	match	voyager	5	1	y	0.58663
551.5921	0.2	dxt	60	verb	phrase	1	8	match	voyager	5	1	y	0.58663
551.792	0.0	+	60	verb	phrase	1	9	match	voyager	5	1	y	0.58663
552.1918	0.2	voyager	60	verb	phrase	1	10	match	voyager	5	1	y	0.58663
552.3917	0.0	+	60	verb	phrase	1	11	match	voyager	5	1	y	0.58663
552.792	0.0	+	60	verb	phrase	1	12	match	voyager	5	1	y	0.58663
554.7905999999999	0.0	VOYAGER	60	verb	phrase	1	13	match	voyager	5	1	y	0.58663
555.4404	0.0	+	60	verb	phrase	1	14	match	voyager	5	1	y	0.58663
555.3773	0.0	[response]	60	verb	phrase	1	15	match	voyager	5	1	y	0.58663
581.1955	0.0	+	61	verb	list	3	1	nomatch	mieux	-1	1	p	0.56348
581.7452999999999	0.2	dbtxpjh	61	verb	list	3	2	nomatch	mieux	-1	1	p	0.56348
581.9452	0.0	+	61	verb	list	3	3	nomatch	mieux	-1	1	p	0.56348
582.345	0.2	vqf	61	verb	list	3	4	nomatch	mieux	-1	1	p	0.56348
582.5449	0.0	+	61	verb	list	3	5	nomatch	mieux	-1	1	p	0.56348
582.9448	0.2	son	61	verb	list	3	6	nomatch	mieux	-1	1	p	0.56348
583.1447	0.0	+	61	verb	list	3	7	nomatch	mieux	-1	1	p	0.56348
583.5445	0.2	parader	61	verb	list	3	8	nomatch	mieux	-1	1	p	0.56348
583.7443999999999	0.0	+	61	verb	list	3	9	nomatch	mieux	-1	1	p	0.56348
584.1442	0.2	vert	61	verb	list	3	10	nomatch	mieux	-1	1	p	0.56348
584.3609	0.0	+	61	verb	list	3	11	nomatch	mieux	-1	1	p	0.56348
584.7443999999999	0.0	+	61	verb	list	3	12	nomatch	mieux	-1	1	p	0.56348
586.7601	0.0	MIEUX	61	verb	list	3	13	nomatch	mieux	-1	1	p	0.56348
587.4266	0.0	+	61	verb	list	3	14	nomatch	mieux	-1	1	p	0.56348
587.3235999999999	0.0	[response]	61	verb	list	3	15	nomatch	mieux	-1	1	p	0.56348
589.1419999999999	0.0	+	62	noun	list	3	1	nomatch	nouveau	-1	1	p	0.57415
589.6917	0.2	gljwnv	62	noun	list	3	2	nomatch	nouveau	-1	1	p	0.57415
589.8917	0.0	+	62	noun	list	3	3	nomatch	nouveau	-1	1	p	0.57415
590.2914999999999	0.2	hqjx	62	noun	list	3	4	nomatch	nouveau	-1	1	p	0.57415
590.4914	0.0	+	62	noun	list	3	5	nomatch	nouveau	-1	1	p	0.57415
590.8912	0.2	doit	62	noun	list	3	6	nomatch	nouveau	-1	1	p	0.57415
591.0911	0.0	+	62	noun	list	3	7	nomatch	nouveau	-1	1	p	0.57415
591.4911999999999	0.2	panier	62	noun	list	3	8	nomatch	nouveau	-1	1	p	0.57415
591.691	0.0	+	62	noun	list	3	9	nomatch	nouveau	-1	1	p	0.57415
592.0912	0.2	tard	62	noun	list	3	10	nomatch	nouveau	-1	1	p	0.57415
592.2909999999999	0.0	+	62	noun	list	3	11	nomatch	nouveau	-1	1	p	0.57415
592.6904	0.0	+	62	noun	list	3	12	nomatch	nouveau	-1	1	p	0.57415
594.6895	0.0	NOUVEAU	62	noun	list	3	13	nomatch	nouveau	-1	1	p	0.57415
595.3226	0.0	+	62	noun	list	3	14	nomatch	nouveau	-1	1	p	0.57415
595.2637	0.0	[response]	62	noun	list	3	15	nomatch	nouveau	-1	1	p	0.57415
597.0885	0.0	+	63	verb	phrase	4	1	match	luc	2	0	TIMEOUT	-1.0
597.6382	0.2	gxqmvnl	63	verb	phrase	4	2	match	luc	2	0	TIMEOUT	-1.0
597.8380999999999	0.0	+	63	verb	phrase	4	3	match	luc	2	0	TIMEOUT	-1.0
598.2379	0.2	luc	63	verb	phrase	4	4	match	luc	2	0	TIMEOUT	-1.0
598.4378	0.0	+	63	verb	phrase	4	5	match	luc	2	0	TIMEOUT	-1.0
598.8376999999999	0.2	va	63	verb	phrase	4	6	match	luc	2	0	TIMEOUT	-1.0
599.0382	0.0	+	63	verb	phrase	4	7	match	luc	2	0	TIMEOUT	-1.0
599.438	0.2	galoper	63	verb	phrase	4	8	match	luc	2	0	TIMEOUT	-1.0
599.6546	0.0	+	63	verb	phrase	4	9	match	luc	2	0	TIMEOUT	-1.0
600.0373	0.2	tôt	63	verb	phrase	4	10	match	luc	2	0	TIMEOUT	-1.0
600.2375	0.0	+	63	verb	phrase	4	11	match	luc	2	0	TIMEOUT	-1.0
600.6369	0.0	+	63	verb	phrase	4	12	match	luc	2	0	TIMEOUT	-1.0
602.6364	0.0	LUC	63	verb	phrase	4	13	match	luc	2	0	TIMEOUT	-1.0
605.0349	0.0	+	64	verb	list	2	1	nomatch	beau	-1	1	p	0.63806
605.6347	0.2	snlzq	64	verb	list	2	2	nomatch	beau	-1	1	p	0.63806
605.8344999999999	0.0	+	64	verb	list	2	3	nomatch	beau	-1	1	p	0.63806
606.2343999999999	0.2	hqjx	64	verb	list	2	4	nomatch	beau	-1	1	p	0.63806
606.4343	0.0	+	64	verb	list	2	5	nomatch	beau	-1	1	p	0.63806
606.8341	0.2	bzct	64	verb	list	2	6	nomatch	beau	-1	1	p	0.63806
607.034	0.0	+	64	verb	list	2	7	nomatch	beau	-1	1	p	0.63806
607.4338	0.2	petit	64	verb	list	2	8	nomatch	beau	-1	1	p	0.63806
607.6338	0.0	+	64	verb	list	2	9	nomatch	beau	-1	1	p	0.63806
608.0336	0.2	parader	64	verb	list	2	10	nomatch	beau	-1	1	p	0.63806
608.2334999999999	0.0	+	64	verb	list	2	11	nomatch	beau	-1	1	p	0.63806
608.65	0.0	+	64	verb	list	2	12	nomatch	beau	-1	1	p	0.63806
610.6495	0.0	BEAU	64	verb	list	2	13	nomatch	beau	-1	1	p	0.63806
611.3824	0.0	+	64	verb	list	2	14	nomatch	beau	-1	1	p	0.63806
611.2875	0.0	[response]	64	verb	list	2	15	nomatch	beau	-1	1	p	0.63806
613.048	0.0	+	65	verb	phrase	4	1	match	tôt	5	1	y	0.94041
613.5978	0.2	hnmvpk	65	verb	phrase	4	2	match	tôt	5	1	y	0.94041
613.7977	0.0	+	65	verb	phrase	4	3	match	tôt	5	1	y	0.94041
614.1975	0.2	marc	65	verb	phrase	4	4	match	tôt	5	1	y	0.94041
614.3974	0.0	+	65	verb	phrase	4	5	match	tôt	5	1	y	0.94041
614.7972	0.2	doit	65	verb	phrase	4	6	match	tôt	5	1	y	0.94041
614.9970999999999	0.0	+	65	verb	phrase	4	7	match	tôt	5	1	y	0.94041
615.3972	0.2	patiner	65	verb	phrase	4	8	match	tôt	5	1	y	0.94041
615.5975999999999	0.0	+	65	verb	phrase	4	9	match	tôt	5	1	y	0.94041
616.0139	0.2	tôt	65	verb	phrase	4	10	match	tôt	5	1	y	0.94041
616.1971	0.0	+	65	verb	phrase	4	11	match	tôt	5	1	y	0.94041
616.5964	0.0	+	65	verb	phrase	4	12	match	tôt	5	1	y	0.94041
618.5956	0.0	TÔT	65	verb	phrase	4	13	match	tôt	5	1	y	0.94041
619.5951	0.0	+	65	verb	phrase	4	14	match	tôt	5	1	y	0.94041
619.536	0.0	[response]	65	verb	phrase	4	15	match	tôt	5	1	y	0.94041
620.9945	0.0	+	66	verb	list	1	1	match	bleu	5	1	y	0.39226
621.5441999999999	0.2	mkpdg	66	verb	list	1	2	match	bleu	5	1	y	0.39226
621.7441	0.0	+	66	verb	list	1	3	match	bleu	5	1	y	0.39226
622.144	0.2	gpqk	66	verb	list	1	4	match	bleu	5	1	y	0.39226
622.3611999999999	0.0	+	66	verb	list	1	5	match	bleu	5	1	y	0.39226
622.7441	0.2	xzdl	66	verb	list	1	6	match	bleu	5	1	y	0.39226
622.9605	0.0	+	66	verb	list	1	7	match	bleu	5	1	y	0.39226
623.3607999999999	0.2	jmbzkhs	66	verb	list	1	8	match	bleu	5	1	y	0.39226
623.5438	0.0	+	66	verb	list	1	9	match	bleu	5	1	y	0.39226
623.9431999999999	0.2	bleu	66	verb	list	1	10	match	bleu	5	1	y	0.39226
624.1431	0.0	+	66	verb	list	1	11	match	bleu	5	1	y	0.39226
624.5429	0.0	+	66	verb	list	1	12	match	bleu	5	1	y	0.39226
626.542	0.0	BLEU	66	verb	list	1	13	match	bleu	5	1	y	0.39226
626.9918	0.0	+	66	verb	list	1	14	match	bleu	5	1	y	0.39226
626.9342	0.0	[response]	66	verb	list	1	15	match	bleu	5	1	y	0.39226
628.9408999999999	0.0	+	67	verb	list	3	1	nomatch	nouveau	-1	1	p	1.4587
629.4907	0.2	pzwnvls	67	verb	list	3	2	nomatch	nouveau	-1	1	p	1.4587
629.6906	0.0	+	67	verb	list	3	3	nomatch	nouveau	-1	1	p	1.4587
630.0903999999999	0.2	jqbv	67	verb	list	3	4	nomatch	nouveau	-1	1	p	1.4587
630.2903	0.0	+	67	verb	list	3	5	nomatch	nouveau	-1	1	p	1.4587
630.6901	0.2	va	67	verb	list	3	6	nomatch	nouveau	-1	1	p	1.4587
630.89	0.0	+	67	verb	list	3	7	nomatch	nouveau	-1	1	p	1.4587
631.2899	0.2	grand	67	verb	list	3	8	nomatch	nouveau	-1	1	p	1.4587
631.4904	0.0	+	67	verb	list	3	9	nomatch	nouveau	-1	1	p	1.4587
631.8901999999999	0.2	parader	67	verb	list	3	10	nomatch	nouveau	-1	1	p	1.4587
632.09	0.0	+	67	verb	list	3	11	nomatch	nouveau	-1	1	p	1.4587
632.4895	0.0	+	67	verb	list	3	12	nomatch	nouveau	-1	1	p	1.4587
634.4884	0.0	NOUVEAU	67	verb	list	3	13	nomatch	nouveau	-1	1	p	1.4587
636.0044	0.0	+	67	verb	list	3	14	nomatch	nouveau	-1	1	p	1.4587
635.9471	0.0	[response]	67	verb	list	3	15	nomatch	nouveau	-1	1	p	1.4587
644.8838	0.0	+	68	noun	list	4	1	nomatch	rouge	-1	0	TIMEOUT	-1.0
645.4508	0.2	rvw	68	noun	list	4	2	nomatch	rouge	-1	0	TIMEOUT	-1.0
645.6338	0.0	+	68	noun	list	4	3	nomatch	rouge	-1	0	TIMEOUT	-1.0
646.05	0.2	avec	68	noun	list	4	4	nomatch	rouge	-1	0	TIMEOUT	-1.0
646.2506	0.0	+	68	noun	list	4	5	nomatch	rouge	-1	0	TIMEOUT	-1.0
646.6498	0.2	peut	68	noun	list	4	6	nomatch	rouge	-1	0	TIMEOUT	-1.0
646.8496	0.0	+	68	noun	list	4	7	nomatch	rouge	-1	0	TIMEOUT	-1.0
647.2494	0.2	boîtier	68	noun	list	4	8	nomatch	rouge	-1	0	TIMEOUT	-1.0
647.4493	0.0	+	68	noun	list	4	9	nomatch	rouge	-1	0	TIMEOUT	-1.0
647.8492	0.2	vite	68	noun	list	4	10	nomatch	rouge	-1	0	TIMEOUT	-1.0
648.0491	0.0	+	68	noun	list	4	11	nomatch	rouge	-1	0	TIMEOUT	-1.0
648.4489	0.0	+	68	noun	list	4	12	nomatch	rouge	-1	0	TIMEOUT	-1.0
650.4487	0.0	ROUGE	68	noun	list	4	13	nomatch	rouge	-1	0	TIMEOUT	-1.0
652.8469	0.0	+	69	verb	list	2	1	nomatch	panier	-1	1	p	0.59654
653.4467	0.2	mtw	69	verb	list	2	2	nomatch	panier	-1	1	p	0.59654
653.6466	0.0	+	69	verb	list	2	3	nomatch	panier	-1	1	p	0.59654
654.0464	0.2	nvmf	69	verb	list	2	4	nomatch	panier	-1	1	p	0.59654
654.2463	0.0	+	69	verb	list	2	5	nomatch	panier	-1	1	p	0.59654
654.6460999999999	0.2	bzct	69	verb	list	2	6	nomatch	panier	-1	1	p	0.59654
654.846	0.0	+	69	verb	list	2	7	nomatch	panier	-1	1	p	0.59654
655.2459	0.2	vieux	69	verb	list	2	8	nomatch	panier	-1	1	p	0.59654
655.4458	0.0	+	69	verb	list	2	9	nomatch	panier	-1	1	p	0.59654
655.8456	0.2	rouler	69	verb	list	2	10	nomatch	panier	-1	1	p	0.59654
656.0455	0.0	+	69	verb	list	2	11	nomatch	panier	-1	1	p	0.59654
656.4453	0.0	+	69	verb	list	2	12	nomatch	panier	-1	1	p	0.59654
658.4444	0.0	PANIER	69	verb	list	2	13	nomatch	panier	-1	1	p	0.59654
659.0941	0.0	+	69	verb	list	2	14	nomatch	panier	-1	1	p	0.59654
659.0409999999999	0.0	[response]	69	verb	list	2	15	nomatch	panier	-1	1	p	0.59654
660.8434	0.0	+	70	noun	list	2	1	nomatch	doit	-1	1	p	1.328
661.3931	0.2	hmvfcdn	70	noun	list	2	2	nomatch	doit	-1	1	p	1.328
661.593	0.0	+	70	noun	list	2	3	nomatch	doit	-1	1	p	1.328
661.9928	0.2	qsdf	70	noun	list	2	4	nomatch	doit	-1	1	p	1.328
662.1928	0.0	+	70	noun	list	2	5	nomatch	doit	-1	1	p	1.328
662.5932	0.2	xzdl	70	noun	list	2	6	nomatch	doit	-1	1	p	1.328
662.7931	0.0	+	70	noun	list	2	7	nomatch	doit	-1	1	p	1.328
663.1925	0.2	plus	70	noun	list	2	8	nomatch	doit	-1	1	p	1.328
663.3928	0.0	+	70	noun	list	2	9	nomatch	doit	-1	1	p	1.328
663.792	0.2	sablier	70	noun	list	2	10	nomatch	doit	-1	1	p	1.328
663.992	0.0	+	70	noun	list	2	11	nomatch	doit	-1	1	p	1.328
664.3918	0.0	+	70	noun	list	2	12	nomatch	doit	-1	1	p	1.328
666.3909	0.0	DOIT	70	noun	list	2	13	nomatch	doit	-1	1	p	1.328
667.824	0.0	+	70	noun	list	2	14	nomatch	doit	-1	1	p	1.328
667.7189	0.0	[response]	70	noun	list	2	15	nomatch	doit	-1	1	p	1.328
676.7862	0.0	+	71	verb	list	4	1	match	leur	3	1	y	0.54338
677.3362999999999	0.2	lhk	71	verb	list	4	2	match	leur	3	1	y	0.54338
677.5527	0.0	+	71	verb	list	4	3	match	leur	3	1	y	0.54338
677.9362	0.2	jean	71	verb	list	4	4	match	leur	3	1	y	0.54338
678.1356999999999	0.0	+	71	verb	list	4	5	match	leur	3	1	y	0.54338
678.5355	0.2	leur	71	verb	list	4	6	match	leur	3	1	y	0.54338
678.7354	0.0	+	71	verb	list	4	7	match	leur	3	1	y	0.54338
679.1351999999999	0.2	plonger	71	verb	list	4	8	match	leur	3	1	y	0.54338
679.3351	0.0	+	71	verb	list	4	9	match	leur	3	1	y	0.54338
679.7349	0.2	bleu	71	verb	list	4	10	match	leur	3	1	y	0.54338
679.9348	0.0	+	71	verb	list	4	11	match	leur	3	1	y	0.54338
680.3347	0.0	+	71	verb	list	4	12	match	leur	3	1	y	0.54338
682.3338	0.0	LEUR	71	verb	list	4	13	match	leur	3	1	y	0.54338
682.9335	0.0	+	71	verb	list	4	14	match	leur	3	1	y	0.54338
682.8772	0.0	[response]	71	verb	list	4	15	match	leur	3	1	y	0.54338
684.7494	0.0	+	72	verb	phrase	2	1	nomatch	moins	-1	1	p	0.52727
685.2991	0.2	rwflq	72	verb	phrase	2	2	nomatch	moins	-1	1	p	0.52727
685.499	0.0	+	72	verb	phrase	2	3	nomatch	moins	-1	1	p	0.52727
685.8989	0.2	zndv	72	verb	phrase	2	4	nomatch	moins	-1	1	p	0.52727
686.0988	0.0	+	72	verb	phrase	2	5	nomatch	moins	-1	1	p	0.52727
686.4988	0.2	vcmh	72	verb	phrase	2	6	nomatch	moins	-1	1	p	0.52727
686.6989	0.0	+	72	verb	phrase	2	7	nomatch	moins	-1	1	p	0.52727
687.1157	0.2	mieux	72	verb	phrase	2	8	nomatch	moins	-1	1	p	0.52727
687.2982	0.0	+	72	verb	phrase	2	9	nomatch	moins	-1	1	p	0.52727
687.698	0.2	nager	72	verb	phrase	2	10	nomatch	moins	-1	1	p	0.52727
687.898	0.0	+	72	verb	phrase	2	11	nomatch	moins	-1	1	p	0.52727
688.2977999999999	0.0	+	72	verb	phrase	2	12	nomatch	moins	-1	1	p	0.52727
690.2968999999999	0.0	MOINS	72	verb	phrase	2	13	nomatch	moins	-1	1	p	0.52727
690.88	0.0	+	72	verb	phrase	2	14	nomatch	moins	-1	1	p	0.52727
690.8242	0.0	[response]	72	verb	phrase	2	15	nomatch	moins	-1	1	p	0.52727
692.696	0.0	+	73	verb	list	4	1	match	chasser	5	0	TIMEOUT	-1.0
693.2456	0.2	xrvpm	73	verb	list	4	2	match	chasser	5	0	TIMEOUT	-1.0
693.4463	0.0	+	73	verb	list	4	3	match	chasser	5	0	TIMEOUT	-1.0
693.8453	0.2	sans	73	verb	list	4	4	match	chasser	5	0	TIMEOUT	-1.0
694.0452	0.0	+	73	verb	list	4	5	match	chasser	5	0	TIMEOUT	-1.0
694.4449999999999	0.2	peut	73	verb	list	4	6	match	chasser	5	0	TIMEOUT	-1.0
694.645	0.0	+	73	verb	list	4	7	match	chasser	5	0	TIMEOUT	-1.0
695.0448	0.2	nouveau	73	verb	list	4	8	match	chasser	5	0	TIMEOUT	-1.0
695.2447	0.0	+	73	verb	list	4	9	match	chasser	5	0	TIMEOUT	-1.0
695.6618	0.2	chasser	73	verb	list	4	10	match	chasser	5	0	TIMEOUT	-1.0
695.8451	0.0	+	73	verb	list	4	11	match	chasser	5	0	TIMEOUT	-1.0
696.2613	0.0	+	73	verb	list	4	12	match	chasser	5	0	TIMEOUT	-1.0
698.2434	0.0	CHASSER	73	verb	list	4	13	match	chasser	5	0	TIMEOUT	-1.0
700.6423	0.0	+	74	verb	phrase	4	1	match	tard	5	1	y	0.63715
701.242	0.2	msq	74	verb	phrase	4	2	match	tard	5	1	y	0.63715
701.4419	0.0	+	74	verb	phrase	4	3	match	tard	5	1	y	0.63715
701.8417	0.2	jean	74	verb	phrase	4	4	match	tard	5	1	y	0.63715
702.0417	0.0	+	74	verb	phrase	4	5	match	tard	5	1	y	0.63715
702.4415	0.2	va	74	verb	phrase	4	6	match	tard	5	1	y	0.63715
702.6414	0.0	+	74	verb	phrase	4	7	match	tard	5	1	y	0.63715
703.0412	0.2	parader	74	verb	phrase	4	8	match	tard	5	1	y	0.63715
703.2411	0.0	+	74	verb	phrase	4	9	match	tard	5	1	y	0.63715
703.641	0.2	tard	74	verb	phrase	4	10	match	tard	5	1	y	0.63715
703.8409	0.0	+	74	verb	phrase	4	11	match	tard	5	1	y	0.63715
704.2407	0.0	+	74	verb	phrase	4	12	match	tard	5	1	y	0.63715
706.2398	0.0	TARD	74	verb	phrase	4	13	match	tard	5	1	y	0.63715
706.9395	0.0	+	74	verb	phrase	4	14	match	tard	5	1	y	0.63715
706.8769	0.0	[response]	74	verb	phrase	4	15	match	tard	5	1	y	0.63715
708.6387	0.0	+	75	verb	phrase	1	1	match	nager	5	0	p	1.8311
709.1885	0.2	qnb	75	verb	phrase	1	2	match	nager	5	0	p	1.8311
709.3883999999999	0.0	+	75	verb	phrase	1	3	match	nager	5	0	p	1.8311
709.7882	0.2	tgcf	75	verb	phrase	1	4	match	nager	5	0	p	1.8311
709.9881	0.0	+	75	verb	phrase	1	5	match	nager	5	0	p	1.8311
710.3879	0.2	vcmh	75	verb	phrase	1	6	match	nager	5	0	p	1.8311
710.5878	0.0	+	75	verb	phrase	1	7	match	nager	5	0	p	1.8311
710.9883	0.2	zfkw	75	verb	phrase	1	8	match	nager	5	0	p	1.8311
711.1881999999999	0.0	+	75	verb	phrase	1	9	match	nager	5	0	p	1.8311
711.5874	0.2	nager	75	verb	phrase	1	10	match	nager	5	0	p	1.8311
711.7873	0.0	+	75	verb	phrase	1	11	match	nager	5	0	p	1.8311
712.1871	0.0	+	75	verb	phrase	1	12	match	nager	5	0	p	1.8311
714.1868	0.0	NAGER	75	verb	phrase	1	13	match	nager	5	0	p	1.8311
716.0853999999999	0.0	+	75	verb	phrase	1	14	match	nager	5	0	p	1.8311
716.018	0.0	[response]	75	verb	phrase	1	15	match	nager	5	0	p	1.8311
716.5852	0.0	+	76	verb	list	2	1	nomatch	tard	-1	1	p	1.1385
717.1349	0.2	gkqfcpn	76	verb	list	2	2	nomatch	tard	-1	1	p	1.1385
717.3348	0.0	+	76	verb	list	2	3	nomatch	tard	-1	1	p	1.1385
717.7347	0.2	rkh	76	verb	list	2	4	nomatch	tard	-1	1	p	1.1385
717.9345999999999	0.0	+	76	verb	list	2	5	nomatch	tard	-1	1	p	1.1385
718.3344	0.2	sk	76	verb	list	2	6	nomatch	tard	-1	1	p	1.1385
718.5343	0.0	+	76	verb	list	2	7	nomatch	tard	-1	1	p	1.1385
718.9341	0.2	beau	76	verb	list	2	8	nomatch	tard	-1	1	p	1.1385
719.134	0.0	+	76	verb	list	2	9	nomatch	tard	-1	1	p	1.1385
719.5339	0.2	voyager	76	verb	list	2	10	nomatch	tard	-1	1	p	1.1385
719.7338	0.0	+	76	verb	list	2	11	nomatch	tard	-1	1	p	1.1385
720.1342999999999	0.0	+	76	verb	list	2	12	nomatch	tard	-1	1	p	1.1385
722.1494	0.0	TARD	76	verb	list	2	13	nomatch	tard	-1	1	p	1.1385
723.3488	0.0	+	76	verb	list	2	14	nomatch	tard	-1	1	p	1.1385
723.2878	0.0	[response]	76	verb	list	2	15	nomatch	tard	-1	1	p	1.1385
724.5482999999999	0.0	+	77	verb	list	4	1	nomatch	leur	-1	1	p	0.53606
725.098	0.2	rlw	77	verb	list	4	2	nomatch	leur	-1	1	p	0.53606
725.298	0.0	+	77	verb	list	4	3	nomatch	leur	-1	1	p	0.53606
725.6978	0.2	jean	77	verb	list	4	4	nomatch	leur	-1	1	p	0.53606
725.8977	0.0	+	77	verb	list	4	5	nomatch	leur	-1	1	p	0.53606
726.2975	0.2	mon	77	verb	list	4	6	nomatch	leur	-1	1	p	0.53606
726.4979999999999	0.0	+	77	verb	list	4	7	nomatch	leur	-1	1	p	0.53606
726.8977	0.2	galoper	77	verb	list	4	8	nomatch	leur	-1	1	p	0.53606
727.0971999999999	0.0	+	77	verb	list	4	9	nomatch	leur	-1	1	p	0.53606
727.4975	0.2	blanc	77	verb	list	4	10	nomatch	leur	-1	1	p	0.53606
727.6969	0.0	+	77	verb	list	4	11	nomatch	leur	-1	1	p	0.53606
728.0966999999999	0.0	+	77	verb	list	4	12	nomatch	leur	-1	1	p	0.53606
730.0957999999999	0.0	LEUR	77	verb	list	4	13	nomatch	leur	-1	1	p	0.53606
730.6956	0.0	+	77	verb	list	4	14	nomatch	leur	-1	1	p	0.53606
730.6319	0.0	[response]	77	verb	list	4	15	nomatch	leur	-1	1	p	0.53606
740.4911999999999	0.0	+	78	noun	phrase	1	1	nomatch	vieux	-1	1	p	0.6626600000000001
741.0417	0.2	nmp	78	noun	phrase	1	2	nomatch	vieux	-1	1	p	0.6626600000000001
741.2411	0.0	+	78	noun	phrase	1	3	nomatch	vieux	-1	1	p	0.6626600000000001
741.6413	0.2	rkh	78	noun	phrase	1	4	nomatch	vieux	-1	1	p	0.6626600000000001
741.8578	0.0	+	78	noun	phrase	1	5	nomatch	vieux	-1	1	p	0.6626600000000001
742.2411	0.2	rdq	78	noun	phrase	1	6	nomatch	vieux	-1	1	p	0.6626600000000001
742.4403	0.0	+	78	noun	phrase	1	7	nomatch	vieux	-1	1	p	0.6626600000000001
742.8401	0.2	trdnjzw	78	noun	phrase	1	8	nomatch	vieux	-1	1	p	0.6626600000000001
743.04	0.0	+	78	noun	phrase	1	9	nomatch	vieux	-1	1	p	0.6626600000000001
743.4399	0.2	grand	78	noun	phrase	1	10	nomatch	vieux	-1	1	p	0.6626600000000001
743.6398	0.0	+	78	noun	phrase	1	11	nomatch	vieux	-1	1	p	0.6626600000000001
744.0396	0.0	+	78	noun	phrase	1	12	nomatch	vieux	-1	1	p	0.6626600000000001
746.0387	0.0	VIEUX	78	noun	phrase	1	13	nomatch	vieux	-1	1	p	0.6626600000000001
746.7551	0.0	+	78	noun	phrase	1	14	nomatch	vieux	-1	1	p	0.6626600000000001
746.7014	0.0	[response]	78	noun	phrase	1	15	nomatch	vieux	-1	1	p	0.6626600000000001
748.4384	0.0	+	79	verb	list	3	1	nomatch	ainsi	-1	1	p	0.68199
748.9874	0.2	jpz	79	verb	list	3	2	nomatch	ainsi	-1	1	p	0.68199
749.1872999999999	0.0	+	79	verb	list	3	3	nomatch	ainsi	-1	1	p	0.68199
749.5871	0.2	tgcf	79	verb	list	3	4	nomatch	ainsi	-1	1	p	0.68199
749.787	0.0	+	79	verb	list	3	5	nomatch	ainsi	-1	1	p	0.68199
750.1874	0.2	son	79	verb	list	3	6	nomatch	ainsi	-1	1	p	0.68199
750.3872	0.0	+	79	verb	list	3	7	nomatch	ainsi	-1	1	p	0.68199
750.7873	0.2	chasser	79	verb	list	3	8	nomatch	ainsi	-1	1	p	0.68199
750.9873	0.0	+	79	verb	list	3	9	nomatch	ainsi	-1	1	p	0.68199
751.3868	0.2	rouge	79	verb	list	3	10	nomatch	ainsi	-1	1	p	0.68199
751.5862	0.0	+	79	verb	list	3	11	nomatch	ainsi	-1	1	p	0.68199
751.9861	0.0	+	79	verb	list	3	12	nomatch	ainsi	-1	1	p	0.68199
753.9852	0.0	AINSI	79	verb	list	3	13	nomatch	ainsi	-1	1	p	0.68199
754.7348	0.0	+	79	verb	list	3	14	nomatch	ainsi	-1	1	p	0.68199
754.6672	0.0	[response]	79	verb	list	3	15	nomatch	ainsi	-1	1	p	0.68199
756.3841	0.0	+	80	verb	list	4	1	match	vers	2	0	TIMEOUT	-1.0
756.9339	0.2	ztwnkmj	80	verb	list	4	2	match	vers	2	0	TIMEOUT	-1.0
757.1338	0.0	+	80	verb	list	4	3	match	vers	2	0	TIMEOUT	-1.0
757.5336	0.2	vers	80	verb	list	4	4	match	vers	2	0	TIMEOUT	-1.0
757.7334999999999	0.0	+	80	verb	list	4	5	match	vers	2	0	TIMEOUT	-1.0
758.15	0.2	va	80	verb	list	4	6	match	vers	2	0	TIMEOUT	-1.0
758.3498999999999	0.0	+	80	verb	list	4	7	match	vers	2	0	TIMEOUT	-1.0
758.7503	0.2	petit	80	verb	list	4	8	match	vers	2	0	TIMEOUT	-1.0
758.9501	0.0	+	80	verb	list	4	9	match	vers	2	0	TIMEOUT	-1.0
759.3494	0.2	rouler	80	verb	list	4	10	match	vers	2	0	TIMEOUT	-1.0
759.5494	0.0	+	80	verb	list	4	11	match	vers	2	0	TIMEOUT	-1.0
759.9492	0.0	+	80	verb	list	4	12	match	vers	2	0	TIMEOUT	-1.0
761.9653999999999	0.0	VERS	80	verb	list	4	13	match	vers	2	0	TIMEOUT	-1.0
764.3471999999999	0.0	+	80	verb	list	4	14	match	vers	2	0	TIMEOUT	-1.0
765.0136	0.0	+	80	verb	list	4	15	match	vers	2	0	TIMEOUT	-1.0
765.1134999999999	0.0	+	80	verb	list	4	16	match	vers	2	0	TIMEOUT	-1.0
766.5129	0.0	+	80	verb	list	4	17	match	vers	2	0	TIMEOUT	-1.0
766.6129	0.0	+	80	verb	list	4	18	match	vers	2	0	TIMEOUT	-1.0
768.0123	0.0	+	80	verb	list	4	19	match	vers	2	0	TIMEOUT	-1.0
768.1122	0.0	+	80	verb	list	4	20	match	vers	2	0	TIMEOUT	-1.0
769.5115999999999	0.0	+	80	verb	list	4	21	match	vers	2	0	TIMEOUT	-1.0
769.6115	0.0	+	80	verb	list	4	22	match	vers	2	0	TIMEOUT	-1.0
771.0109	0.0	+	80	verb	list	4	23	match	vers	2	0	TIMEOUT	-1.0
771.1109	0.0	+	80	verb	list	4	24	match	vers	2	0	TIMEOUT	-1.0
772.5101999999999	0.0	+	80	verb	list	4	25	match	vers	2	0	TIMEOUT	-1.0
772.6102	0.0	+	80	verb	list	4	26	match	vers	2	0	TIMEOUT	-1.0
774.0096	0.0	+	80	verb	list	4	27	match	vers	2	0	TIMEOUT	-1.0
774.1095	0.0	+	80	verb	list	4	28	match	vers	2	0	TIMEOUT	-1.0
775.5088999999999	0.0	+	80	verb	list	4	29	match	vers	2	0	TIMEOUT	-1.0
775.6089	0.0	+	80	verb	list	4	30	match	vers	2	0	TIMEOUT	-1.0
777.0082	0.0	+	80	verb	list	4	31	match	vers	2	0	TIMEOUT	-1.0
777.1082	0.0	+	80	verb	list	4	32	match	vers	2	0	TIMEOUT	-1.0
778.5076	0.0	+	80	verb	list	4	33	match	vers	2	0	TIMEOUT	-1.0
778.6075	0.0	+	80	verb	list	4	34	match	vers	2	0	TIMEOUT	-1.0
784.8881	0.0	+	80	verb	list	4	35	match	vers	2	0	TIMEOUT	-1.0
