onset	duration	stim	trial_number	trial_type	trial_structure	trial_length	sequential_position	probe_type	probe	probe_position	response_correct	response_key	response_time
0.056100000000000705	0.0	+	1	noun	phrase	1	1	match	casier	5	1	y	0.67878
0.5391999999999939	0.2	lxhj	1	noun	phrase	1	2	match	casier	5	1	y	0.67878
0.7390999999999934	0.0	+	1	noun	phrase	1	3	match	casier	5	1	y	0.67878
1.1388999999999925	0.2	zfs	1	noun	phrase	1	4	match	casier	5	1	y	0.67878
1.3388999999999953	0.0	+	1	noun	phrase	1	5	match	casier	5	1	y	0.67878
1.7386999999999944	0.2	bxp	1	noun	phrase	1	6	match	casier	5	1	y	0.67878
1.9385999999999939	0.0	+	1	noun	phrase	1	7	match	casier	5	1	y	0.67878
2.3385999999999996	0.2	pvns	1	noun	phrase	1	8	match	casier	5	1	y	0.67878
2.5382999999999925	0.0	+	1	noun	phrase	1	9	match	casier	5	1	y	0.67878
2.9380999999999915	0.2	casier	1	noun	phrase	1	10	match	casier	5	1	y	0.67878
3.137999999999991	0.0	+	1	noun	phrase	1	11	match	casier	5	1	y	0.67878
3.5378999999999934	0.0	+	1	noun	phrase	1	12	match	casier	5	1	y	0.67878
5.536999999999992	0.0	CASIER	1	noun	phrase	1	13	match	casier	5	1	y	0.67878
6.269999999999996	0.0	+	1	noun	phrase	1	14	match	casier	5	1	y	0.67878
6.215799999999987	0.0	[response]	1	noun	phrase	1	15	match	casier	5	1	y	0.67878
7.9358999999999895	0.0	+	2	noun	list	4	1	nomatch	tard	-1	1	p	0.7776
8.485699999999994	0.2	lmvqkj	2	noun	list	4	2	nomatch	tard	-1	1	p	0.7776
8.685599999999994	0.0	+	2	noun	list	4	3	nomatch	tard	-1	1	p	0.7776
9.086099999999988	0.2	vers	2	noun	list	4	4	nomatch	tard	-1	1	p	0.7776
9.285899999999998	0.0	+	2	noun	list	4	5	nomatch	tard	-1	1	p	0.7776
9.702399999999997	0.2	doit	2	noun	list	4	6	nomatch	tard	-1	1	p	0.7776
9.885199999999998	0.0	+	2	noun	list	4	7	nomatch	tard	-1	1	p	0.7776
10.285399999999996	0.2	voilier	2	noun	list	4	8	nomatch	tard	-1	1	p	0.7776
10.484799999999993	0.0	+	2	noun	list	4	9	nomatch	tard	-1	1	p	0.7776
10.884599999999992	0.2	loin	2	noun	list	4	10	nomatch	tard	-1	1	p	0.7776
11.084499999999991	0.0	+	2	noun	list	4	11	nomatch	tard	-1	1	p	0.7776
11.48429999999999	0.0	+	2	noun	list	4	12	nomatch	tard	-1	1	p	0.7776
13.517200000000003	0.0	TARD	2	noun	list	4	13	nomatch	tard	-1	1	p	0.7776
14.349699999999984	0.0	+	2	noun	list	4	14	nomatch	tard	-1	1	p	0.7776
14.29479999999998	0.0	[response]	2	noun	list	4	15	nomatch	tard	-1	1	p	0.7776
23.8955	0.0	+	3	noun	list	1	1	nomatch	rocher	-1	1	p	0.59587
24.445300000000003	0.2	gxhp	3	noun	list	1	2	nomatch	rocher	-1	1	p	0.59587
24.64519999999999	0.0	+	3	noun	list	1	3	nomatch	rocher	-1	1	p	0.59587
25.044999999999987	0.2	xwtz	3	noun	list	1	4	nomatch	rocher	-1	1	p	0.59587
25.2449	0.0	+	3	noun	list	1	5	nomatch	rocher	-1	1	p	0.59587
25.6447	0.2	xl	3	noun	list	1	6	nomatch	rocher	-1	1	p	0.59587
25.84469999999999	0.0	+	3	noun	list	1	7	nomatch	rocher	-1	1	p	0.59587
26.244499999999988	0.2	xncl	3	noun	list	1	8	nomatch	rocher	-1	1	p	0.59587
26.4444	0.0	+	3	noun	list	1	9	nomatch	rocher	-1	1	p	0.59587
26.8442	0.2	tablier	3	noun	list	1	10	nomatch	rocher	-1	1	p	0.59587
27.044099999999986	0.0	+	3	noun	list	1	11	nomatch	rocher	-1	1	p	0.59587
27.444699999999983	0.0	+	3	noun	list	1	12	nomatch	rocher	-1	1	p	0.59587
29.460499999999996	0.0	ROCHER	3	noun	list	1	13	nomatch	rocher	-1	1	p	0.59587
30.17609999999999	0.0	+	3	noun	list	1	14	nomatch	rocher	-1	1	p	0.59587
30.056299999999993	0.0	[response]	3	noun	list	1	15	nomatch	rocher	-1	1	p	0.59587
31.841999999999985	0.0	+	4	noun	list	1	1	match	rocher	5	1	y	0.4938
32.39179999999999	0.2	zcnk	4	noun	list	1	2	match	rocher	5	1	y	0.4938
32.5917	0.0	+	4	noun	list	1	3	match	rocher	5	1	y	0.4938
32.9915	0.2	zfs	4	noun	list	1	4	match	rocher	5	1	y	0.4938
33.19139999999999	0.0	+	4	noun	list	1	5	match	rocher	5	1	y	0.4938
33.591199999999986	0.2	xl	4	noun	list	1	6	match	rocher	5	1	y	0.4938
33.7911	0.0	+	4	noun	list	1	7	match	rocher	5	1	y	0.4938
34.191	0.2	xncl	4	noun	list	1	8	match	rocher	5	1	y	0.4938
34.3913	0.0	+	4	noun	list	1	9	match	rocher	5	1	y	0.4938
34.79139999999998	0.2	rocher	4	noun	list	1	10	match	rocher	5	1	y	0.4938
34.991299999999995	0.0	+	4	noun	list	1	11	match	rocher	5	1	y	0.4938
35.3904	0.0	+	4	noun	list	1	12	match	rocher	5	1	y	0.4938
37.40690000000001	0.0	ROCHER	4	noun	list	1	13	match	rocher	5	1	y	0.4938
37.95599999999999	0.0	+	4	noun	list	1	14	match	rocher	5	1	y	0.4938
37.9007	0.0	[response]	4	noun	list	1	15	match	rocher	5	1	y	0.4938
39.7885	0.0	+	5	noun	phrase	1	1	nomatch	vert	-1	1	p	0.46165
40.3382	0.2	pgsw	5	noun	phrase	1	2	nomatch	vert	-1	1	p	0.46165
40.53819999999999	0.0	+	5	noun	phrase	1	3	nomatch	vert	-1	1	p	0.46165
40.93799999999999	0.2	jwhm	5	noun	phrase	1	4	nomatch	vert	-1	1	p	0.46165
41.1379	0.0	+	5	noun	phrase	1	5	nomatch	vert	-1	1	p	0.46165
41.538399999999996	0.2	bxp	5	noun	phrase	1	6	nomatch	vert	-1	1	p	0.46165
41.738200000000006	0.0	+	5	noun	phrase	1	7	nomatch	vert	-1	1	p	0.46165
42.137699999999995	0.2	wsrgpk	5	noun	phrase	1	8	nomatch	vert	-1	1	p	0.46165
42.3374	0.0	+	5	noun	phrase	1	9	nomatch	vert	-1	1	p	0.46165
42.737899999999996	0.2	rouge	5	noun	phrase	1	10	nomatch	vert	-1	1	p	0.46165
42.93709999999999	0.0	+	5	noun	phrase	1	11	nomatch	vert	-1	1	p	0.46165
43.336899999999986	0.0	+	5	noun	phrase	1	12	nomatch	vert	-1	1	p	0.46165
45.335999999999984	0.0	VERT	5	noun	phrase	1	13	nomatch	vert	-1	1	p	0.46165
45.85249999999999	0.0	+	5	noun	phrase	1	14	nomatch	vert	-1	1	p	0.46165
45.79769999999999	0.0	[response]	5	noun	phrase	1	15	nomatch	vert	-1	1	p	0.46165
47.734999999999985	0.0	+	6	noun	list	1	1	match	moins	5	1	y	0.4985800000000001
48.28469999999999	0.2	tczxdfw	6	noun	list	1	2	match	moins	5	1	y	0.4985800000000001
48.4846	0.0	+	6	noun	list	1	3	match	moins	5	1	y	0.4985800000000001
48.8845	0.2	mqlx	6	noun	list	1	4	match	moins	5	1	y	0.4985800000000001
49.08439999999999	0.0	+	6	noun	list	1	5	match	moins	5	1	y	0.4985800000000001
49.48419999999999	0.2	bxp	6	noun	list	1	6	match	moins	5	1	y	0.4985800000000001
49.6841	0.0	+	6	noun	list	1	7	match	moins	5	1	y	0.4985800000000001
50.10129999999998	0.2	wsrgpk	6	noun	list	1	8	match	moins	5	1	y	0.4985800000000001
50.2843	0.0	+	6	noun	list	1	9	match	moins	5	1	y	0.4985800000000001
50.68369999999999	0.2	moins	6	noun	list	1	10	match	moins	5	1	y	0.4985800000000001
50.88389999999998	0.0	+	6	noun	list	1	11	match	moins	5	1	y	0.4985800000000001
51.300099999999986	0.0	+	6	noun	list	1	12	match	moins	5	1	y	0.4985800000000001
53.29989999999998	0.0	MOINS	6	noun	list	1	13	match	moins	5	1	y	0.4985800000000001
53.899100000000004	0.0	+	6	noun	list	1	14	match	moins	5	1	y	0.4985800000000001
53.79839999999999	0.0	[response]	6	noun	list	1	15	match	moins	5	1	y	0.4985800000000001
55.69809999999998	0.0	+	7	noun	list	2	1	nomatch	tôt	-1	1	p	0.74993
56.248099999999994	0.2	nvh	7	noun	list	2	2	nomatch	tôt	-1	1	p	0.74993
56.447900000000004	0.0	+	7	noun	list	2	3	nomatch	tôt	-1	1	p	0.74993
56.848299999999995	0.2	dztj	7	noun	list	2	4	nomatch	tôt	-1	1	p	0.74993
57.064599999999984	0.0	+	7	noun	list	2	5	nomatch	tôt	-1	1	p	0.74993
57.464200000000005	0.2	xl	7	noun	list	2	6	nomatch	tôt	-1	1	p	0.74993
57.6472	0.0	+	7	noun	list	2	7	nomatch	tôt	-1	1	p	0.74993
58.0471	0.2	tablier	7	noun	list	2	8	nomatch	tôt	-1	1	p	0.74993
58.246999999999986	0.0	+	7	noun	list	2	9	nomatch	tôt	-1	1	p	0.74993
58.646799999999985	0.2	vite	7	noun	list	2	10	nomatch	tôt	-1	1	p	0.74993
58.8467	0.0	+	7	noun	list	2	11	nomatch	tôt	-1	1	p	0.74993
59.2465	0.0	+	7	noun	list	2	12	nomatch	tôt	-1	1	p	0.74993
61.245599999999996	0.2	tôt	7	noun	list	2	13	nomatch	tôt	-1	1	p	0.74993
62.06199999999998	0.0	+	7	noun	list	2	14	nomatch	tôt	-1	1	p	0.74993
61.995599999999996	0.0	[response]	7	noun	list	2	15	nomatch	tôt	-1	1	p	0.74993
63.6446	0.0	+	8	noun	list	1	1	match	casier	5	1	y	0.4774
64.1944	0.2	dzqkvsm	8	noun	list	1	2	match	casier	5	1	y	0.4774
64.39429999999999	0.0	+	8	noun	list	1	3	match	casier	5	1	y	0.4774
64.79409999999999	0.2	xqsw	8	noun	list	1	4	match	casier	5	1	y	0.4774
64.994	0.0	+	8	noun	list	1	5	match	casier	5	1	y	0.4774
65.3938	0.2	hdmf	8	noun	list	1	6	match	casier	5	1	y	0.4774
65.59369999999998	0.0	+	8	noun	list	1	7	match	casier	5	1	y	0.4774
65.99359999999999	0.2	jqlv	8	noun	list	1	8	match	casier	5	1	y	0.4774
66.1936	0.0	+	8	noun	list	1	9	match	casier	5	1	y	0.4774
66.59359999999998	0.2	casier	8	noun	list	1	10	match	casier	5	1	y	0.4774
66.79319999999998	0.0	+	8	noun	list	1	11	match	casier	5	1	y	0.4774
67.19299999999998	0.0	+	8	noun	list	1	12	match	casier	5	1	y	0.4774
69.19289999999998	0.0	CASIER	8	noun	list	1	13	match	casier	5	1	y	0.4774
69.7252	0.0	+	8	noun	list	1	14	match	casier	5	1	y	0.4774
69.6703	0.0	[response]	8	noun	list	1	15	match	casier	5	1	y	0.4774
71.59109999999998	0.0	+	9	noun	list	4	1	match	plus	4	1	y	0.9194500000000001
72.14079999999998	0.2	gxrb	9	noun	list	4	2	match	plus	4	1	y	0.9194500000000001
72.3407	0.0	+	9	noun	list	4	3	match	plus	4	1	y	0.9194500000000001
72.7406	0.2	marc	9	noun	list	4	4	match	plus	4	1	y	0.9194500000000001
72.94049999999999	0.0	+	9	noun	list	4	5	match	plus	4	1	y	0.9194500000000001
73.34099999999998	0.2	mon	9	noun	list	4	6	match	plus	4	1	y	0.9194500000000001
73.55699999999999	0.0	+	9	noun	list	4	7	match	plus	4	1	y	0.9194500000000001
73.9572	0.2	plus	9	noun	list	4	8	match	plus	4	1	y	0.9194500000000001
74.1404	0.0	+	9	noun	list	4	9	match	plus	4	1	y	0.9194500000000001
74.53979999999999	0.2	casier	9	noun	list	4	10	match	plus	4	1	y	0.9194500000000001
74.7397	0.0	+	9	noun	list	4	11	match	plus	4	1	y	0.9194500000000001
75.1395	0.0	+	9	noun	list	4	12	match	plus	4	1	y	0.9194500000000001
77.13929999999999	0.0	PLUS	9	noun	list	4	13	match	plus	4	1	y	0.9194500000000001
78.1215	0.0	+	9	noun	list	4	14	match	plus	4	1	y	0.9194500000000001
78.05879999999999	0.0	[response]	9	noun	list	4	15	match	plus	4	1	y	0.9194500000000001
79.5375	0.0	+	10	verb	list	1	1	match	grand	5	1	y	0.51337
80.0873	0.2	rkc	10	verb	list	1	2	match	grand	5	1	y	0.51337
80.28719999999998	0.0	+	10	verb	list	1	3	match	grand	5	1	y	0.51337
80.68699999999998	0.2	xwtz	10	verb	list	1	4	match	grand	5	1	y	0.51337
80.887	0.0	+	10	verb	list	1	5	match	grand	5	1	y	0.51337
81.2868	0.2	xl	10	verb	list	1	6	match	grand	5	1	y	0.51337
81.4872	0.0	+	10	verb	list	1	7	match	grand	5	1	y	0.51337
81.8868	0.2	nhsjqxr	10	verb	list	1	8	match	grand	5	1	y	0.51337
82.08689999999999	0.0	+	10	verb	list	1	9	match	grand	5	1	y	0.51337
82.48689999999999	0.2	grand	10	verb	list	1	10	match	grand	5	1	y	0.51337
82.6868	0.0	+	10	verb	list	1	11	match	grand	5	1	y	0.51337
83.08599999999998	0.0	+	10	verb	list	1	12	match	grand	5	1	y	0.51337
85.08509999999998	0.0	GRAND	10	verb	list	1	13	match	grand	5	1	y	0.51337
85.6515	0.0	+	10	verb	list	1	14	match	grand	5	1	y	0.51337
85.5985	0.0	[response]	10	verb	list	1	15	match	grand	5	1	y	0.51337
87.51739999999998	0.0	+	11	noun	phrase	2	1	match	beau	4	1	y	0.50764
88.03379999999999	0.2	kwsb	11	noun	phrase	2	2	match	beau	4	1	y	0.50764
88.2337	0.0	+	11	noun	phrase	2	3	match	beau	4	1	y	0.50764
88.65019999999998	0.2	xwtz	11	noun	phrase	2	4	match	beau	4	1	y	0.50764
88.8501	0.0	+	11	noun	phrase	2	5	match	beau	4	1	y	0.50764
89.2499	0.2	fpzv	11	noun	phrase	2	6	match	beau	4	1	y	0.50764
89.44979999999998	0.0	+	11	noun	phrase	2	7	match	beau	4	1	y	0.50764
89.84969999999998	0.2	beau	11	noun	phrase	2	8	match	beau	4	1	y	0.50764
90.0496	0.0	+	11	noun	phrase	2	9	match	beau	4	1	y	0.50764
90.4494	0.2	tablier	11	noun	phrase	2	10	match	beau	4	1	y	0.50764
90.64929999999998	0.0	+	11	noun	phrase	2	11	match	beau	4	1	y	0.50764
91.04909999999998	0.0	+	11	noun	phrase	2	12	match	beau	4	1	y	0.50764
93.04819999999998	0.0	BEAU	11	noun	phrase	2	13	match	beau	4	1	y	0.50764
93.6146	0.0	+	11	noun	phrase	2	14	match	beau	4	1	y	0.50764
93.55590000000001	0.0	[response]	11	noun	phrase	2	15	match	beau	4	1	y	0.50764
95.44719999999998	0.0	+	12	noun	phrase	3	1	nomatch	tablier	-1	1	p	0.6901800000000001
95.99689999999998	0.2	xcvwnj	12	noun	phrase	3	2	nomatch	tablier	-1	1	p	0.6901800000000001
96.1968	0.0	+	12	noun	phrase	3	3	nomatch	tablier	-1	1	p	0.6901800000000001
96.59709999999998	0.2	xwtz	12	noun	phrase	3	4	nomatch	tablier	-1	1	p	0.6901800000000001
96.7969	0.0	+	12	noun	phrase	3	5	nomatch	tablier	-1	1	p	0.6901800000000001
97.19639999999998	0.2	mon	12	noun	phrase	3	6	nomatch	tablier	-1	1	p	0.6901800000000001
97.39689999999999	0.0	+	12	noun	phrase	3	7	nomatch	tablier	-1	1	p	0.6901800000000001
97.7961	0.2	rocher	12	noun	phrase	3	8	nomatch	tablier	-1	1	p	0.6901800000000001
97.99599999999998	0.0	+	12	noun	phrase	3	9	nomatch	tablier	-1	1	p	0.6901800000000001
98.39589999999998	0.2	noir	12	noun	phrase	3	10	nomatch	tablier	-1	1	p	0.6901800000000001
98.5958	0.0	+	12	noun	phrase	3	11	nomatch	tablier	-1	1	p	0.6901800000000001
98.9956	0.0	+	12	noun	phrase	3	12	nomatch	tablier	-1	1	p	0.6901800000000001
100.9947	0.0	TABLIER	12	noun	phrase	3	13	nomatch	tablier	-1	1	p	0.6901800000000001
101.74439999999998	0.0	+	12	noun	phrase	3	14	nomatch	tablier	-1	1	p	0.6901800000000001
101.6849	0.0	[response]	12	noun	phrase	3	15	nomatch	tablier	-1	1	p	0.6901800000000001
103.3937	0.0	+	13	noun	phrase	2	1	match	casier	5	1	y	0.59688
103.9434	0.2	cft	13	noun	phrase	2	2	match	casier	5	1	y	0.59688
104.14329999999998	0.0	+	13	noun	phrase	2	3	match	casier	5	1	y	0.59688
104.54309999999998	0.2	gbvz	13	noun	phrase	2	4	match	casier	5	1	y	0.59688
104.7431	0.0	+	13	noun	phrase	2	5	match	casier	5	1	y	0.59688
105.1429	0.2	bxp	13	noun	phrase	2	6	match	casier	5	1	y	0.59688
105.34279999999998	0.0	+	13	noun	phrase	2	7	match	casier	5	1	y	0.59688
105.74259999999998	0.2	grand	13	noun	phrase	2	8	match	casier	5	1	y	0.59688
105.9425	0.0	+	13	noun	phrase	2	9	match	casier	5	1	y	0.59688
106.3426	0.2	casier	13	noun	phrase	2	10	match	casier	5	1	y	0.59688
106.543	0.0	+	13	noun	phrase	2	11	match	casier	5	1	y	0.59688
106.9426	0.0	+	13	noun	phrase	2	12	match	casier	5	1	y	0.59688
108.94119999999998	0.0	CASIER	13	noun	phrase	2	13	match	casier	5	1	y	0.59688
109.5909	0.0	+	13	noun	phrase	2	14	match	casier	5	1	y	0.59688
109.53809999999999	0.0	[response]	13	noun	phrase	2	15	match	casier	5	1	y	0.59688
111.3401	0.0	+	14	noun	list	4	1	match	leur	3	1	y	0.4768
111.88989999999998	0.2	dtcw	14	noun	list	4	2	match	leur	3	1	y	0.4768
112.0898	0.0	+	14	noun	list	4	3	match	leur	3	1	y	0.4768
112.4899	0.2	adam	14	noun	list	4	4	match	leur	3	1	y	0.4768
112.6902	0.0	+	14	noun	list	4	5	match	leur	3	1	y	0.4768
113.08949999999999	0.2	leur	14	noun	list	4	6	match	leur	3	1	y	0.4768
113.28999999999999	0.0	+	14	noun	list	4	7	match	leur	3	1	y	0.4768
113.6893	0.2	mieux	14	noun	list	4	8	match	leur	3	1	y	0.4768
113.88899999999998	0.0	+	14	noun	list	4	9	match	leur	3	1	y	0.4768
114.28879999999998	0.2	rocher	14	noun	list	4	10	match	leur	3	1	y	0.4768
114.4888	0.0	+	14	noun	list	4	11	match	leur	3	1	y	0.4768
114.8886	0.0	+	14	noun	list	4	12	match	leur	3	1	y	0.4768
116.8877	0.0	LEUR	14	noun	list	4	13	match	leur	3	1	y	0.4768
117.4882	0.0	+	14	noun	list	4	14	match	leur	3	1	y	0.4768
117.36449999999999	0.0	[response]	14	noun	list	4	15	match	leur	3	1	y	0.4768
119.28659999999999	0.0	+	15	noun	list	1	1	nomatch	grenier	-1	1	p	0.57695
119.8364	0.2	clhqrtp	15	noun	list	1	2	nomatch	grenier	-1	1	p	0.57695
120.03629999999998	0.0	+	15	noun	list	1	3	nomatch	grenier	-1	1	p	0.57695
120.43639999999999	0.2	nqwz	15	noun	list	1	4	nomatch	grenier	-1	1	p	0.57695
120.6361	0.0	+	15	noun	list	1	5	nomatch	grenier	-1	1	p	0.57695
121.03629999999998	0.2	jtp	15	noun	list	1	6	nomatch	grenier	-1	1	p	0.57695
121.2362	0.0	+	15	noun	list	1	7	nomatch	grenier	-1	1	p	0.57695
121.63559999999998	0.2	crkjbpvw	15	noun	list	1	8	nomatch	grenier	-1	1	p	0.57695
121.8355	0.0	+	15	noun	list	1	9	nomatch	grenier	-1	1	p	0.57695
122.2353	0.2	rocher	15	noun	list	1	10	nomatch	grenier	-1	1	p	0.57695
122.43519999999998	0.0	+	15	noun	list	1	11	nomatch	grenier	-1	1	p	0.57695
122.83499999999998	0.0	+	15	noun	list	1	12	nomatch	grenier	-1	1	p	0.57695
124.83429999999998	0.0	GRENIER	15	noun	list	1	13	nomatch	grenier	-1	1	p	0.57695
125.46719999999999	0.0	+	15	noun	list	1	14	nomatch	grenier	-1	1	p	0.57695
125.41119999999998	0.0	[response]	15	noun	list	1	15	nomatch	grenier	-1	1	p	0.57695
127.25029999999998	0.0	+	16	verb	list	1	1	nomatch	sous	-1	1	p	0.632
127.8167	0.2	brmhgc	16	verb	list	1	2	nomatch	sous	-1	1	p	0.632
127.99969999999999	0.0	+	16	verb	list	1	3	nomatch	sous	-1	1	p	0.632
128.4166	0.2	fnth	16	verb	list	1	4	nomatch	sous	-1	1	p	0.632
128.5992	0.0	+	16	verb	list	1	5	nomatch	sous	-1	1	p	0.632
128.999	0.2	bxp	16	verb	list	1	6	nomatch	sous	-1	1	p	0.632
129.19889999999998	0.0	+	16	verb	list	1	7	nomatch	sous	-1	1	p	0.632
129.59869999999998	0.2	xfps	16	verb	list	1	8	nomatch	sous	-1	1	p	0.632
129.7986	0.0	+	16	verb	list	1	9	nomatch	sous	-1	1	p	0.632
130.1985	0.2	plonger	16	verb	list	1	10	nomatch	sous	-1	1	p	0.632
130.39839999999998	0.0	+	16	verb	list	1	11	nomatch	sous	-1	1	p	0.632
130.7986	0.0	+	16	verb	list	1	12	nomatch	sous	-1	1	p	0.632
132.7973	0.0	SOUS	16	verb	list	1	13	nomatch	sous	-1	1	p	0.632
133.49699999999999	0.0	+	16	verb	list	1	14	nomatch	sous	-1	1	p	0.632
133.42929999999998	0.0	[response]	16	verb	list	1	15	nomatch	sous	-1	1	p	0.632
135.1962	0.0	+	17	noun	list	3	1	match	boîtier	4	1	y	0.67218
135.74599999999998	0.2	gdhtc	17	noun	list	3	2	match	boîtier	4	1	y	0.67218
135.9459	0.0	+	17	noun	list	3	3	match	boîtier	4	1	y	0.67218
136.3457	0.2	jwhm	17	noun	list	3	4	match	boîtier	4	1	y	0.67218
136.54569999999998	0.0	+	17	noun	list	3	5	match	boîtier	4	1	y	0.67218
136.94549999999998	0.2	peut	17	noun	list	3	6	match	boîtier	4	1	y	0.67218
137.14579999999998	0.0	+	17	noun	list	3	7	match	boîtier	4	1	y	0.67218
137.5456	0.2	boîtier	17	noun	list	3	8	match	boîtier	4	1	y	0.67218
137.7451	0.0	+	17	noun	list	3	9	match	boîtier	4	1	y	0.67218
138.1449	0.2	tard	17	noun	list	3	10	match	boîtier	4	1	y	0.67218
138.3448	0.0	+	17	noun	list	3	11	match	boîtier	4	1	y	0.67218
138.7447	0.0	+	17	noun	list	3	12	match	boîtier	4	1	y	0.67218
140.74380000000002	0.2	boîtier	17	noun	list	3	13	match	boîtier	4	1	y	0.67218
141.5937	0.0	+	17	noun	list	3	14	match	boîtier	4	1	y	0.67218
141.416	0.0	[response]	17	noun	list	3	15	match	boîtier	4	1	y	0.67218
143.1427	0.0	+	18	verb	list	1	1	match	petit	5	1	y	0.6
143.6925	0.2	wvx	18	verb	list	1	2	match	petit	5	1	y	0.6
143.8924	0.0	+	18	verb	list	1	3	match	petit	5	1	y	0.6
144.29219999999998	0.2	xqsw	18	verb	list	1	4	match	petit	5	1	y	0.6
144.4921	0.0	+	18	verb	list	1	5	match	petit	5	1	y	0.6
144.89190000000002	0.2	ltfh	18	verb	list	1	6	match	petit	5	1	y	0.6
145.0919	0.0	+	18	verb	list	1	7	match	petit	5	1	y	0.6
145.49239999999998	0.2	txfsck	18	verb	list	1	8	match	petit	5	1	y	0.6
145.6922	0.0	+	18	verb	list	1	9	match	petit	5	1	y	0.6
146.09199999999998	0.2	petit	18	verb	list	1	10	match	petit	5	1	y	0.6
146.29149999999998	0.0	+	18	verb	list	1	11	match	petit	5	1	y	0.6
146.6916	0.0	+	18	verb	list	1	12	match	petit	5	1	y	0.6
148.69029999999998	0.0	PETIT	18	verb	list	1	13	match	petit	5	1	y	0.6
149.35660000000001	0.0	+	18	verb	list	1	14	match	petit	5	1	y	0.6
149.2903	0.0	[response]	18	verb	list	1	15	match	petit	5	1	y	0.6
151.0892	0.0	+	19	noun	list	1	1	nomatch	danser	-1	1	p	0.78704
151.639	0.2	hbpzlgw	19	noun	list	1	2	nomatch	danser	-1	1	p	0.78704
151.83889999999997	0.0	+	19	noun	list	1	3	nomatch	danser	-1	1	p	0.78704
152.2387	0.2	tgm	19	noun	list	1	4	nomatch	danser	-1	1	p	0.78704
152.4386	0.0	+	19	noun	list	1	5	nomatch	danser	-1	1	p	0.78704
152.83839999999998	0.2	fpzv	19	noun	list	1	6	nomatch	danser	-1	1	p	0.78704
153.0383	0.0	+	19	noun	list	1	7	nomatch	danser	-1	1	p	0.78704
153.4382	0.2	crkjbpvw	19	noun	list	1	8	nomatch	danser	-1	1	p	0.78704
153.6381	0.0	+	19	noun	list	1	9	nomatch	danser	-1	1	p	0.78704
154.03789999999998	0.2	grenier	19	noun	list	1	10	nomatch	danser	-1	1	p	0.78704
154.23829999999998	0.0	+	19	noun	list	1	11	nomatch	danser	-1	1	p	0.78704
154.6377	0.0	+	19	noun	list	1	12	nomatch	danser	-1	1	p	0.78704
156.6368	0.0	DANSER	19	noun	list	1	13	nomatch	danser	-1	1	p	0.78704
157.4871	0.0	+	19	noun	list	1	14	nomatch	danser	-1	1	p	0.78704
157.42379999999997	0.0	[response]	19	noun	list	1	15	nomatch	danser	-1	1	p	0.78704
159.03570000000002	0.0	+	20	noun	list	3	1	match	beaucoup	4	1	y	0.64199
159.58549999999997	0.2	rhs	20	noun	list	3	2	match	beaucoup	4	1	y	0.64199
159.78539999999998	0.0	+	20	noun	list	3	3	match	beaucoup	4	1	y	0.64199
160.1852	0.2	sndq	20	noun	list	3	4	match	beaucoup	4	1	y	0.64199
160.3856	0.0	+	20	noun	list	3	5	match	beaucoup	4	1	y	0.64199
160.7853	0.2	leur	20	noun	list	3	6	match	beaucoup	4	1	y	0.64199
160.9851	0.0	+	20	noun	list	3	7	match	beaucoup	4	1	y	0.64199
161.3847	0.2	beaucoup	20	noun	list	3	8	match	beaucoup	4	1	y	0.64199
161.6019	0.0	+	20	noun	list	3	9	match	beaucoup	4	1	y	0.64199
161.9844	0.2	voilier	20	noun	list	3	10	match	beaucoup	4	1	y	0.64199
162.1843	0.0	+	20	noun	list	3	11	match	beaucoup	4	1	y	0.64199
162.58409999999998	0.0	+	20	noun	list	3	12	match	beaucoup	4	1	y	0.64199
164.5999	0.0	BEAUCOUP	20	noun	list	3	13	match	beaucoup	4	1	y	0.64199
165.2996	0.0	+	20	noun	list	3	14	match	beaucoup	4	1	y	0.64199
165.2419	0.0	[response]	20	noun	list	3	15	match	beaucoup	4	1	y	0.64199
166.99880000000002	0.0	+	21	noun	phrase	2	1	nomatch	noir	-1	1	p	0.71098
167.54860000000002	0.2	rfcwql	21	noun	phrase	2	2	nomatch	noir	-1	1	p	0.71098
167.74849999999998	0.0	+	21	noun	phrase	2	3	nomatch	noir	-1	1	p	0.71098
168.14889999999997	0.2	zfs	21	noun	phrase	2	4	nomatch	noir	-1	1	p	0.71098
168.34879999999998	0.0	+	21	noun	phrase	2	5	nomatch	noir	-1	1	p	0.71098
168.74809999999997	0.2	fpzv	21	noun	phrase	2	6	nomatch	noir	-1	1	p	0.71098
168.94799999999998	0.0	+	21	noun	phrase	2	7	nomatch	noir	-1	1	p	0.71098
169.3478	0.2	rocher	21	noun	phrase	2	8	nomatch	noir	-1	1	p	0.71098
169.54770000000002	0.0	+	21	noun	phrase	2	9	nomatch	noir	-1	1	p	0.71098
169.9475	0.2	rouge	21	noun	phrase	2	10	nomatch	noir	-1	1	p	0.71098
170.1474	0.0	+	21	noun	phrase	2	11	nomatch	noir	-1	1	p	0.71098
170.5473	0.0	+	21	noun	phrase	2	12	nomatch	noir	-1	1	p	0.71098
172.5464	0.0	NOIR	21	noun	phrase	2	13	nomatch	noir	-1	1	p	0.71098
173.3127	0.0	+	21	noun	phrase	2	14	nomatch	noir	-1	1	p	0.71098
173.25740000000002	0.0	[response]	21	noun	phrase	2	15	nomatch	noir	-1	1	p	0.71098
174.94529999999997	0.0	+	22	noun	list	3	1	nomatch	paul	-1	1	p	0.7466500000000001
175.49509999999998	0.2	psd	22	noun	list	3	2	nomatch	paul	-1	1	p	0.7466500000000001
175.695	0.0	+	22	noun	list	3	3	nomatch	paul	-1	1	p	0.7466500000000001
176.09480000000002	0.2	xqsw	22	noun	list	3	4	nomatch	paul	-1	1	p	0.7466500000000001
176.29469999999998	0.0	+	22	noun	list	3	5	nomatch	paul	-1	1	p	0.7466500000000001
176.7119	0.2	peut	22	noun	list	3	6	nomatch	paul	-1	1	p	0.7466500000000001
176.89499999999998	0.0	+	22	noun	list	3	7	nomatch	paul	-1	1	p	0.7466500000000001
177.29449999999997	0.2	tablier	22	noun	list	3	8	nomatch	paul	-1	1	p	0.7466500000000001
177.49439999999998	0.0	+	22	noun	list	3	9	nomatch	paul	-1	1	p	0.7466500000000001
177.894	0.2	tard	22	noun	list	3	10	nomatch	paul	-1	1	p	0.7466500000000001
178.09390000000002	0.0	+	22	noun	list	3	11	nomatch	paul	-1	1	p	0.7466500000000001
178.49380000000002	0.0	+	22	noun	list	3	12	nomatch	paul	-1	1	p	0.7466500000000001
180.49290000000002	0.0	PAUL	22	noun	list	3	13	nomatch	paul	-1	1	p	0.7466500000000001
181.30989999999997	0.0	+	22	noun	list	3	14	nomatch	paul	-1	1	p	0.7466500000000001
181.23950000000002	0.0	[response]	22	noun	list	3	15	nomatch	paul	-1	1	p	0.7466500000000001
182.8918	0.0	+	23	noun	phrase	4	1	match	casier	5	1	y	0.49082
183.4416	0.2	jdk	23	noun	phrase	4	2	match	casier	5	1	y	0.49082
183.6415	0.0	+	23	noun	phrase	4	3	match	casier	5	1	y	0.49082
184.04129999999998	0.2	sous	23	noun	phrase	4	4	match	casier	5	1	y	0.49082
184.25849999999997	0.0	+	23	noun	phrase	4	5	match	casier	5	1	y	0.49082
184.6415	0.2	mon	23	noun	phrase	4	6	match	casier	5	1	y	0.49082
184.84089999999998	0.0	+	23	noun	phrase	4	7	match	casier	5	1	y	0.49082
185.24079999999998	0.2	vieux	23	noun	phrase	4	8	match	casier	5	1	y	0.49082
185.4407	0.0	+	23	noun	phrase	4	9	match	casier	5	1	y	0.49082
185.84050000000002	0.2	casier	23	noun	phrase	4	10	match	casier	5	1	y	0.49082
186.04039999999998	0.0	+	23	noun	phrase	4	11	match	casier	5	1	y	0.49082
186.4402	0.0	+	23	noun	phrase	4	12	match	casier	5	1	y	0.49082
188.4565	0.0	CASIER	23	noun	phrase	4	13	match	casier	5	1	y	0.49082
189.10649999999998	0.0	+	23	noun	phrase	4	14	match	casier	5	1	y	0.49082
188.94740000000002	0.0	[response]	23	noun	phrase	4	15	match	casier	5	1	y	0.49082
190.8383	0.0	+	24	noun	phrase	1	1	match	rocher	5	1	y	0.61801
191.3881	0.2	jqnrdwf	24	noun	phrase	1	2	match	rocher	5	1	y	0.61801
191.5885	0.0	+	24	noun	phrase	1	3	match	rocher	5	1	y	0.61801
191.9878	0.2	zfs	24	noun	phrase	1	4	match	rocher	5	1	y	0.61801
192.1877	0.0	+	24	noun	phrase	1	5	match	rocher	5	1	y	0.61801
192.58749999999998	0.2	fpzv	24	noun	phrase	1	6	match	rocher	5	1	y	0.61801
192.7874	0.0	+	24	noun	phrase	1	7	match	rocher	5	1	y	0.61801
193.18720000000002	0.2	blxzq	24	noun	phrase	1	8	match	rocher	5	1	y	0.61801
193.3872	0.0	+	24	noun	phrase	1	9	match	rocher	5	1	y	0.61801
193.78699999999998	0.2	rocher	24	noun	phrase	1	10	match	rocher	5	1	y	0.61801
193.9869	0.0	+	24	noun	phrase	1	11	match	rocher	5	1	y	0.61801
194.38670000000002	0.0	+	24	noun	phrase	1	12	match	rocher	5	1	y	0.61801
196.4026	0.0	ROCHER	24	noun	phrase	1	13	match	rocher	5	1	y	0.61801
197.08549999999997	0.0	+	24	noun	phrase	1	14	match	rocher	5	1	y	0.61801
197.0206	0.0	[response]	24	noun	phrase	1	15	match	rocher	5	1	y	0.61801
198.78480000000002	0.0	+	25	noun	phrase	1	1	nomatch	rouge	-1	1	p	0.51212
199.3345	0.2	bxjl	25	noun	phrase	1	2	nomatch	rouge	-1	1	p	0.51212
199.5344	0.0	+	25	noun	phrase	1	3	nomatch	rouge	-1	1	p	0.51212
199.93419999999998	0.2	scgn	25	noun	phrase	1	4	nomatch	rouge	-1	1	p	0.51212
200.13420000000002	0.0	+	25	noun	phrase	1	5	nomatch	rouge	-1	1	p	0.51212
200.5344	0.2	fpzv	25	noun	phrase	1	6	nomatch	rouge	-1	1	p	0.51212
200.7509	0.0	+	25	noun	phrase	1	7	nomatch	rouge	-1	1	p	0.51212
201.13439999999997	0.2	mlvpckt	25	noun	phrase	1	8	nomatch	rouge	-1	1	p	0.51212
201.3342	0.0	+	25	noun	phrase	1	9	nomatch	rouge	-1	1	p	0.51212
201.75009999999997	0.2	noir	25	noun	phrase	1	10	nomatch	rouge	-1	1	p	0.51212
201.95	0.0	+	25	noun	phrase	1	11	nomatch	rouge	-1	1	p	0.51212
202.3499	0.0	+	25	noun	phrase	1	12	nomatch	rouge	-1	1	p	0.51212
204.34949999999998	0.0	ROUGE	25	noun	phrase	1	13	nomatch	rouge	-1	1	p	0.51212
204.91539999999998	0.0	+	25	noun	phrase	1	14	nomatch	rouge	-1	1	p	0.51212
204.8616	0.0	[response]	25	noun	phrase	1	15	nomatch	rouge	-1	1	p	0.51212
206.74790000000002	0.0	+	26	noun	phrase	3	1	match	tablier	5	1	y	0.72362
207.29770000000002	0.2	qsvgjmk	26	noun	phrase	3	2	match	tablier	5	1	y	0.72362
207.49759999999998	0.0	+	26	noun	phrase	3	3	match	tablier	5	1	y	0.72362
207.8974	0.2	dztj	26	noun	phrase	3	4	match	tablier	5	1	y	0.72362
208.09769999999997	0.0	+	26	noun	phrase	3	5	match	tablier	5	1	y	0.72362
208.49759999999998	0.2	mon	26	noun	phrase	3	6	match	tablier	5	1	y	0.72362
208.69759999999997	0.0	+	26	noun	phrase	3	7	match	tablier	5	1	y	0.72362
209.0969	0.2	petit	26	noun	phrase	3	8	match	tablier	5	1	y	0.72362
209.29680000000002	0.0	+	26	noun	phrase	3	9	match	tablier	5	1	y	0.72362
209.6966	0.2	tablier	26	noun	phrase	3	10	match	tablier	5	1	y	0.72362
209.8965	0.0	+	26	noun	phrase	3	11	match	tablier	5	1	y	0.72362
210.29629999999997	0.0	+	26	noun	phrase	3	12	match	tablier	5	1	y	0.72362
212.2957	0.0	TABLIER	26	noun	phrase	3	13	match	tablier	5	1	y	0.72362
213.16219999999998	0.0	+	26	noun	phrase	3	14	match	tablier	5	1	y	0.72362
213.0193	0.0	[response]	26	noun	phrase	3	15	match	tablier	5	1	y	0.72362
214.69439999999997	0.0	+	27	noun	phrase	3	1	nomatch	casier	-1	1	p	0.6284700000000001
215.2441	0.2	krsgq	27	noun	phrase	3	2	nomatch	casier	-1	1	p	0.6284700000000001
215.4441	0.0	+	27	noun	phrase	3	3	nomatch	casier	-1	1	p	0.6284700000000001
215.84409999999997	0.2	zfs	27	noun	phrase	3	4	nomatch	casier	-1	1	p	0.6284700000000001
216.0439	0.0	+	27	noun	phrase	3	5	nomatch	casier	-1	1	p	0.6284700000000001
216.44419999999997	0.2	mon	27	noun	phrase	3	6	nomatch	casier	-1	1	p	0.6284700000000001
216.64350000000002	0.0	+	27	noun	phrase	3	7	nomatch	casier	-1	1	p	0.6284700000000001
217.04340000000002	0.2	cendrier	27	noun	phrase	3	8	nomatch	casier	-1	1	p	0.6284700000000001
217.24329999999998	0.0	+	27	noun	phrase	3	9	nomatch	casier	-1	1	p	0.6284700000000001
217.6431	0.2	rouge	27	noun	phrase	3	10	nomatch	casier	-1	1	p	0.6284700000000001
217.84300000000002	0.0	+	27	noun	phrase	3	11	nomatch	casier	-1	1	p	0.6284700000000001
218.2428	0.0	+	27	noun	phrase	3	12	nomatch	casier	-1	1	p	0.6284700000000001
220.24200000000002	0.0	CASIER	27	noun	phrase	3	13	nomatch	casier	-1	1	p	0.6284700000000001
220.925	0.0	+	27	noun	phrase	3	14	nomatch	casier	-1	1	p	0.6284700000000001
220.8705	0.0	[response]	27	noun	phrase	3	15	nomatch	casier	-1	1	p	0.6284700000000001
222.6409	0.0	+	28	noun	phrase	4	1	nomatch	ainsi	-1	1	p	0.74139
223.19060000000002	0.2	wnv	28	noun	phrase	4	2	nomatch	ainsi	-1	1	p	0.74139
223.39049999999997	0.0	+	28	noun	phrase	4	3	nomatch	ainsi	-1	1	p	0.74139
223.79039999999998	0.2	vers	28	noun	phrase	4	4	nomatch	ainsi	-1	1	p	0.74139
223.9903	0.0	+	28	noun	phrase	4	5	nomatch	ainsi	-1	1	p	0.74139
224.39010000000002	0.2	mon	28	noun	phrase	4	6	nomatch	ainsi	-1	1	p	0.74139
224.58999999999997	0.0	+	28	noun	phrase	4	7	nomatch	ainsi	-1	1	p	0.74139
224.99059999999997	0.2	casier	28	noun	phrase	4	8	nomatch	ainsi	-1	1	p	0.74139
225.19009999999997	0.0	+	28	noun	phrase	4	9	nomatch	ainsi	-1	1	p	0.74139
225.58960000000002	0.2	noir	28	noun	phrase	4	10	nomatch	ainsi	-1	1	p	0.74139
225.78949999999998	0.0	+	28	noun	phrase	4	11	nomatch	ainsi	-1	1	p	0.74139
226.1893	0.0	+	28	noun	phrase	4	12	nomatch	ainsi	-1	1	p	0.74139
228.1889	0.0	AINSI	28	noun	phrase	4	13	nomatch	ainsi	-1	1	p	0.74139
228.98809999999997	0.0	+	28	noun	phrase	4	14	nomatch	ainsi	-1	1	p	0.74139
228.93030000000005	0.0	[response]	28	noun	phrase	4	15	nomatch	ainsi	-1	1	p	0.74139
238.6178	0.0	+	29	noun	list	3	1	nomatch	beaucoup	-1	1	p	0.69818
239.13369999999998	0.2	fcrpqd	29	noun	list	3	2	nomatch	beaucoup	-1	1	p	0.69818
239.3501	0.0	+	29	noun	list	3	3	nomatch	beaucoup	-1	1	p	0.69818
239.75	0.2	mqlx	29	noun	list	3	4	nomatch	beaucoup	-1	1	p	0.69818
239.9499	0.0	+	29	noun	list	3	5	nomatch	beaucoup	-1	1	p	0.69818
240.34969999999998	0.2	son	29	noun	list	3	6	nomatch	beaucoup	-1	1	p	0.69818
240.5496	0.0	+	29	noun	list	3	7	nomatch	beaucoup	-1	1	p	0.69818
240.94939999999997	0.2	plus	29	noun	list	3	8	nomatch	beaucoup	-1	1	p	0.69818
241.14929999999998	0.0	+	29	noun	list	3	9	nomatch	beaucoup	-1	1	p	0.69818
241.54919999999998	0.2	rocher	29	noun	list	3	10	nomatch	beaucoup	-1	1	p	0.69818
241.7491	0.0	+	29	noun	list	3	11	nomatch	beaucoup	-1	1	p	0.69818
242.14889999999997	0.0	+	29	noun	list	3	12	nomatch	beaucoup	-1	1	p	0.69818
244.14799999999997	0.0	BEAUCOUP	29	noun	list	3	13	nomatch	beaucoup	-1	1	p	0.69818
244.8977	0.0	+	29	noun	list	3	14	nomatch	beaucoup	-1	1	p	0.69818
244.8462	0.0	[response]	29	noun	list	3	15	nomatch	beaucoup	-1	1	p	0.69818
246.54699999999997	0.0	+	30	noun	phrase	3	1	nomatch	noir	-1	1	p	0.70161
247.0967	0.2	mjxzpt	30	noun	phrase	3	2	nomatch	noir	-1	1	p	0.70161
247.2966	0.0	+	30	noun	phrase	3	3	nomatch	noir	-1	1	p	0.70161
247.69650000000001	0.2	gbvz	30	noun	phrase	3	4	nomatch	noir	-1	1	p	0.70161
247.89639999999997	0.0	+	30	noun	phrase	3	5	nomatch	noir	-1	1	p	0.70161
248.2962	0.2	leur	30	noun	phrase	3	6	nomatch	noir	-1	1	p	0.70161
248.4961	0.0	+	30	noun	phrase	3	7	nomatch	noir	-1	1	p	0.70161
248.89639999999997	0.2	sablier	30	noun	phrase	3	8	nomatch	noir	-1	1	p	0.70161
249.0962	0.0	+	30	noun	phrase	3	9	nomatch	noir	-1	1	p	0.70161
249.49630000000002	0.2	bleu	30	noun	phrase	3	10	nomatch	noir	-1	1	p	0.70161
249.6956	0.0	+	30	noun	phrase	3	11	nomatch	noir	-1	1	p	0.70161
250.09539999999998	0.0	+	30	noun	phrase	3	12	nomatch	noir	-1	1	p	0.70161
252.09519999999998	0.0	NOIR	30	noun	phrase	3	13	nomatch	noir	-1	1	p	0.70161
252.8779	0.0	+	30	noun	phrase	3	14	nomatch	noir	-1	1	p	0.70161
252.7969	0.0	[response]	30	noun	phrase	3	15	nomatch	noir	-1	1	p	0.70161
254.4934	0.0	+	31	noun	phrase	1	1	nomatch	tablier	-1	1	p	0.71006
255.0432	0.2	mkp	31	noun	phrase	1	2	nomatch	tablier	-1	1	p	0.71006
255.24380000000002	0.0	+	31	noun	phrase	1	3	nomatch	tablier	-1	1	p	0.71006
255.6601	0.2	jwhm	31	noun	phrase	1	4	nomatch	tablier	-1	1	p	0.71006
255.84319999999997	0.0	+	31	noun	phrase	1	5	nomatch	tablier	-1	1	p	0.71006
256.2433	0.2	fpzv	31	noun	phrase	1	6	nomatch	tablier	-1	1	p	0.71006
256.4599	0.0	+	31	noun	phrase	1	7	nomatch	tablier	-1	1	p	0.71006
256.8424	0.2	glbkt	31	noun	phrase	1	8	nomatch	tablier	-1	1	p	0.71006
257.0423	0.0	+	31	noun	phrase	1	9	nomatch	tablier	-1	1	p	0.71006
257.4421	0.2	cendrier	31	noun	phrase	1	10	nomatch	tablier	-1	1	p	0.71006
257.642	0.0	+	31	noun	phrase	1	11	nomatch	tablier	-1	1	p	0.71006
258.0419	0.0	+	31	noun	phrase	1	12	nomatch	tablier	-1	1	p	0.71006
260.041	0.0	TABLIER	31	noun	phrase	1	13	nomatch	tablier	-1	1	p	0.71006
260.8073	0.0	+	31	noun	phrase	1	14	nomatch	tablier	-1	1	p	0.71006
260.7511	0.0	[response]	31	noun	phrase	1	15	nomatch	tablier	-1	1	p	0.71006
262.43989999999997	0.0	+	32	noun	phrase	2	1	match	grenier	5	1	y	0.5152000000000001
262.98969999999997	0.2	jbzm	32	noun	phrase	2	2	match	grenier	5	1	y	0.5152000000000001
263.1896	0.0	+	32	noun	phrase	2	3	match	grenier	5	1	y	0.5152000000000001
263.5894	0.2	zfs	32	noun	phrase	2	4	match	grenier	5	1	y	0.5152000000000001
263.78929999999997	0.0	+	32	noun	phrase	2	5	match	grenier	5	1	y	0.5152000000000001
264.1891	0.2	bxp	32	noun	phrase	2	6	match	grenier	5	1	y	0.5152000000000001
264.3891	0.0	+	32	noun	phrase	2	7	match	grenier	5	1	y	0.5152000000000001
264.7889	0.2	nouveau	32	noun	phrase	2	8	match	grenier	5	1	y	0.5152000000000001
264.9893	0.0	+	32	noun	phrase	2	9	match	grenier	5	1	y	0.5152000000000001
265.389	0.2	grenier	32	noun	phrase	2	10	match	grenier	5	1	y	0.5152000000000001
265.5885	0.0	+	32	noun	phrase	2	11	match	grenier	5	1	y	0.5152000000000001
265.9884	0.0	+	32	noun	phrase	2	12	match	grenier	5	1	y	0.5152000000000001
267.98789999999997	0.0	GRENIER	32	noun	phrase	2	13	match	grenier	5	1	y	0.5152000000000001
268.5705	0.0	+	32	noun	phrase	2	14	match	grenier	5	1	y	0.5152000000000001
268.5031	0.0	[response]	32	noun	phrase	2	15	match	grenier	5	1	y	0.5152000000000001
270.3864	0.0	+	33	noun	list	1	1	match	tard	5	0	p	0.59953
270.9531	0.2	jhgtlb	33	noun	list	1	2	match	tard	5	0	p	0.59953
271.1361	0.0	+	33	noun	list	1	3	match	tard	5	0	p	0.59953
271.5364	0.2	zfs	33	noun	list	1	4	match	tard	5	0	p	0.59953
271.7528	0.0	+	33	noun	list	1	5	match	tard	5	0	p	0.59953
272.1356	0.2	xl	33	noun	list	1	6	match	tard	5	0	p	0.59953
272.33549999999997	0.0	+	33	noun	list	1	7	match	tard	5	0	p	0.59953
272.73539999999997	0.2	wgqslkf	33	noun	list	1	8	match	tard	5	0	p	0.59953
272.9353	0.0	+	33	noun	list	1	9	match	tard	5	0	p	0.59953
273.3351	0.2	tard	33	noun	list	1	10	match	tard	5	0	p	0.59953
273.53499999999997	0.0	+	33	noun	list	1	11	match	tard	5	0	p	0.59953
273.9348	0.0	+	33	noun	list	1	12	match	tard	5	0	p	0.59953
275.9339	0.0	TARD	33	noun	list	1	13	match	tard	5	0	p	0.59953
276.6003	0.0	+	33	noun	list	1	14	match	tard	5	0	p	0.59953
276.53350000000006	0.0	[response]	33	noun	list	1	15	match	tard	5	0	p	0.59953
278.3495	0.0	+	34	noun	phrase	1	1	nomatch	boîtier	-1	1	p	0.74806
278.8993	0.2	cdsqp	34	noun	phrase	1	2	nomatch	boîtier	-1	1	p	0.74806
279.0999	0.0	+	34	noun	phrase	1	3	nomatch	boîtier	-1	1	p	0.74806
279.4996	0.2	jwhm	34	noun	phrase	1	4	nomatch	boîtier	-1	1	p	0.74806
279.6989	0.0	+	34	noun	phrase	1	5	nomatch	boîtier	-1	1	p	0.74806
280.0988	0.2	fpzv	34	noun	phrase	1	6	nomatch	boîtier	-1	1	p	0.74806
280.2987	0.0	+	34	noun	phrase	1	7	nomatch	boîtier	-1	1	p	0.74806
280.69849999999997	0.2	zphb	34	noun	phrase	1	8	nomatch	boîtier	-1	1	p	0.74806
280.8984	0.0	+	34	noun	phrase	1	9	nomatch	boîtier	-1	1	p	0.74806
281.2982	0.2	voilier	34	noun	phrase	1	10	nomatch	boîtier	-1	1	p	0.74806
281.4982	0.0	+	34	noun	phrase	1	11	nomatch	boîtier	-1	1	p	0.74806
281.89799999999997	0.0	+	34	noun	phrase	1	12	nomatch	boîtier	-1	1	p	0.74806
283.8976	0.2	boîtier	34	noun	phrase	1	13	nomatch	boîtier	-1	1	p	0.74806
284.7301	0.0	+	34	noun	phrase	1	14	nomatch	boîtier	-1	1	p	0.74806
284.6457	0.0	[response]	34	noun	phrase	1	15	nomatch	boîtier	-1	1	p	0.74806
294.2926	0.0	+	35	noun	list	1	1	match	vite	5	1	y	0.5943100000000001
294.8422	0.2	xnbjpcw	35	noun	list	1	2	match	vite	5	1	y	0.5943100000000001
295.0422	0.0	+	35	noun	list	1	3	match	vite	5	1	y	0.5943100000000001
295.44259999999997	0.2	zfs	35	noun	list	1	4	match	vite	5	1	y	0.5943100000000001
295.6425	0.0	+	35	noun	list	1	5	match	vite	5	1	y	0.5943100000000001
296.0425	0.2	hdmf	35	noun	list	1	6	match	vite	5	1	y	0.5943100000000001
296.2423	0.0	+	35	noun	list	1	7	match	vite	5	1	y	0.5943100000000001
296.6415	0.2	frqlpb	35	noun	list	1	8	match	vite	5	1	y	0.5943100000000001
296.8414	0.0	+	35	noun	list	1	9	match	vite	5	1	y	0.5943100000000001
297.2412	0.2	vite	35	noun	list	1	10	match	vite	5	1	y	0.5943100000000001
297.4411	0.0	+	35	noun	list	1	11	match	vite	5	1	y	0.5943100000000001
297.8409	0.0	+	35	noun	list	1	12	match	vite	5	1	y	0.5943100000000001
299.84	0.0	VITE	35	noun	list	1	13	match	vite	5	1	y	0.5943100000000001
300.48969999999997	0.0	+	35	noun	list	1	14	match	vite	5	1	y	0.5943100000000001
300.4343	0.0	[response]	35	noun	list	1	15	match	vite	5	1	y	0.5943100000000001
302.239	0.0	+	36	noun	list	4	1	match	casier	4	1	y	0.8435500000000001
302.7887	0.2	nktz	36	noun	list	4	2	match	casier	4	1	y	0.8435500000000001
302.9893	0.0	+	36	noun	list	4	3	match	casier	4	1	y	0.8435500000000001
303.4053	0.2	sous	36	noun	list	4	4	match	casier	4	1	y	0.8435500000000001
303.6051	0.0	+	36	noun	list	4	5	match	casier	4	1	y	0.8435500000000001
303.9882	0.2	peut	36	noun	list	4	6	match	casier	4	1	y	0.8435500000000001
304.1881	0.0	+	36	noun	list	4	7	match	casier	4	1	y	0.8435500000000001
304.5879	0.2	casier	36	noun	list	4	8	match	casier	4	1	y	0.8435500000000001
304.7878	0.0	+	36	noun	list	4	9	match	casier	4	1	y	0.8435500000000001
305.1877	0.2	loin	36	noun	list	4	10	match	casier	4	1	y	0.8435500000000001
305.3876	0.0	+	36	noun	list	4	11	match	casier	4	1	y	0.8435500000000001
305.7881	0.0	+	36	noun	list	4	12	match	casier	4	1	y	0.8435500000000001
307.7865	0.0	CASIER	36	noun	list	4	13	match	casier	4	1	y	0.8435500000000001
308.6861	0.0	+	36	noun	list	4	14	match	casier	4	1	y	0.8435500000000001
308.63009999999997	0.0	[response]	36	noun	list	4	15	match	casier	4	1	y	0.8435500000000001
310.1855	0.0	+	37	noun	phrase	1	1	match	grenier	5	1	y	0.63189
310.7353	0.2	mwfbqhv	37	noun	phrase	1	2	match	grenier	5	1	y	0.63189
310.9351	0.0	+	37	noun	phrase	1	3	match	grenier	5	1	y	0.63189
311.3349	0.2	gbvz	37	noun	phrase	1	4	match	grenier	5	1	y	0.63189
311.5349	0.0	+	37	noun	phrase	1	5	match	grenier	5	1	y	0.63189
311.9347	0.2	bxp	37	noun	phrase	1	6	match	grenier	5	1	y	0.63189
312.1346	0.0	+	37	noun	phrase	1	7	match	grenier	5	1	y	0.63189
312.5344	0.2	zphb	37	noun	phrase	1	8	match	grenier	5	1	y	0.63189
312.7343	0.0	+	37	noun	phrase	1	9	match	grenier	5	1	y	0.63189
313.1348	0.2	grenier	37	noun	phrase	1	10	match	grenier	5	1	y	0.63189
313.33459999999997	0.0	+	37	noun	phrase	1	11	match	grenier	5	1	y	0.63189
313.7339	0.0	+	37	noun	phrase	1	12	match	grenier	5	1	y	0.63189
315.7503	0.0	GRENIER	37	noun	phrase	1	13	match	grenier	5	1	y	0.63189
316.5334	0.0	+	37	noun	phrase	1	14	match	grenier	5	1	y	0.63189
316.38220000000007	0.0	[response]	37	noun	phrase	1	15	match	grenier	5	1	y	0.63189
318.1486	0.0	+	38	noun	phrase	1	1	nomatch	rouge	-1	1	p	0.6125
318.6984	0.2	nfqh	38	noun	phrase	1	2	nomatch	rouge	-1	1	p	0.6125
318.8983	0.0	+	38	noun	phrase	1	3	nomatch	rouge	-1	1	p	0.6125
319.2983	0.2	dztj	38	noun	phrase	1	4	nomatch	rouge	-1	1	p	0.6125
319.4987	0.0	+	38	noun	phrase	1	5	nomatch	rouge	-1	1	p	0.6125
319.8984	0.2	bxp	38	noun	phrase	1	6	nomatch	rouge	-1	1	p	0.6125
320.0981	0.0	+	38	noun	phrase	1	7	nomatch	rouge	-1	1	p	0.6125
320.51439999999997	0.2	dnjwxkhq	38	noun	phrase	1	8	nomatch	rouge	-1	1	p	0.6125
320.6975	0.0	+	38	noun	phrase	1	9	nomatch	rouge	-1	1	p	0.6125
321.0973	0.2	nouveau	38	noun	phrase	1	10	nomatch	rouge	-1	1	p	0.6125
321.2972	0.0	+	38	noun	phrase	1	11	nomatch	rouge	-1	1	p	0.6125
321.697	0.0	+	38	noun	phrase	1	12	nomatch	rouge	-1	1	p	0.6125
323.6968	0.0	ROUGE	38	noun	phrase	1	13	nomatch	rouge	-1	1	p	0.6125
324.3625	0.0	+	38	noun	phrase	1	14	nomatch	rouge	-1	1	p	0.6125
324.3093	0.0	[response]	38	noun	phrase	1	15	nomatch	rouge	-1	1	p	0.6125
326.0951	0.0	+	39	verb	list	1	1	match	rouge	5	1	y	0.72475
326.6452	0.2	lcgvsd	39	verb	list	1	2	match	rouge	5	1	y	0.72475
326.8449	0.0	+	39	verb	list	1	3	match	rouge	5	1	y	0.72475
327.2453	0.2	xgsj	39	verb	list	1	4	match	rouge	5	1	y	0.72475
327.445	0.0	+	39	verb	list	1	5	match	rouge	5	1	y	0.72475
327.8443	0.2	jtp	39	verb	list	1	6	match	rouge	5	1	y	0.72475
328.0442	0.0	+	39	verb	list	1	7	match	rouge	5	1	y	0.72475
328.444	0.2	tzqhfnx	39	verb	list	1	8	match	rouge	5	1	y	0.72475
328.644	0.0	+	39	verb	list	1	9	match	rouge	5	1	y	0.72475
329.0438	0.2	rouge	39	verb	list	1	10	match	rouge	5	1	y	0.72475
329.2437	0.0	+	39	verb	list	1	11	match	rouge	5	1	y	0.72475
329.6438	0.0	+	39	verb	list	1	12	match	rouge	5	1	y	0.72475
331.6426	0.0	ROUGE	39	verb	list	1	13	match	rouge	5	1	y	0.72475
332.4256	0.0	+	39	verb	list	1	14	match	rouge	5	1	y	0.72475
332.3674	0.0	[response]	39	verb	list	1	15	match	rouge	5	1	y	0.72475
334.0416	0.0	+	40	noun	list	2	1	match	rocher	5	1	y	0.53464
334.5913	0.2	blg	40	noun	list	2	2	match	rocher	5	1	y	0.53464
334.7912	0.0	+	40	noun	list	2	3	match	rocher	5	1	y	0.53464
335.191	0.2	tqdg	40	noun	list	2	4	match	rocher	5	1	y	0.53464
335.39119999999997	0.0	+	40	noun	list	2	5	match	rocher	5	1	y	0.53464
335.7908	0.2	jtp	40	noun	list	2	6	match	rocher	5	1	y	0.53464
335.99129999999997	0.0	+	40	noun	list	2	7	match	rocher	5	1	y	0.53464
336.4074	0.2	moins	40	noun	list	2	8	match	rocher	5	1	y	0.53464
336.5905	0.0	+	40	noun	list	2	9	match	rocher	5	1	y	0.53464
336.9902	0.2	rocher	40	noun	list	2	10	match	rocher	5	1	y	0.53464
337.1902	0.0	+	40	noun	list	2	11	match	rocher	5	1	y	0.53464
337.59	0.0	+	40	noun	list	2	12	match	rocher	5	1	y	0.53464
339.5891	0.0	ROCHER	40	noun	list	2	13	match	rocher	5	1	y	0.53464
340.1889	0.0	+	40	noun	list	2	14	match	rocher	5	1	y	0.53464
340.1237	0.0	[response]	40	noun	list	2	15	match	rocher	5	1	y	0.53464
341.988	0.0	+	41	verb	list	3	1	nomatch	son	-1	1	p	0.83298
342.5378	0.2	gdcwq	41	verb	list	3	2	nomatch	son	-1	1	p	0.83298
342.7377	0.0	+	41	verb	list	3	3	nomatch	son	-1	1	p	0.83298
343.1376	0.2	tqdg	41	verb	list	3	4	nomatch	son	-1	1	p	0.83298
343.3548	0.0	+	41	verb	list	3	5	nomatch	son	-1	1	p	0.83298
343.7377	0.2	mon	41	verb	list	3	6	nomatch	son	-1	1	p	0.83298
343.9376	0.0	+	41	verb	list	3	7	nomatch	son	-1	1	p	0.83298
344.3376	0.2	danser	41	verb	list	3	8	nomatch	son	-1	1	p	0.83298
344.5369	0.0	+	41	verb	list	3	9	nomatch	son	-1	1	p	0.83298
344.9367	0.2	vert	41	verb	list	3	10	nomatch	son	-1	1	p	0.83298
345.1366	0.0	+	41	verb	list	3	11	nomatch	son	-1	1	p	0.83298
345.5365	0.0	+	41	verb	list	3	12	nomatch	son	-1	1	p	0.83298
347.536	0.0	SON	41	verb	list	3	13	nomatch	son	-1	1	p	0.83298
348.4352	0.0	+	41	verb	list	3	14	nomatch	son	-1	1	p	0.83298
348.36899999999997	0.0	[response]	41	verb	list	3	15	nomatch	son	-1	1	p	0.83298
365.9441	0.0	+	42	noun	phrase	4	1	match	beau	4	1	y	0.66715
366.4939	0.2	qmprw	42	noun	phrase	4	2	match	beau	4	1	y	0.66715
366.6938	0.0	+	42	noun	phrase	4	3	match	beau	4	1	y	0.66715
367.0936	0.2	sans	42	noun	phrase	4	4	match	beau	4	1	y	0.66715
367.2935	0.0	+	42	noun	phrase	4	5	match	beau	4	1	y	0.66715
367.6933	0.2	mon	42	noun	phrase	4	6	match	beau	4	1	y	0.66715
367.8932	0.0	+	42	noun	phrase	4	7	match	beau	4	1	y	0.66715
368.2931	0.2	beau	42	noun	phrase	4	8	match	beau	4	1	y	0.66715
368.5103	0.0	+	42	noun	phrase	4	9	match	beau	4	1	y	0.66715
368.8929	0.2	tablier	42	noun	phrase	4	10	match	beau	4	1	y	0.66715
369.093	0.0	+	42	noun	phrase	4	11	match	beau	4	1	y	0.66715
369.49309999999997	0.0	+	42	noun	phrase	4	12	match	beau	4	1	y	0.66715
371.4923	0.0	BEAU	42	noun	phrase	4	13	match	beau	4	1	y	0.66715
372.2247	0.0	+	42	noun	phrase	4	14	match	beau	4	1	y	0.66715
372.1594	0.0	[response]	42	noun	phrase	4	15	match	beau	4	1	y	0.66715
373.8906	0.0	+	43	verb	list	1	1	nomatch	voilier	-1	1	p	0.71765
374.4403	0.2	ftbzn	43	verb	list	1	2	nomatch	voilier	-1	1	p	0.71765
374.6402	0.0	+	43	verb	list	1	3	nomatch	voilier	-1	1	p	0.71765
375.0401	0.2	mqlx	43	verb	list	1	4	nomatch	voilier	-1	1	p	0.71765
375.24	0.0	+	43	verb	list	1	5	nomatch	voilier	-1	1	p	0.71765
375.6404	0.2	jtp	43	verb	list	1	6	nomatch	voilier	-1	1	p	0.71765
375.8403	0.0	+	43	verb	list	1	7	nomatch	voilier	-1	1	p	0.71765
376.24	0.2	nhsjqxr	43	verb	list	1	8	nomatch	voilier	-1	1	p	0.71765
376.4398	0.0	+	43	verb	list	1	9	nomatch	voilier	-1	1	p	0.71765
376.8393	0.2	rouge	43	verb	list	1	10	nomatch	voilier	-1	1	p	0.71765
377.0392	0.0	+	43	verb	list	1	11	nomatch	voilier	-1	1	p	0.71765
377.439	0.0	+	43	verb	list	1	12	nomatch	voilier	-1	1	p	0.71765
379.4381	0.0	VOILIER	43	verb	list	1	13	nomatch	voilier	-1	1	p	0.71765
380.2211	0.0	+	43	verb	list	1	14	nomatch	voilier	-1	1	p	0.71765
380.1558	0.0	[response]	43	verb	list	1	15	nomatch	voilier	-1	1	p	0.71765
389.9342	0.0	+	44	verb	list	3	1	nomatch	ainsi	-1	1	p	0.52757
390.4006	0.2	qgn	44	verb	list	3	2	nomatch	ainsi	-1	1	p	0.52757
390.6003	0.0	+	44	verb	list	3	3	nomatch	ainsi	-1	1	p	0.52757
390.9997	0.2	dztj	44	verb	list	3	4	nomatch	ainsi	-1	1	p	0.52757
391.1996	0.0	+	44	verb	list	3	5	nomatch	ainsi	-1	1	p	0.52757
391.5994	0.2	doit	44	verb	list	3	6	nomatch	ainsi	-1	1	p	0.52757
391.7993	0.0	+	44	verb	list	3	7	nomatch	ainsi	-1	1	p	0.52757
392.1992	0.2	nouveau	44	verb	list	3	8	nomatch	ainsi	-1	1	p	0.52757
392.3991	0.0	+	44	verb	list	3	9	nomatch	ainsi	-1	1	p	0.52757
392.7989	0.2	voyager	44	verb	list	3	10	nomatch	ainsi	-1	1	p	0.52757
392.9988	0.0	+	44	verb	list	3	11	nomatch	ainsi	-1	1	p	0.52757
393.3986	0.0	+	44	verb	list	3	12	nomatch	ainsi	-1	1	p	0.52757
395.3983	0.0	AINSI	44	verb	list	3	13	nomatch	ainsi	-1	1	p	0.52757
395.9808	0.0	+	44	verb	list	3	14	nomatch	ainsi	-1	1	p	0.52757
395.9259	0.0	[response]	44	verb	list	3	15	nomatch	ainsi	-1	1	p	0.52757
405.8101	0.0	+	45	verb	phrase	3	1	nomatch	rouler	-1	1	p	0.99576
406.343	0.2	gzx	45	verb	phrase	3	2	nomatch	rouler	-1	1	p	0.99576
406.54349999999994	0.0	+	45	verb	phrase	3	3	nomatch	rouler	-1	1	p	0.99576
406.9431	0.2	sndq	45	verb	phrase	3	4	nomatch	rouler	-1	1	p	0.99576
407.1425	0.0	+	45	verb	phrase	3	5	nomatch	rouler	-1	1	p	0.99576
407.5424	0.2	peut	45	verb	phrase	3	6	nomatch	rouler	-1	1	p	0.99576
407.74229999999994	0.0	+	45	verb	phrase	3	7	nomatch	rouler	-1	1	p	0.99576
408.14209999999997	0.2	parader	45	verb	phrase	3	8	nomatch	rouler	-1	1	p	0.99576
408.34200000000004	0.0	+	45	verb	phrase	3	9	nomatch	rouler	-1	1	p	0.99576
408.74179999999996	0.2	tard	45	verb	phrase	3	10	nomatch	rouler	-1	1	p	0.99576
408.9417	0.0	+	45	verb	phrase	3	11	nomatch	rouler	-1	1	p	0.99576
409.3416	0.0	+	45	verb	phrase	3	12	nomatch	rouler	-1	1	p	0.99576
411.3407	0.0	ROULER	45	verb	phrase	3	13	nomatch	rouler	-1	1	p	0.99576
412.3902	0.0	+	45	verb	phrase	3	14	nomatch	rouler	-1	1	p	0.99576
412.33649999999994	0.0	[response]	45	verb	phrase	3	15	nomatch	rouler	-1	1	p	0.99576
413.73959999999994	0.0	+	46	verb	list	3	1	nomatch	moins	-1	1	p	0.75889
414.28939999999994	0.2	hxmkcn	46	verb	list	3	2	nomatch	moins	-1	1	p	0.75889
414.4893	0.0	+	46	verb	list	3	3	nomatch	moins	-1	1	p	0.75889
414.88910000000004	0.2	xwtz	46	verb	list	3	4	nomatch	moins	-1	1	p	0.75889
415.089	0.0	+	46	verb	list	3	5	nomatch	moins	-1	1	p	0.75889
415.48959999999994	0.2	peut	46	verb	list	3	6	nomatch	moins	-1	1	p	0.75889
415.689	0.0	+	46	verb	list	3	7	nomatch	moins	-1	1	p	0.75889
416.08919999999995	0.2	nouveau	46	verb	list	3	8	nomatch	moins	-1	1	p	0.75889
416.28889999999996	0.0	+	46	verb	list	3	9	nomatch	moins	-1	1	p	0.75889
416.68850000000003	0.2	rouler	46	verb	list	3	10	nomatch	moins	-1	1	p	0.75889
416.88820000000004	0.0	+	46	verb	list	3	11	nomatch	moins	-1	1	p	0.75889
417.2887	0.0	+	46	verb	list	3	12	nomatch	moins	-1	1	p	0.75889
419.28709999999995	0.0	MOINS	46	verb	list	3	13	nomatch	moins	-1	1	p	0.75889
420.1035	0.0	+	46	verb	list	3	14	nomatch	moins	-1	1	p	0.75889
420.046	0.0	[response]	46	verb	list	3	15	nomatch	moins	-1	1	p	0.75889
421.68609999999995	0.0	+	47	verb	list	1	1	nomatch	va	-1	1	p	0.71701
422.2358	0.2	lrgps	47	verb	list	1	2	nomatch	va	-1	1	p	0.71701
422.43580000000003	0.0	+	47	verb	list	1	3	nomatch	va	-1	1	p	0.71701
422.83559999999994	0.2	xqsw	47	verb	list	1	4	nomatch	va	-1	1	p	0.71701
423.0355	0.0	+	47	verb	list	1	5	nomatch	va	-1	1	p	0.71701
423.43530000000004	0.2	xl	47	verb	list	1	6	nomatch	va	-1	1	p	0.71701
423.63590000000005	0.0	+	47	verb	list	1	7	nomatch	va	-1	1	p	0.71701
424.03540000000004	0.2	jnzbl	47	verb	list	1	8	nomatch	va	-1	1	p	0.71701
424.23510000000005	0.0	+	47	verb	list	1	9	nomatch	va	-1	1	p	0.71701
424.6348	0.2	nager	47	verb	list	1	10	nomatch	va	-1	1	p	0.71701
424.83469999999994	0.0	+	47	verb	list	1	11	nomatch	va	-1	1	p	0.71701
425.23449999999997	0.0	+	47	verb	list	1	12	nomatch	va	-1	1	p	0.71701
427.234	0.0	VA	47	verb	list	1	13	nomatch	va	-1	1	p	0.71701
428.0333	0.0	+	47	verb	list	1	14	nomatch	va	-1	1	p	0.71701
427.95099999999996	0.0	[response]	47	verb	list	1	15	nomatch	va	-1	1	p	0.71701
429.6492	0.0	+	48	verb	phrase	2	1	match	beaucoup	4	1	y	0.6090100000000002
430.2159	0.2	zrdk	48	verb	phrase	2	2	match	beaucoup	4	1	y	0.6090100000000002
430.39950000000005	0.0	+	48	verb	phrase	2	3	match	beaucoup	4	1	y	0.6090100000000002
430.79900000000004	0.2	sndq	48	verb	phrase	2	4	match	beaucoup	4	1	y	0.6090100000000002
431.01550000000003	0.0	+	48	verb	phrase	2	5	match	beaucoup	4	1	y	0.6090100000000002
431.3988	0.2	hdmf	48	verb	phrase	2	6	match	beaucoup	4	1	y	0.6090100000000002
431.59869999999995	0.0	+	48	verb	phrase	2	7	match	beaucoup	4	1	y	0.6090100000000002
431.99819999999994	0.2	beaucoup	48	verb	phrase	2	8	match	beaucoup	4	1	y	0.6090100000000002
432.1981	0.0	+	48	verb	phrase	2	9	match	beaucoup	4	1	y	0.6090100000000002
432.59790000000004	0.2	danser	48	verb	phrase	2	10	match	beaucoup	4	1	y	0.6090100000000002
432.7978	0.0	+	48	verb	phrase	2	11	match	beaucoup	4	1	y	0.6090100000000002
433.1977	0.0	+	48	verb	phrase	2	12	match	beaucoup	4	1	y	0.6090100000000002
435.1968	0.0	BEAUCOUP	48	verb	phrase	2	13	match	beaucoup	4	1	y	0.6090100000000002
435.8631	0.0	+	48	verb	phrase	2	14	match	beaucoup	4	1	y	0.6090100000000002
435.80580000000003	0.0	[response]	48	verb	phrase	2	15	match	beaucoup	4	1	y	0.6090100000000002
437.5957	0.0	+	49	verb	phrase	1	1	nomatch	vieux	-1	1	p	0.95051
438.1455	0.2	dnlt	49	verb	phrase	1	2	nomatch	vieux	-1	1	p	0.95051
438.3454	0.0	+	49	verb	phrase	1	3	nomatch	vieux	-1	1	p	0.95051
438.7452	0.2	sndq	49	verb	phrase	1	4	nomatch	vieux	-1	1	p	0.95051
438.94509999999997	0.0	+	49	verb	phrase	1	5	nomatch	vieux	-1	1	p	0.95051
439.3449	0.2	ltfh	49	verb	phrase	1	6	nomatch	vieux	-1	1	p	0.95051
439.5451	0.0	+	49	verb	phrase	1	7	nomatch	vieux	-1	1	p	0.95051
439.96189999999996	0.2	txfsck	49	verb	phrase	1	8	nomatch	vieux	-1	1	p	0.95051
440.14489999999995	0.0	+	49	verb	phrase	1	9	nomatch	vieux	-1	1	p	0.95051
440.5445	0.2	vite	49	verb	phrase	1	10	nomatch	vieux	-1	1	p	0.95051
440.74499999999995	0.0	+	49	verb	phrase	1	11	nomatch	vieux	-1	1	p	0.95051
441.14410000000004	0.0	+	49	verb	phrase	1	12	nomatch	vieux	-1	1	p	0.95051
443.1433	0.0	VIEUX	49	verb	phrase	1	13	nomatch	vieux	-1	1	p	0.95051
444.15950000000004	0.0	+	49	verb	phrase	1	14	nomatch	vieux	-1	1	p	0.95051
444.09380000000004	0.0	[response]	49	verb	phrase	1	15	nomatch	vieux	-1	1	p	0.95051
453.53860000000003	0.0	+	50	noun	phrase	4	1	nomatch	beau	-1	1	p	0.72884
454.08840000000004	0.2	bsrkz	50	noun	phrase	4	2	nomatch	beau	-1	1	p	0.72884
454.2888	0.0	+	50	noun	phrase	4	3	nomatch	beau	-1	1	p	0.72884
454.68829999999997	0.2	avec	50	noun	phrase	4	4	nomatch	beau	-1	1	p	0.72884
454.8888	0.0	+	50	noun	phrase	4	5	nomatch	beau	-1	1	p	0.72884
455.28849999999994	0.2	leur	50	noun	phrase	4	6	nomatch	beau	-1	1	p	0.72884
455.48830000000004	0.0	+	50	noun	phrase	4	7	nomatch	beau	-1	1	p	0.72884
455.88759999999996	0.2	grand	50	noun	phrase	4	8	nomatch	beau	-1	1	p	0.72884
456.08750000000003	0.0	+	50	noun	phrase	4	9	nomatch	beau	-1	1	p	0.72884
456.48740000000004	0.2	grenier	50	noun	phrase	4	10	nomatch	beau	-1	1	p	0.72884
456.6873	0.0	+	50	noun	phrase	4	11	nomatch	beau	-1	1	p	0.72884
457.0871	0.0	+	50	noun	phrase	4	12	nomatch	beau	-1	1	p	0.72884
459.0862	0.0	BEAU	50	noun	phrase	4	13	nomatch	beau	-1	1	p	0.72884
459.86920000000003	0.0	+	50	noun	phrase	4	14	nomatch	beau	-1	1	p	0.72884
459.815	0.0	[response]	50	noun	phrase	4	15	nomatch	beau	-1	1	p	0.72884
461.4852	0.0	+	51	verb	phrase	2	1	nomatch	mieux	-1	1	p	0.55097
462.03490000000005	0.2	phwsrng	51	verb	phrase	2	2	nomatch	mieux	-1	1	p	0.55097
462.2348	0.0	+	51	verb	phrase	2	3	nomatch	mieux	-1	1	p	0.55097
462.63460000000003	0.2	mqlx	51	verb	phrase	2	4	nomatch	mieux	-1	1	p	0.55097
462.8345	0.0	+	51	verb	phrase	2	5	nomatch	mieux	-1	1	p	0.55097
463.2344	0.2	hdmf	51	verb	phrase	2	6	nomatch	mieux	-1	1	p	0.55097
463.43429999999995	0.0	+	51	verb	phrase	2	7	nomatch	mieux	-1	1	p	0.55097
463.8341	0.2	plus	51	verb	phrase	2	8	nomatch	mieux	-1	1	p	0.55097
464.0343	0.0	+	51	verb	phrase	2	9	nomatch	mieux	-1	1	p	0.55097
464.43429999999995	0.2	patiner	51	verb	phrase	2	10	nomatch	mieux	-1	1	p	0.55097
464.651	0.0	+	51	verb	phrase	2	11	nomatch	mieux	-1	1	p	0.55097
465.03360000000004	0.0	+	51	verb	phrase	2	12	nomatch	mieux	-1	1	p	0.55097
467.0496	0.0	MIEUX	51	verb	phrase	2	13	nomatch	mieux	-1	1	p	0.55097
467.66569999999996	0.0	+	51	verb	phrase	2	14	nomatch	mieux	-1	1	p	0.55097
467.60060000000004	0.0	[response]	51	verb	phrase	2	15	nomatch	mieux	-1	1	p	0.55097
469.44829999999996	0.0	+	52	verb	phrase	4	1	nomatch	va	-1	1	p	0.86767
469.998	0.2	rsmtq	52	verb	phrase	4	2	nomatch	va	-1	1	p	0.86767
470.19789999999995	0.0	+	52	verb	phrase	4	3	nomatch	va	-1	1	p	0.86767
470.59779999999995	0.2	yves	52	verb	phrase	4	4	nomatch	va	-1	1	p	0.86767
470.7977	0.0	+	52	verb	phrase	4	5	nomatch	va	-1	1	p	0.86767
471.19789999999995	0.2	doit	52	verb	phrase	4	6	nomatch	va	-1	1	p	0.86767
471.3979	0.0	+	52	verb	phrase	4	7	nomatch	va	-1	1	p	0.86767
471.7973	0.2	moins	52	verb	phrase	4	8	nomatch	va	-1	1	p	0.86767
471.9971	0.0	+	52	verb	phrase	4	9	nomatch	va	-1	1	p	0.86767
472.397	0.2	plonger	52	verb	phrase	4	10	nomatch	va	-1	1	p	0.86767
472.59689999999995	0.0	+	52	verb	phrase	4	11	nomatch	va	-1	1	p	0.86767
472.9967	0.0	+	52	verb	phrase	4	12	nomatch	va	-1	1	p	0.86767
474.9958	0.0	VA	52	verb	phrase	4	13	nomatch	va	-1	1	p	0.86767
475.9287	0.0	+	52	verb	phrase	4	14	nomatch	va	-1	1	p	0.86767
475.8635	0.0	[response]	52	verb	phrase	4	15	nomatch	va	-1	1	p	0.86767
485.39119999999997	0.0	+	53	noun	list	2	1	match	beaucoup	4	1	y	0.77662
485.941	0.2	vkfg	53	noun	list	2	2	match	beaucoup	4	1	y	0.77662
486.14090000000004	0.0	+	53	noun	list	2	3	match	beaucoup	4	1	y	0.77662
486.54069999999996	0.2	mqlx	53	noun	list	2	4	match	beaucoup	4	1	y	0.77662
486.74060000000003	0.0	+	53	noun	list	2	5	match	beaucoup	4	1	y	0.77662
487.14039999999994	0.2	bxp	53	noun	list	2	6	match	beaucoup	4	1	y	0.77662
487.34049999999996	0.0	+	53	noun	list	2	7	match	beaucoup	4	1	y	0.77662
487.7408	0.2	beaucoup	53	noun	list	2	8	match	beaucoup	4	1	y	0.77662
487.9408	0.0	+	53	noun	list	2	9	match	beaucoup	4	1	y	0.77662
488.3399	0.2	sablier	53	noun	list	2	10	match	beaucoup	4	1	y	0.77662
488.53979999999996	0.0	+	53	noun	list	2	11	match	beaucoup	4	1	y	0.77662
488.93969999999996	0.0	+	53	noun	list	2	12	match	beaucoup	4	1	y	0.77662
490.93879999999996	0.0	BEAUCOUP	53	noun	list	2	13	match	beaucoup	4	1	y	0.77662
491.8557	0.0	+	53	noun	list	2	14	match	beaucoup	4	1	y	0.77662
491.7154	0.0	[response]	53	noun	list	2	15	match	beaucoup	4	1	y	0.77662
493.3377	0.0	+	54	noun	list	2	1	match	sablier	4	1	y	0.63449
493.8875	0.2	lnhbwvr	54	noun	list	2	2	match	sablier	4	1	y	0.63449
494.08739999999995	0.0	+	54	noun	list	2	3	match	sablier	4	1	y	0.63449
494.5042	0.2	zfs	54	noun	list	2	4	match	sablier	4	1	y	0.63449
494.6878	0.0	+	54	noun	list	2	5	match	sablier	4	1	y	0.63449
495.08750000000003	0.2	hdmf	54	noun	list	2	6	match	sablier	4	1	y	0.63449
495.2874	0.0	+	54	noun	list	2	7	match	sablier	4	1	y	0.63449
495.68670000000003	0.2	sablier	54	noun	list	2	8	match	sablier	4	1	y	0.63449
495.8866	0.0	+	54	noun	list	2	9	match	sablier	4	1	y	0.63449
496.2864	0.2	ainsi	54	noun	list	2	10	match	sablier	4	1	y	0.63449
496.48629999999997	0.0	+	54	noun	list	2	11	match	sablier	4	1	y	0.63449
496.8861	0.0	+	54	noun	list	2	12	match	sablier	4	1	y	0.63449
498.8852	0.0	SABLIER	54	noun	list	2	13	match	sablier	4	1	y	0.63449
499.5849	0.0	+	54	noun	list	2	14	match	sablier	4	1	y	0.63449
499.5197	0.0	[response]	54	noun	list	2	15	match	sablier	4	1	y	0.63449
501.2842	0.0	+	55	verb	phrase	1	1	match	loin	5	1	y	0.48117
501.8339	0.2	vjbsqx	55	verb	phrase	1	2	match	loin	5	1	y	0.48117
502.03450000000004	0.0	+	55	verb	phrase	1	3	match	loin	5	1	y	0.48117
502.43429999999995	0.2	fnth	55	verb	phrase	1	4	match	loin	5	1	y	0.48117
502.63359999999994	0.0	+	55	verb	phrase	1	5	match	loin	5	1	y	0.48117
503.0501	0.2	xl	55	verb	phrase	1	6	match	loin	5	1	y	0.48117
503.24999999999994	0.0	+	55	verb	phrase	1	7	match	loin	5	1	y	0.48117
503.64979999999997	0.2	vjrmh	55	verb	phrase	1	8	match	loin	5	1	y	0.48117
503.84970000000004	0.0	+	55	verb	phrase	1	9	match	loin	5	1	y	0.48117
504.24949999999995	0.2	loin	55	verb	phrase	1	10	match	loin	5	1	y	0.48117
504.4495	0.0	+	55	verb	phrase	1	11	match	loin	5	1	y	0.48117
504.84999999999997	0.0	+	55	verb	phrase	1	12	match	loin	5	1	y	0.48117
506.8484	0.0	LOIN	55	verb	phrase	1	13	match	loin	5	1	y	0.48117
507.3815	0.0	+	55	verb	phrase	1	14	match	loin	5	1	y	0.48117
507.32959999999997	0.0	[response]	55	verb	phrase	1	15	match	loin	5	1	y	0.48117
509.24729999999994	0.0	+	56	verb	list	1	1	match	rouler	5	1	y	0.45877000000000007
509.79709999999994	0.2	ncjfrms	56	verb	list	1	2	match	rouler	5	1	y	0.45877000000000007
509.997	0.0	+	56	verb	list	1	3	match	rouler	5	1	y	0.45877000000000007
510.39730000000003	0.2	scgn	56	verb	list	1	4	match	rouler	5	1	y	0.45877000000000007
510.59700000000004	0.0	+	56	verb	list	1	5	match	rouler	5	1	y	0.45877000000000007
510.99729999999994	0.2	xl	56	verb	list	1	6	match	rouler	5	1	y	0.45877000000000007
511.19699999999995	0.0	+	56	verb	list	1	7	match	rouler	5	1	y	0.45877000000000007
511.5967	0.2	xlgbd	56	verb	list	1	8	match	rouler	5	1	y	0.45877000000000007
511.79619999999994	0.0	+	56	verb	list	1	9	match	rouler	5	1	y	0.45877000000000007
512.1959999999999	0.2	rouler	56	verb	list	1	10	match	rouler	5	1	y	0.45877000000000007
512.3959	0.0	+	56	verb	list	1	11	match	rouler	5	1	y	0.45877000000000007
512.7958000000001	0.0	+	56	verb	list	1	12	match	rouler	5	1	y	0.45877000000000007
514.7950000000001	0.0	ROULER	56	verb	list	1	13	match	rouler	5	1	y	0.45877000000000007
515.3113000000001	0.0	+	56	verb	list	1	14	match	rouler	5	1	y	0.45877000000000007
515.2538	0.0	[response]	56	verb	list	1	15	match	rouler	5	1	y	0.45877000000000007
525.2406000000001	0.0	+	57	verb	list	2	1	nomatch	nager	-1	1	p	0.64245
525.7402	0.2	hzwmj	57	verb	list	2	2	nomatch	nager	-1	1	p	0.64245
525.9399000000001	0.0	+	57	verb	list	2	3	nomatch	nager	-1	1	p	0.64245
526.3398	0.2	gbvz	57	verb	list	2	4	nomatch	nager	-1	1	p	0.64245
526.5397	0.0	+	57	verb	list	2	5	nomatch	nager	-1	1	p	0.64245
526.9395	0.2	ltfh	57	verb	list	2	6	nomatch	nager	-1	1	p	0.64245
527.1394	0.0	+	57	verb	list	2	7	nomatch	nager	-1	1	p	0.64245
527.5391999999999	0.2	nouveau	57	verb	list	2	8	nomatch	nager	-1	1	p	0.64245
527.7391	0.0	+	57	verb	list	2	9	nomatch	nager	-1	1	p	0.64245
528.1389999999999	0.2	voyager	57	verb	list	2	10	nomatch	nager	-1	1	p	0.64245
528.3389	0.0	+	57	verb	list	2	11	nomatch	nager	-1	1	p	0.64245
528.7386999999999	0.0	+	57	verb	list	2	12	nomatch	nager	-1	1	p	0.64245
530.7384999999999	0.0	NAGER	57	verb	list	2	13	nomatch	nager	-1	1	p	0.64245
531.4375	0.0	+	57	verb	list	2	14	nomatch	nager	-1	1	p	0.64245
531.3809000000001	0.0	[response]	57	verb	list	2	15	nomatch	nager	-1	1	p	0.64245
549.1462999999999	0.0	+	58	verb	phrase	1	1	match	nager	5	1	y	0.68181
549.6960999999999	0.2	nhvswxf	58	verb	phrase	1	2	match	nager	5	1	y	0.68181
549.896	0.0	+	58	verb	phrase	1	3	match	nager	5	1	y	0.68181
550.2958000000001	0.2	tqdg	58	verb	phrase	1	4	match	nager	5	1	y	0.68181
550.4956999999999	0.0	+	58	verb	phrase	1	5	match	nager	5	1	y	0.68181
550.8956000000001	0.2	xl	58	verb	phrase	1	6	match	nager	5	1	y	0.68181
551.0954999999999	0.0	+	58	verb	phrase	1	7	match	nager	5	1	y	0.68181
551.4958999999999	0.2	sjwq	58	verb	phrase	1	8	match	nager	5	1	y	0.68181
551.6954000000001	0.0	+	58	verb	phrase	1	9	match	nager	5	1	y	0.68181
552.0952	0.2	nager	58	verb	phrase	1	10	match	nager	5	1	y	0.68181
552.2956999999999	0.0	+	58	verb	phrase	1	11	match	nager	5	1	y	0.68181
552.6948	0.0	+	58	verb	phrase	1	12	match	nager	5	1	y	0.68181
554.711	0.0	NAGER	58	verb	phrase	1	13	match	nager	5	1	y	0.68181
555.5441000000001	0.0	+	58	verb	phrase	1	14	match	nager	5	1	y	0.68181
555.3928000000001	0.0	[response]	58	verb	phrase	1	15	match	nager	5	1	y	0.68181
557.0927999999999	0.0	+	59	verb	list	2	1	nomatch	blanc	-1	1	p	0.91764
557.6425999999999	0.2	mqd	59	verb	list	2	2	nomatch	blanc	-1	1	p	0.91764
557.8425	0.0	+	59	verb	list	2	3	nomatch	blanc	-1	1	p	0.91764
558.2422999999999	0.2	sndq	59	verb	list	2	4	nomatch	blanc	-1	1	p	0.91764
558.4426000000001	0.0	+	59	verb	list	2	5	nomatch	blanc	-1	1	p	0.91764
558.8424	0.2	jtp	59	verb	list	2	6	nomatch	blanc	-1	1	p	0.91764
559.0425	0.0	+	59	verb	list	2	7	nomatch	blanc	-1	1	p	0.91764
559.4421	0.2	rouler	59	verb	list	2	8	nomatch	blanc	-1	1	p	0.91764
559.6416999999999	0.0	+	59	verb	list	2	9	nomatch	blanc	-1	1	p	0.91764
560.0415	0.2	bleu	59	verb	list	2	10	nomatch	blanc	-1	1	p	0.91764
560.2413999999999	0.0	+	59	verb	list	2	11	nomatch	blanc	-1	1	p	0.91764
560.6412	0.0	+	59	verb	list	2	12	nomatch	blanc	-1	1	p	0.91764
562.6407999999999	0.0	BLANC	59	verb	list	2	13	nomatch	blanc	-1	1	p	0.91764
563.6233	0.0	+	59	verb	list	2	14	nomatch	blanc	-1	1	p	0.91764
563.5584000000001	0.0	[response]	59	verb	list	2	15	nomatch	blanc	-1	1	p	0.91764
565.0392999999999	0.0	+	60	verb	phrase	1	1	match	nager	5	1	y	0.52254
565.5897	0.2	xlrcf	60	verb	phrase	1	2	match	nager	5	1	y	0.52254
565.7893999999999	0.0	+	60	verb	phrase	1	3	match	nager	5	1	y	0.52254
566.1889000000001	0.2	fnth	60	verb	phrase	1	4	match	nager	5	1	y	0.52254
566.3892000000001	0.0	+	60	verb	phrase	1	5	match	nager	5	1	y	0.52254
566.7884999999999	0.2	hdmf	60	verb	phrase	1	6	match	nager	5	1	y	0.52254
566.9884	0.0	+	60	verb	phrase	1	7	match	nager	5	1	y	0.52254
567.3883000000001	0.2	jqlv	60	verb	phrase	1	8	match	nager	5	1	y	0.52254
567.5881999999999	0.0	+	60	verb	phrase	1	9	match	nager	5	1	y	0.52254
567.988	0.2	nager	60	verb	phrase	1	10	match	nager	5	1	y	0.52254
568.1878999999999	0.0	+	60	verb	phrase	1	11	match	nager	5	1	y	0.52254
568.5877	0.0	+	60	verb	phrase	1	12	match	nager	5	1	y	0.52254
570.5868	0.0	NAGER	60	verb	phrase	1	13	match	nager	5	1	y	0.52254
571.1699000000001	0.0	+	60	verb	phrase	1	14	match	nager	5	1	y	0.52254
571.1094	0.0	[response]	60	verb	phrase	1	15	match	nager	5	1	y	0.52254
572.9857999999999	0.0	+	61	verb	list	1	1	nomatch	doit	-1	1	p	0.79626
573.5355	0.2	zxl	61	verb	list	1	2	nomatch	doit	-1	1	p	0.79626
573.7355	0.0	+	61	verb	list	1	3	nomatch	doit	-1	1	p	0.79626
574.1352999999999	0.2	sndq	61	verb	list	1	4	nomatch	doit	-1	1	p	0.79626
574.3352	0.0	+	61	verb	list	1	5	nomatch	doit	-1	1	p	0.79626
574.7351000000001	0.2	fpzv	61	verb	list	1	6	nomatch	doit	-1	1	p	0.79626
574.9356	0.0	+	61	verb	list	1	7	nomatch	doit	-1	1	p	0.79626
575.3351	0.2	glbkt	61	verb	list	1	8	nomatch	doit	-1	1	p	0.79626
575.5346999999999	0.0	+	61	verb	list	1	9	nomatch	doit	-1	1	p	0.79626
575.9349	0.2	jongler	61	verb	list	1	10	nomatch	doit	-1	1	p	0.79626
576.1343999999999	0.0	+	61	verb	list	1	11	nomatch	doit	-1	1	p	0.79626
576.5342	0.0	+	61	verb	list	1	12	nomatch	doit	-1	1	p	0.79626
578.55	0.0	DOIT	61	verb	list	1	13	nomatch	doit	-1	1	p	0.79626
579.4331	0.0	+	61	verb	list	1	14	nomatch	doit	-1	1	p	0.79626
579.3462	0.0	[response]	61	verb	list	1	15	nomatch	doit	-1	1	p	0.79626
580.9489000000001	0.0	+	62	verb	phrase	3	1	nomatch	vite	-1	1	p	4.0537
581.4987000000001	0.2	whkl	62	verb	phrase	3	2	nomatch	vite	-1	1	p	4.0537
581.6985999999999	0.0	+	62	verb	phrase	3	3	nomatch	vite	-1	1	p	4.0537
582.0984000000001	0.2	fnth	62	verb	phrase	3	4	nomatch	vite	-1	1	p	4.0537
582.2982999999999	0.0	+	62	verb	phrase	3	5	nomatch	vite	-1	1	p	4.0537
582.6981000000001	0.2	doit	62	verb	phrase	3	6	nomatch	vite	-1	1	p	4.0537
582.8980999999999	0.0	+	62	verb	phrase	3	7	nomatch	vite	-1	1	p	4.0537
583.2979	0.2	plus	62	verb	phrase	3	8	nomatch	vite	-1	1	p	4.0537
583.4984999999999	0.0	+	62	verb	phrase	3	9	nomatch	vite	-1	1	p	4.0537
583.9147	0.2	parader	62	verb	phrase	3	10	nomatch	vite	-1	1	p	4.0537
584.0978	0.0	+	62	verb	phrase	3	11	nomatch	vite	-1	1	p	4.0537
584.498	0.0	+	62	verb	phrase	3	12	nomatch	vite	-1	1	p	4.0537
586.4965	0.0	VITE	62	verb	phrase	3	13	nomatch	vite	-1	1	p	4.0537
590.6113	0.0	+	62	verb	phrase	3	14	nomatch	vite	-1	1	p	4.0537
590.5500999999999	0.0	[response]	62	verb	phrase	3	15	nomatch	vite	-1	1	p	4.0537
604.8883000000001	0.0	+	63	verb	phrase	1	1	match	loin	5	1	y	0.46834
605.4381000000001	0.2	fxckjrz	63	verb	phrase	1	2	match	loin	5	1	y	0.46834
605.6379999999999	0.0	+	63	verb	phrase	1	3	match	loin	5	1	y	0.46834
606.0378000000001	0.2	nqwz	63	verb	phrase	1	4	match	loin	5	1	y	0.46834
606.2376999999999	0.0	+	63	verb	phrase	1	5	match	loin	5	1	y	0.46834
606.6375	0.2	ltfh	63	verb	phrase	1	6	match	loin	5	1	y	0.46834
606.8375000000001	0.0	+	63	verb	phrase	1	7	match	loin	5	1	y	0.46834
607.2373	0.2	jsthprc	63	verb	phrase	1	8	match	loin	5	1	y	0.46834
607.4372000000001	0.0	+	63	verb	phrase	1	9	match	loin	5	1	y	0.46834
607.8375000000001	0.2	loin	63	verb	phrase	1	10	match	loin	5	1	y	0.46834
608.0373999999999	0.0	+	63	verb	phrase	1	11	match	loin	5	1	y	0.46834
608.4373	0.0	+	63	verb	phrase	1	12	match	loin	5	1	y	0.46834
610.4359	0.0	LOIN	63	verb	phrase	1	13	match	loin	5	1	y	0.46834
610.969	0.0	+	63	verb	phrase	1	14	match	loin	5	1	y	0.46834
610.9042	0.0	[response]	63	verb	phrase	1	15	match	loin	5	1	y	0.46834
612.8348000000001	0.0	+	64	verb	phrase	1	1	nomatch	sur	-1	1	p	0.6687200000000001
613.3844999999999	0.2	vlfxj	64	verb	phrase	1	2	nomatch	sur	-1	1	p	0.6687200000000001
613.5844999999999	0.0	+	64	verb	phrase	1	3	nomatch	sur	-1	1	p	0.6687200000000001
613.9843000000001	0.2	tqdg	64	verb	phrase	1	4	nomatch	sur	-1	1	p	0.6687200000000001
614.1841999999999	0.0	+	64	verb	phrase	1	5	nomatch	sur	-1	1	p	0.6687200000000001
614.5841	0.2	ltfh	64	verb	phrase	1	6	nomatch	sur	-1	1	p	0.6687200000000001
614.7838999999999	0.0	+	64	verb	phrase	1	7	nomatch	sur	-1	1	p	0.6687200000000001
615.1844000000001	0.2	kqlp	64	verb	phrase	1	8	nomatch	sur	-1	1	p	0.6687200000000001
615.3838000000001	0.0	+	64	verb	phrase	1	9	nomatch	sur	-1	1	p	0.6687200000000001
615.8006	0.2	parader	64	verb	phrase	1	10	nomatch	sur	-1	1	p	0.6687200000000001
616.0173	0.0	+	64	verb	phrase	1	11	nomatch	sur	-1	1	p	0.6687200000000001
616.4004	0.0	+	64	verb	phrase	1	12	nomatch	sur	-1	1	p	0.6687200000000001
618.3989999999999	0.0	SUR	64	verb	phrase	1	13	nomatch	sur	-1	1	p	0.6687200000000001
619.1659	0.0	+	64	verb	phrase	1	14	nomatch	sur	-1	1	p	0.6687200000000001
619.0677000000001	0.0	[response]	64	verb	phrase	1	15	nomatch	sur	-1	1	p	0.6687200000000001
620.7979	0.0	+	65	verb	list	3	1	nomatch	beau	-1	1	p	0.59211
621.3477	0.2	shqjbdk	65	verb	list	3	2	nomatch	beau	-1	1	p	0.59211
621.5476000000001	0.0	+	65	verb	list	3	3	nomatch	beau	-1	1	p	0.59211
621.9474	0.2	sndq	65	verb	list	3	4	nomatch	beau	-1	1	p	0.59211
622.1474000000001	0.0	+	65	verb	list	3	5	nomatch	beau	-1	1	p	0.59211
622.5473999999999	0.2	son	65	verb	list	3	6	nomatch	beau	-1	1	p	0.59211
622.7645	0.0	+	65	verb	list	3	7	nomatch	beau	-1	1	p	0.59211
623.1473000000001	0.2	rouler	65	verb	list	3	8	nomatch	beau	-1	1	p	0.59211
623.347	0.0	+	65	verb	list	3	9	nomatch	beau	-1	1	p	0.59211
623.7466	0.2	rouge	65	verb	list	3	10	nomatch	beau	-1	1	p	0.59211
623.9465	0.0	+	65	verb	list	3	11	nomatch	beau	-1	1	p	0.59211
624.3463999999999	0.0	+	65	verb	list	3	12	nomatch	beau	-1	1	p	0.59211
626.3454999999999	0.0	BEAU	65	verb	list	3	13	nomatch	beau	-1	1	p	0.59211
627.0459000000001	0.0	+	65	verb	list	3	14	nomatch	beau	-1	1	p	0.59211
626.9376	0.0	[response]	65	verb	list	3	15	nomatch	beau	-1	1	p	0.59211
628.7444	0.0	+	66	verb	phrase	1	1	match	beaucoup	5	1	y	0.47641000000000006
629.2949000000001	0.2	jvhqr	66	verb	phrase	1	2	match	beaucoup	5	1	y	0.47641000000000006
629.5114000000001	0.0	+	66	verb	phrase	1	3	match	beaucoup	5	1	y	0.47641000000000006
629.8941	0.2	fnth	66	verb	phrase	1	4	match	beaucoup	5	1	y	0.47641000000000006
630.094	0.0	+	66	verb	phrase	1	5	match	beaucoup	5	1	y	0.47641000000000006
630.4940999999999	0.2	hdmf	66	verb	phrase	1	6	match	beaucoup	5	1	y	0.47641000000000006
630.6936000000001	0.0	+	66	verb	phrase	1	7	match	beaucoup	5	1	y	0.47641000000000006
631.0934	0.2	tzqhfnx	66	verb	phrase	1	8	match	beaucoup	5	1	y	0.47641000000000006
631.2933	0.0	+	66	verb	phrase	1	9	match	beaucoup	5	1	y	0.47641000000000006
631.6931	0.2	beaucoup	66	verb	phrase	1	10	match	beaucoup	5	1	y	0.47641000000000006
631.893	0.0	+	66	verb	phrase	1	11	match	beaucoup	5	1	y	0.47641000000000006
632.2927999999999	0.0	+	66	verb	phrase	1	12	match	beaucoup	5	1	y	0.47641000000000006
634.2919999999999	0.0	BEAUCOUP	66	verb	phrase	1	13	match	beaucoup	5	1	y	0.47641000000000006
634.8251	0.0	+	66	verb	phrase	1	14	match	beaucoup	5	1	y	0.47641000000000006
634.7683999999999	0.0	[response]	66	verb	phrase	1	15	match	beaucoup	5	1	y	0.47641000000000006
636.6909	0.0	+	67	verb	phrase	4	1	match	parader	5	1	y	0.51297
637.2407000000001	0.2	hczwdkn	67	verb	phrase	4	2	match	parader	5	1	y	0.51297
637.4405999999999	0.0	+	67	verb	phrase	4	3	match	parader	5	1	y	0.51297
637.8404	0.2	jade	67	verb	phrase	4	4	match	parader	5	1	y	0.51297
638.0402999999999	0.0	+	67	verb	phrase	4	5	match	parader	5	1	y	0.51297
638.4572000000001	0.2	va	67	verb	phrase	4	6	match	parader	5	1	y	0.51297
638.6401000000001	0.0	+	67	verb	phrase	4	7	match	parader	5	1	y	0.51297
639.0401999999999	0.2	moins	67	verb	phrase	4	8	match	parader	5	1	y	0.51297
639.2401	0.0	+	67	verb	phrase	4	9	match	parader	5	1	y	0.51297
639.6396	0.2	parader	67	verb	phrase	4	10	match	parader	5	1	y	0.51297
639.8395	0.0	+	67	verb	phrase	4	11	match	parader	5	1	y	0.51297
640.2393	0.0	+	67	verb	phrase	4	12	match	parader	5	1	y	0.51297
642.2384999999999	0.0	PARADER	67	verb	phrase	4	13	match	parader	5	1	y	0.51297
642.8049000000001	0.0	+	67	verb	phrase	4	14	match	parader	5	1	y	0.51297
642.7514000000001	0.0	[response]	67	verb	phrase	4	15	match	parader	5	1	y	0.51297
644.6374000000001	0.0	+	68	verb	list	2	1	match	rouge	5	1	y	0.59947
645.1871000000001	0.2	dvhfp	68	verb	list	2	2	match	rouge	5	1	y	0.59947
645.3870999999999	0.0	+	68	verb	list	2	3	match	rouge	5	1	y	0.59947
645.7869000000001	0.2	nqwz	68	verb	list	2	4	match	rouge	5	1	y	0.59947
645.9867999999999	0.0	+	68	verb	list	2	5	match	rouge	5	1	y	0.59947
646.3866	0.2	jtp	68	verb	list	2	6	match	rouge	5	1	y	0.59947
646.5864999999999	0.0	+	68	verb	list	2	7	match	rouge	5	1	y	0.59947
646.9870000000001	0.2	plonger	68	verb	list	2	8	match	rouge	5	1	y	0.59947
647.1869999999999	0.0	+	68	verb	list	2	9	match	rouge	5	1	y	0.59947
647.5861	0.2	rouge	68	verb	list	2	10	match	rouge	5	1	y	0.59947
647.7860000000001	0.0	+	68	verb	list	2	11	match	rouge	5	1	y	0.59947
648.1858	0.0	+	68	verb	list	2	12	match	rouge	5	1	y	0.59947
650.1857	0.0	ROUGE	68	verb	list	2	13	match	rouge	5	1	y	0.59947
650.9353000000001	0.0	+	68	verb	list	2	14	match	rouge	5	1	y	0.59947
650.7851	0.0	[response]	68	verb	list	2	15	match	rouge	5	1	y	0.59947
652.5839000000001	0.0	+	69	verb	list	4	1	match	adam	2	1	y	0.76372
653.1339	0.2	xmkbw	69	verb	list	4	2	match	adam	2	1	y	0.76372
653.3336999999999	0.0	+	69	verb	list	4	3	match	adam	2	1	y	0.76372
653.75	0.2	adam	69	verb	list	4	4	match	adam	2	1	y	0.76372
653.9499000000001	0.0	+	69	verb	list	4	5	match	adam	2	1	y	0.76372
654.3498	0.2	leur	69	verb	list	4	6	match	adam	2	1	y	0.76372
654.5499	0.0	+	69	verb	list	4	7	match	adam	2	1	y	0.76372
654.9501	0.2	rouler	69	verb	list	4	8	match	adam	2	1	y	0.76372
655.1497999999999	0.0	+	69	verb	list	4	9	match	adam	2	1	y	0.76372
655.5491999999999	0.2	vert	69	verb	list	4	10	match	adam	2	1	y	0.76372
655.7492	0.0	+	69	verb	list	4	11	match	adam	2	1	y	0.76372
656.1489999999999	0.0	+	69	verb	list	4	12	match	adam	2	1	y	0.76372
658.1480999999999	0.0	ADAM	69	verb	list	4	13	match	adam	2	1	y	0.76372
658.9644000000001	0.0	+	69	verb	list	4	14	match	adam	2	1	y	0.76372
658.9118000000001	0.0	[response]	69	verb	list	4	15	match	adam	2	1	y	0.76372
660.547	0.0	+	70	verb	phrase	3	1	match	doit	3	1	y	0.49058000000000007
661.0968	0.2	bkjw	70	verb	phrase	3	2	match	doit	3	1	y	0.49058000000000007
661.2967000000001	0.0	+	70	verb	phrase	3	3	match	doit	3	1	y	0.49058000000000007
661.6965	0.2	sndq	70	verb	phrase	3	4	match	doit	3	1	y	0.49058000000000007
661.8964000000001	0.0	+	70	verb	phrase	3	5	match	doit	3	1	y	0.49058000000000007
662.2964	0.2	doit	70	verb	phrase	3	6	match	doit	3	1	y	0.49058000000000007
662.4967999999999	0.0	+	70	verb	phrase	3	7	match	doit	3	1	y	0.49058000000000007
662.8965000000001	0.2	plus	70	verb	phrase	3	8	match	doit	3	1	y	0.49058000000000007
663.096	0.0	+	70	verb	phrase	3	9	match	doit	3	1	y	0.49058000000000007
663.4963	0.2	nager	70	verb	phrase	3	10	match	doit	3	1	y	0.49058000000000007
663.6956	0.0	+	70	verb	phrase	3	11	match	doit	3	1	y	0.49058000000000007
664.0953999999999	0.0	+	70	verb	phrase	3	12	match	doit	3	1	y	0.49058000000000007
666.0952	0.0	DOIT	70	verb	phrase	3	13	match	doit	3	1	y	0.49058000000000007
666.6442999999999	0.0	+	70	verb	phrase	3	14	match	doit	3	1	y	0.49058000000000007
666.5858000000001	0.0	[response]	70	verb	phrase	3	15	match	doit	3	1	y	0.49058000000000007
668.4935	0.0	+	71	verb	list	2	1	nomatch	nouveau	-1	1	p	0.79523
669.0433	0.2	zncrwf	71	verb	list	2	2	nomatch	nouveau	-1	1	p	0.79523
669.2431999999999	0.0	+	71	verb	list	2	3	nomatch	nouveau	-1	1	p	0.79523
669.643	0.2	dztj	71	verb	list	2	4	nomatch	nouveau	-1	1	p	0.79523
669.8429000000001	0.0	+	71	verb	list	2	5	nomatch	nouveau	-1	1	p	0.79523
670.2430999999999	0.2	ltfh	71	verb	list	2	6	nomatch	nouveau	-1	1	p	0.79523
670.4429	0.0	+	71	verb	list	2	7	nomatch	nouveau	-1	1	p	0.79523
670.8425	0.2	beau	71	verb	list	2	8	nomatch	nouveau	-1	1	p	0.79523
671.0424	0.0	+	71	verb	list	2	9	nomatch	nouveau	-1	1	p	0.79523
671.4422	0.2	patiner	71	verb	list	2	10	nomatch	nouveau	-1	1	p	0.79523
671.6421	0.0	+	71	verb	list	2	11	nomatch	nouveau	-1	1	p	0.79523
672.0418999999999	0.0	+	71	verb	list	2	12	nomatch	nouveau	-1	1	p	0.79523
674.0409999999999	0.0	NOUVEAU	71	verb	list	2	13	nomatch	nouveau	-1	1	p	0.79523
674.8906999999999	0.0	+	71	verb	list	2	14	nomatch	nouveau	-1	1	p	0.79523
674.8362999999999	0.0	[response]	71	verb	list	2	15	nomatch	nouveau	-1	1	p	0.79523
676.44	0.0	+	72	verb	phrase	2	1	nomatch	luc	-1	1	p	0.9215400000000001
676.9897000000001	0.2	dks	72	verb	phrase	2	2	nomatch	luc	-1	1	p	0.9215400000000001
677.1895999999999	0.0	+	72	verb	phrase	2	3	nomatch	luc	-1	1	p	0.9215400000000001
677.5895	0.2	tgm	72	verb	phrase	2	4	nomatch	luc	-1	1	p	0.9215400000000001
677.7893999999999	0.0	+	72	verb	phrase	2	5	nomatch	luc	-1	1	p	0.9215400000000001
678.1892	0.2	ltfh	72	verb	phrase	2	6	nomatch	luc	-1	1	p	0.9215400000000001
678.3891000000001	0.0	+	72	verb	phrase	2	7	nomatch	luc	-1	1	p	0.9215400000000001
678.7889	0.2	plonger	72	verb	phrase	2	8	nomatch	luc	-1	1	p	0.9215400000000001
678.9889000000001	0.0	+	72	verb	phrase	2	9	nomatch	luc	-1	1	p	0.9215400000000001
679.3893	0.2	tôt	72	verb	phrase	2	10	nomatch	luc	-1	1	p	0.9215400000000001
679.5887	0.0	+	72	verb	phrase	2	11	nomatch	luc	-1	1	p	0.9215400000000001
679.9885999999999	0.0	+	72	verb	phrase	2	12	nomatch	luc	-1	1	p	0.9215400000000001
681.9875	0.0	LUC	72	verb	phrase	2	13	nomatch	luc	-1	1	p	0.9215400000000001
682.9703999999999	0.0	+	72	verb	phrase	2	14	nomatch	luc	-1	1	p	0.9215400000000001
682.9091000000001	0.0	[response]	72	verb	phrase	2	15	nomatch	luc	-1	1	p	0.9215400000000001
692.3996	0.0	+	73	verb	phrase	2	1	nomatch	plus	-1	1	p	0.5845200000000002
692.9493	0.2	bsnpfcq	73	verb	phrase	2	2	nomatch	plus	-1	1	p	0.5845200000000002
693.1492000000001	0.0	+	73	verb	phrase	2	3	nomatch	plus	-1	1	p	0.5845200000000002
693.5659	0.2	nqwz	73	verb	phrase	2	4	nomatch	plus	-1	1	p	0.5845200000000002
693.7497000000001	0.0	+	73	verb	phrase	2	5	nomatch	plus	-1	1	p	0.5845200000000002
694.1495	0.2	xl	73	verb	phrase	2	6	nomatch	plus	-1	1	p	0.5845200000000002
694.3494000000001	0.0	+	73	verb	phrase	2	7	nomatch	plus	-1	1	p	0.5845200000000002
694.7484999999999	0.2	nager	73	verb	phrase	2	8	nomatch	plus	-1	1	p	0.5845200000000002
694.9485	0.0	+	73	verb	phrase	2	9	nomatch	plus	-1	1	p	0.5845200000000002
695.3482999999999	0.2	ainsi	73	verb	phrase	2	10	nomatch	plus	-1	1	p	0.5845200000000002
695.5482	0.0	+	73	verb	phrase	2	11	nomatch	plus	-1	1	p	0.5845200000000002
695.9480000000001	0.0	+	73	verb	phrase	2	12	nomatch	plus	-1	1	p	0.5845200000000002
697.9476	0.0	PLUS	73	verb	phrase	2	13	nomatch	plus	-1	1	p	0.5845200000000002
698.5968	0.0	+	73	verb	phrase	2	14	nomatch	plus	-1	1	p	0.5845200000000002
698.5320999999999	0.0	[response]	73	verb	phrase	2	15	nomatch	plus	-1	1	p	0.5845200000000002
700.3797999999999	0.0	+	74	verb	phrase	1	1	nomatch	voyager	-1	1	p	1.1209
700.8960999999999	0.2	nxszqfg	74	verb	phrase	1	2	nomatch	voyager	-1	1	p	1.1209
701.0958	0.0	+	74	verb	phrase	1	3	nomatch	voyager	-1	1	p	1.1209
701.4961000000001	0.2	tgm	74	verb	phrase	1	4	nomatch	voyager	-1	1	p	1.1209
701.6955	0.0	+	74	verb	phrase	1	5	nomatch	voyager	-1	1	p	1.1209
702.0953	0.2	ltfh	74	verb	phrase	1	6	nomatch	voyager	-1	1	p	1.1209
702.2952	0.0	+	74	verb	phrase	1	7	nomatch	voyager	-1	1	p	1.1209
702.6949999999999	0.2	kqlp	74	verb	phrase	1	8	nomatch	voyager	-1	1	p	1.1209
702.8949	0.0	+	74	verb	phrase	1	9	nomatch	voyager	-1	1	p	1.1209
703.2947999999999	0.2	jongler	74	verb	phrase	1	10	nomatch	voyager	-1	1	p	1.1209
703.4947	0.0	+	74	verb	phrase	1	11	nomatch	voyager	-1	1	p	1.1209
703.8947000000001	0.0	+	74	verb	phrase	1	12	nomatch	voyager	-1	1	p	1.1209
705.8936000000001	0.0	VOYAGER	74	verb	phrase	1	13	nomatch	voyager	-1	1	p	1.1209
707.0763999999999	0.0	+	74	verb	phrase	1	14	nomatch	voyager	-1	1	p	1.1209
707.0145	0.0	[response]	74	verb	phrase	1	15	nomatch	voyager	-1	1	p	1.1209
708.2925	0.0	+	75	verb	phrase	3	1	nomatch	pour	-1	1	p	1.7242000000000002
708.8423	0.2	vwxdk	75	verb	phrase	3	2	nomatch	pour	-1	1	p	1.7242000000000002
709.0422000000001	0.0	+	75	verb	phrase	3	3	nomatch	pour	-1	1	p	1.7242000000000002
709.442	0.2	nqwz	75	verb	phrase	3	4	nomatch	pour	-1	1	p	1.7242000000000002
709.6419000000001	0.0	+	75	verb	phrase	3	5	nomatch	pour	-1	1	p	1.7242000000000002
710.0418	0.2	va	75	verb	phrase	3	6	nomatch	pour	-1	1	p	1.7242000000000002
710.2417	0.0	+	75	verb	phrase	3	7	nomatch	pour	-1	1	p	1.7242000000000002
710.6415	0.2	nager	75	verb	phrase	3	8	nomatch	pour	-1	1	p	1.7242000000000002
710.8418999999999	0.0	+	75	verb	phrase	3	9	nomatch	pour	-1	1	p	1.7242000000000002
711.2416000000001	0.2	tôt	75	verb	phrase	3	10	nomatch	pour	-1	1	p	1.7242000000000002
711.4415999999999	0.0	+	75	verb	phrase	3	11	nomatch	pour	-1	1	p	1.7242000000000002
711.8409999999999	0.0	+	75	verb	phrase	3	12	nomatch	pour	-1	1	p	1.7242000000000002
713.8404	0.0	POUR	75	verb	phrase	3	13	nomatch	pour	-1	1	p	1.7242000000000002
715.6225999999999	0.0	+	75	verb	phrase	3	14	nomatch	pour	-1	1	p	1.7242000000000002
715.5645999999999	0.0	[response]	75	verb	phrase	3	15	nomatch	pour	-1	1	p	1.7242000000000002
724.2525	0.0	+	76	verb	list	4	1	nomatch	jade	-1	0	TIMEOUT	-1.0
724.7854	0.2	btrnlx	76	verb	list	4	2	nomatch	jade	-1	0	TIMEOUT	-1.0
724.9851000000001	0.0	+	76	verb	list	4	3	nomatch	jade	-1	0	TIMEOUT	-1.0
725.385	0.2	vers	76	verb	list	4	4	nomatch	jade	-1	0	TIMEOUT	-1.0
725.5849000000001	0.0	+	76	verb	list	4	5	nomatch	jade	-1	0	TIMEOUT	-1.0
725.9847	0.2	doit	76	verb	list	4	6	nomatch	jade	-1	0	TIMEOUT	-1.0
726.1846	0.0	+	76	verb	list	4	7	nomatch	jade	-1	0	TIMEOUT	-1.0
726.5844	0.2	nouveau	76	verb	list	4	8	nomatch	jade	-1	0	TIMEOUT	-1.0
726.7843	0.0	+	76	verb	list	4	9	nomatch	jade	-1	0	TIMEOUT	-1.0
727.1841999999999	0.2	plonger	76	verb	list	4	10	nomatch	jade	-1	0	TIMEOUT	-1.0
727.3841	0.0	+	76	verb	list	4	11	nomatch	jade	-1	0	TIMEOUT	-1.0
727.7838999999999	0.0	+	76	verb	list	4	12	nomatch	jade	-1	0	TIMEOUT	-1.0
729.7997	0.0	JADE	76	verb	list	4	13	nomatch	jade	-1	0	TIMEOUT	-1.0
732.1985999999999	0.0	+	77	verb	list	4	1	match	paul	2	0	p	0.70416
732.7983999999999	0.2	qbzjc	77	verb	list	4	2	match	paul	2	0	p	0.70416
732.9983	0.0	+	77	verb	list	4	3	match	paul	2	0	p	0.70416
733.3980999999999	0.2	paul	77	verb	list	4	4	match	paul	2	0	p	0.70416
733.598	0.0	+	77	verb	list	4	5	match	paul	2	0	p	0.70416
733.9978000000001	0.2	mon	77	verb	list	4	6	match	paul	2	0	p	0.70416
734.1976999999999	0.0	+	77	verb	list	4	7	match	paul	2	0	p	0.70416
734.5976	0.2	plonger	77	verb	list	4	8	match	paul	2	0	p	0.70416
734.7974999999999	0.0	+	77	verb	list	4	9	match	paul	2	0	p	0.70416
735.1973	0.2	rouge	77	verb	list	4	10	match	paul	2	0	p	0.70416
735.3971999999999	0.0	+	77	verb	list	4	11	match	paul	2	0	p	0.70416
735.797	0.0	+	77	verb	list	4	12	match	paul	2	0	p	0.70416
737.7961	0.0	PAUL	77	verb	list	4	13	match	paul	2	0	p	0.70416
738.5625	0.0	+	77	verb	list	4	14	match	paul	2	0	p	0.70416
738.5002999999999	0.0	[response]	77	verb	list	4	15	match	paul	2	0	p	0.70416
740.1950999999999	0.0	+	78	verb	phrase	4	1	match	va	3	1	y	0.67632
740.7447999999999	0.2	qfdrzwb	78	verb	phrase	4	2	match	va	3	1	y	0.67632
740.9447	0.0	+	78	verb	phrase	4	3	match	va	3	1	y	0.67632
741.3449	0.2	paul	78	verb	phrase	4	4	match	va	3	1	y	0.67632
741.5451	0.0	+	78	verb	phrase	4	5	match	va	3	1	y	0.67632
741.9442999999999	0.2	va	78	verb	phrase	4	6	match	va	3	1	y	0.67632
742.1442	0.0	+	78	verb	phrase	4	7	match	va	3	1	y	0.67632
742.5440000000001	0.2	trop	78	verb	phrase	4	8	match	va	3	1	y	0.67632
742.7439999999999	0.0	+	78	verb	phrase	4	9	match	va	3	1	y	0.67632
743.1438	0.2	danser	78	verb	phrase	4	10	match	va	3	1	y	0.67632
743.3436999999999	0.0	+	78	verb	phrase	4	11	match	va	3	1	y	0.67632
743.7435	0.0	+	78	verb	phrase	4	12	match	va	3	1	y	0.67632
745.7429999999999	0.0	VA	78	verb	phrase	4	13	match	va	3	1	y	0.67632
746.5427999999999	0.0	+	78	verb	phrase	4	14	match	va	3	1	y	0.67632
746.4194	0.0	[response]	78	verb	phrase	4	15	match	va	3	1	y	0.67632
748.1415999999999	0.0	+	79	verb	phrase	4	1	match	beaucoup	4	1	y	0.76311
748.6913	0.2	sbmjtck	79	verb	phrase	4	2	match	beaucoup	4	1	y	0.76311
748.8912	0.0	+	79	verb	phrase	4	3	match	beaucoup	4	1	y	0.76311
749.2914000000001	0.2	adam	79	verb	phrase	4	4	match	beaucoup	4	1	y	0.76311
749.491	0.0	+	79	verb	phrase	4	5	match	beaucoup	4	1	y	0.76311
749.8907999999999	0.2	peut	79	verb	phrase	4	6	match	beaucoup	4	1	y	0.76311
750.0907	0.0	+	79	verb	phrase	4	7	match	beaucoup	4	1	y	0.76311
750.4904999999999	0.2	beaucoup	79	verb	phrase	4	8	match	beaucoup	4	1	y	0.76311
750.6904	0.0	+	79	verb	phrase	4	9	match	beaucoup	4	1	y	0.76311
751.0903000000001	0.2	jongler	79	verb	phrase	4	10	match	beaucoup	4	1	y	0.76311
751.2901999999999	0.0	+	79	verb	phrase	4	11	match	beaucoup	4	1	y	0.76311
751.7067999999999	0.0	+	79	verb	phrase	4	12	match	beaucoup	4	1	y	0.76311
753.6891	0.0	BEAUCOUP	79	verb	phrase	4	13	match	beaucoup	4	1	y	0.76311
754.5054	0.0	+	79	verb	phrase	4	14	match	beaucoup	4	1	y	0.76311
754.4522	0.0	[response]	79	verb	phrase	4	15	match	beaucoup	4	1	y	0.76311
756.088	0.0	+	80	verb	list	4	1	match	beau	4	1	y	0.54593
756.6378	0.2	rwxqkv	80	verb	list	4	2	match	beau	4	1	y	0.54593
756.8377	0.0	+	80	verb	list	4	3	match	beau	4	1	y	0.54593
757.2375	0.2	dans	80	verb	list	4	4	match	beau	4	1	y	0.54593
757.4374	0.0	+	80	verb	list	4	5	match	beau	4	1	y	0.54593
757.8372999999999	0.2	va	80	verb	list	4	6	match	beau	4	1	y	0.54593
758.0373999999999	0.0	+	80	verb	list	4	7	match	beau	4	1	y	0.54593
758.4371000000001	0.2	beau	80	verb	list	4	8	match	beau	4	1	y	0.54593
758.6369	0.0	+	80	verb	list	4	9	match	beau	4	1	y	0.54593
759.0366999999999	0.2	parader	80	verb	list	4	10	match	beau	4	1	y	0.54593
759.2366	0.0	+	80	verb	list	4	11	match	beau	4	1	y	0.54593
759.6365000000001	0.0	+	80	verb	list	4	12	match	beau	4	1	y	0.54593
761.6528000000001	0.0	BEAU	80	verb	list	4	13	match	beau	4	1	y	0.54593
762.252	0.0	+	80	verb	list	4	14	match	beau	4	1	y	0.54593
764.0345	0.0	+	80	verb	list	4	15	match	beau	4	1	y	0.54593
765.0174	0.0	+	80	verb	list	4	16	match	beau	4	1	y	0.54593
765.1174000000001	0.0	+	80	verb	list	4	17	match	beau	4	1	y	0.54593
766.5168000000001	0.0	+	80	verb	list	4	18	match	beau	4	1	y	0.54593
766.6167	0.0	+	80	verb	list	4	19	match	beau	4	1	y	0.54593
768.0161	0.0	+	80	verb	list	4	20	match	beau	4	1	y	0.54593
768.116	0.0	+	80	verb	list	4	21	match	beau	4	1	y	0.54593
769.5154	0.0	+	80	verb	list	4	22	match	beau	4	1	y	0.54593
769.6153999999999	0.0	+	80	verb	list	4	23	match	beau	4	1	y	0.54593
771.0147999999999	0.0	+	80	verb	list	4	24	match	beau	4	1	y	0.54593
771.1147000000001	0.0	+	80	verb	list	4	25	match	beau	4	1	y	0.54593
772.5141000000001	0.0	+	80	verb	list	4	26	match	beau	4	1	y	0.54593
772.6141	0.0	+	80	verb	list	4	27	match	beau	4	1	y	0.54593
774.0134	0.0	+	80	verb	list	4	28	match	beau	4	1	y	0.54593
774.1134	0.0	+	80	verb	list	4	29	match	beau	4	1	y	0.54593
775.5128	0.0	+	80	verb	list	4	30	match	beau	4	1	y	0.54593
775.6126999999999	0.0	+	80	verb	list	4	31	match	beau	4	1	y	0.54593
777.0120999999999	0.0	+	80	verb	list	4	32	match	beau	4	1	y	0.54593
777.1121	0.0	+	80	verb	list	4	33	match	beau	4	1	y	0.54593
778.5114000000001	0.0	+	80	verb	list	4	34	match	beau	4	1	y	0.54593
778.6114	0.0	+	80	verb	list	4	35	match	beau	4	1	y	0.54593
782.3931	0.0	+	80	verb	list	4	36	match	beau	4	1	y	0.54593
762.1986999999999	0.0	[response]	80	verb	list	4	37	match	beau	4	1	y	0.54593
