onset	duration	stim	trial_number	trial_type	trial_structure	trial_length	sequential_position	probe_type	probe	probe_position	response_correct	response_key	response_time
0.06680000000000064	0.0	+	1	noun	phrase	3	1	nomatch	beaucoup	-1	1	p	0.55677
0.5499000000000009	0.2	mlxbkc	1	noun	phrase	3	2	nomatch	beaucoup	-1	1	p	0.55677
0.7498000000000005	0.0	+	1	noun	phrase	3	3	nomatch	beaucoup	-1	1	p	0.55677
1.1495999999999995	0.2	scgn	1	noun	phrase	3	4	nomatch	beaucoup	-1	1	p	0.55677
1.349499999999999	0.0	+	1	noun	phrase	3	5	nomatch	beaucoup	-1	1	p	0.55677
1.749299999999998	0.2	son	1	noun	phrase	3	6	nomatch	beaucoup	-1	1	p	0.55677
1.949300000000001	0.0	+	1	noun	phrase	3	7	nomatch	beaucoup	-1	1	p	0.55677
2.3491	0.2	voilier	1	noun	phrase	3	8	nomatch	beaucoup	-1	1	p	0.55677
2.5489999999999995	0.0	+	1	noun	phrase	3	9	nomatch	beaucoup	-1	1	p	0.55677
2.9487999999999985	0.2	blanc	1	noun	phrase	3	10	nomatch	beaucoup	-1	1	p	0.55677
3.148699999999998	0.0	+	1	noun	phrase	3	11	nomatch	beaucoup	-1	1	p	0.55677
3.5486000000000004	0.0	+	1	noun	phrase	3	12	nomatch	beaucoup	-1	1	p	0.55677
5.547699999999999	0.0	BEAUCOUP	1	noun	phrase	3	13	nomatch	beaucoup	-1	1	p	0.55677
6.164100000000005	0.0	+	1	noun	phrase	3	14	nomatch	beaucoup	-1	1	p	0.55677
6.104399999999998	0.0	[response]	1	noun	phrase	3	15	nomatch	beaucoup	-1	1	p	0.55677
7.946600000000004	0.0	+	2	noun	list	1	1	nomatch	beaucoup	-1	1	p	0.4235
8.496400000000001	0.2	zxl	2	noun	list	1	2	nomatch	beaucoup	-1	1	p	0.4235
8.6963	0.0	+	2	noun	list	1	3	nomatch	beaucoup	-1	1	p	0.4235
9.113399999999999	0.2	nqwz	2	noun	list	1	4	nomatch	beaucoup	-1	1	p	0.4235
9.296500000000002	0.0	+	2	noun	list	1	5	nomatch	beaucoup	-1	1	p	0.4235
9.695799999999998	0.2	jtp	2	noun	list	1	6	nomatch	beaucoup	-1	1	p	0.4235
9.895800000000001	0.0	+	2	noun	list	1	7	nomatch	beaucoup	-1	1	p	0.4235
10.2956	0.2	wgqslkf	2	noun	list	1	8	nomatch	beaucoup	-1	1	p	0.4235
10.495600000000003	0.0	+	2	noun	list	1	9	nomatch	beaucoup	-1	1	p	0.4235
10.895900000000005	0.2	trop	2	noun	list	1	10	nomatch	beaucoup	-1	1	p	0.4235
11.095800000000004	0.0	+	2	noun	list	1	11	nomatch	beaucoup	-1	1	p	0.4235
11.4953	0.0	+	2	noun	list	1	12	nomatch	beaucoup	-1	1	p	0.4235
13.4942	0.0	BEAUCOUP	2	noun	list	1	13	nomatch	beaucoup	-1	1	p	0.4235
13.977300000000007	0.0	+	2	noun	list	1	14	nomatch	beaucoup	-1	1	p	0.4235
13.917700000000004	0.0	[response]	2	noun	list	1	15	nomatch	beaucoup	-1	1	p	0.4235
15.893099999999997	0.0	+	3	noun	phrase	4	1	nomatch	sur	-1	1	p	0.47529
16.4428	0.2	xrqlpb	3	noun	phrase	4	2	nomatch	sur	-1	1	p	0.47529
16.6428	0.0	+	3	noun	phrase	4	3	nomatch	sur	-1	1	p	0.47529
17.0426	0.2	vers	3	noun	phrase	4	4	nomatch	sur	-1	1	p	0.47529
17.2425	0.0	+	3	noun	phrase	4	5	nomatch	sur	-1	1	p	0.47529
17.6423	0.2	leur	3	noun	phrase	4	6	nomatch	sur	-1	1	p	0.47529
17.8422	0.0	+	3	noun	phrase	4	7	nomatch	sur	-1	1	p	0.47529
18.2421	0.2	nouveau	3	noun	phrase	4	8	nomatch	sur	-1	1	p	0.47529
18.442699999999995	0.0	+	3	noun	phrase	4	9	nomatch	sur	-1	1	p	0.47529
18.8589	0.2	cendrier	3	noun	phrase	4	10	nomatch	sur	-1	1	p	0.47529
19.041900000000005	0.0	+	3	noun	phrase	4	11	nomatch	sur	-1	1	p	0.47529
19.441499999999998	0.0	+	3	noun	phrase	4	12	nomatch	sur	-1	1	p	0.47529
21.440599999999996	0.0	SUR	3	noun	phrase	4	13	nomatch	sur	-1	1	p	0.47529
22.0238	0.0	+	3	noun	phrase	4	14	nomatch	sur	-1	1	p	0.47529
21.9159	0.0	[response]	3	noun	phrase	4	15	nomatch	sur	-1	1	p	0.47529
23.839599999999997	0.0	+	4	noun	list	4	1	match	vers	2	1	y	0.67165
24.3893	0.2	svw	4	noun	list	4	2	match	vers	2	1	y	0.67165
24.589199999999998	0.0	+	4	noun	list	4	3	match	vers	2	1	y	0.67165
24.989799999999995	0.2	vers	4	noun	list	4	4	match	vers	2	1	y	0.67165
25.206200000000003	0.0	+	4	noun	list	4	5	match	vers	2	1	y	0.67165
25.5893	0.2	va	4	noun	list	4	6	match	vers	2	1	y	0.67165
25.788800000000002	0.0	+	4	noun	list	4	7	match	vers	2	1	y	0.67165
26.205800000000004	0.2	boîtier	4	noun	list	4	8	match	vers	2	1	y	0.67165
26.388399999999997	0.0	+	4	noun	list	4	9	match	vers	2	1	y	0.67165
26.7883	0.2	tôt	4	noun	list	4	10	match	vers	2	1	y	0.67165
26.9887	0.0	+	4	noun	list	4	11	match	vers	2	1	y	0.67165
27.387999999999998	0.0	+	4	noun	list	4	12	match	vers	2	1	y	0.67165
29.387400000000007	0.0	VERS	4	noun	list	4	13	match	vers	2	1	y	0.67165
30.1201	0.0	+	4	noun	list	4	14	match	vers	2	1	y	0.67165
30.059100000000008	0.0	[response]	4	noun	list	4	15	match	vers	2	1	y	0.67165
31.78600000000001	0.0	+	5	noun	list	4	1	nomatch	tablier	-1	1	p	0.57963
32.3359	0.2	lngvr	5	noun	list	4	2	nomatch	tablier	-1	1	p	0.57963
32.53640000000001	0.0	+	5	noun	list	4	3	nomatch	tablier	-1	1	p	0.57963
32.9359	0.2	sans	5	noun	list	4	4	nomatch	tablier	-1	1	p	0.57963
33.13570000000001	0.0	+	5	noun	list	4	5	nomatch	tablier	-1	1	p	0.57963
33.5353	0.2	doit	5	noun	list	4	6	nomatch	tablier	-1	1	p	0.57963
33.7352	0.0	+	5	noun	list	4	7	nomatch	tablier	-1	1	p	0.57963
34.135	0.2	grenier	5	noun	list	4	8	nomatch	tablier	-1	1	p	0.57963
34.3349	0.0	+	5	noun	list	4	9	nomatch	tablier	-1	1	p	0.57963
34.7347	0.2	vite	5	noun	list	4	10	nomatch	tablier	-1	1	p	0.57963
34.934599999999996	0.0	+	5	noun	list	4	11	nomatch	tablier	-1	1	p	0.57963
35.3345	0.0	+	5	noun	list	4	12	nomatch	tablier	-1	1	p	0.57963
37.3503	0.0	TABLIER	5	noun	list	4	13	nomatch	tablier	-1	1	p	0.57963
37.98330000000001	0.0	+	5	noun	list	4	14	nomatch	tablier	-1	1	p	0.57963
37.929899999999996	0.0	[response]	5	noun	list	4	15	nomatch	tablier	-1	1	p	0.57963
39.749199999999995	0.0	+	6	noun	list	1	1	match	grenier	5	1	y	0.55178
40.299	0.2	psjfqrx	6	noun	list	1	2	match	grenier	5	1	y	0.55178
40.4989	0.0	+	6	noun	list	1	3	match	grenier	5	1	y	0.55178
40.8987	0.2	xqsw	6	noun	list	1	4	match	grenier	5	1	y	0.55178
41.09930000000001	0.0	+	6	noun	list	1	5	match	grenier	5	1	y	0.55178
41.498799999999996	0.2	hdmf	6	noun	list	1	6	match	grenier	5	1	y	0.55178
41.698600000000006	0.0	+	6	noun	list	1	7	match	grenier	5	1	y	0.55178
42.09890000000001	0.2	rzxj	6	noun	list	1	8	match	grenier	5	1	y	0.55178
42.29880000000001	0.0	+	6	noun	list	1	9	match	grenier	5	1	y	0.55178
42.6979	0.2	grenier	6	noun	list	1	10	match	grenier	5	1	y	0.55178
42.8978	0.0	+	6	noun	list	1	11	match	grenier	5	1	y	0.55178
43.297599999999996	0.0	+	6	noun	list	1	12	match	grenier	5	1	y	0.55178
45.29670000000001	0.0	GRENIER	6	noun	list	1	13	match	grenier	5	1	y	0.55178
45.91310000000001	0.0	+	6	noun	list	1	14	match	grenier	5	1	y	0.55178
45.84850000000001	0.0	[response]	6	noun	list	1	15	match	grenier	5	1	y	0.55178
47.695699999999995	0.0	+	7	noun	list	1	1	match	tôt	5	1	y	0.4876400000000001
48.2454	0.2	shqmc	7	noun	list	1	2	match	tôt	5	1	y	0.4876400000000001
48.445299999999996	0.0	+	7	noun	list	1	3	match	tôt	5	1	y	0.4876400000000001
48.8452	0.2	jwhm	7	noun	list	1	4	match	tôt	5	1	y	0.4876400000000001
49.0451	0.0	+	7	noun	list	1	5	match	tôt	5	1	y	0.4876400000000001
49.4449	0.2	xl	7	noun	list	1	6	match	tôt	5	1	y	0.4876400000000001
49.6448	0.0	+	7	noun	list	1	7	match	tôt	5	1	y	0.4876400000000001
50.044599999999996	0.2	jtwlzxs	7	noun	list	1	8	match	tôt	5	1	y	0.4876400000000001
50.244800000000005	0.0	+	7	noun	list	1	9	match	tôt	5	1	y	0.4876400000000001
50.645	0.2	tôt	7	noun	list	1	10	match	tôt	5	1	y	0.4876400000000001
50.844500000000004	0.0	+	7	noun	list	1	11	match	tôt	5	1	y	0.4876400000000001
51.2442	0.0	+	7	noun	list	1	12	match	tôt	5	1	y	0.4876400000000001
53.243199999999995	0.2	tôt	7	noun	list	1	13	match	tôt	5	1	y	0.4876400000000001
53.793	0.0	+	7	noun	list	1	14	match	tôt	5	1	y	0.4876400000000001
53.730799999999995	0.0	[response]	7	noun	list	1	15	match	tôt	5	1	y	0.4876400000000001
63.6724	0.0	+	8	noun	phrase	1	1	nomatch	moins	-1	1	p	0.52558
64.18889999999999	0.2	hkj	8	noun	phrase	1	2	nomatch	moins	-1	1	p	0.52558
64.38830000000002	0.0	+	8	noun	phrase	1	3	nomatch	moins	-1	1	p	0.52558
64.78810000000001	0.2	gbvz	8	noun	phrase	1	4	nomatch	moins	-1	1	p	0.52558
64.9881	0.0	+	8	noun	phrase	1	5	nomatch	moins	-1	1	p	0.52558
65.3879	0.2	jtp	8	noun	phrase	1	6	nomatch	moins	-1	1	p	0.52558
65.58779999999999	0.0	+	8	noun	phrase	1	7	nomatch	moins	-1	1	p	0.52558
65.98760000000001	0.2	wsrgpk	8	noun	phrase	1	8	nomatch	moins	-1	1	p	0.52558
66.1875	0.0	+	8	noun	phrase	1	9	nomatch	moins	-1	1	p	0.52558
66.5875	0.2	grand	8	noun	phrase	1	10	nomatch	moins	-1	1	p	0.52558
66.7877	0.0	+	8	noun	phrase	1	11	nomatch	moins	-1	1	p	0.52558
67.20420000000001	0.0	+	8	noun	phrase	1	12	nomatch	moins	-1	1	p	0.52558
69.18620000000001	0.0	MOINS	8	noun	phrase	1	13	nomatch	moins	-1	1	p	0.52558
69.76920000000001	0.0	+	8	noun	phrase	1	14	nomatch	moins	-1	1	p	0.52558
69.71170000000001	0.0	[response]	8	noun	phrase	1	15	nomatch	moins	-1	1	p	0.52558
71.58510000000001	0.0	+	9	noun	phrase	1	1	match	noir	5	1	y	0.4672
72.13489999999999	0.2	gwn	9	noun	phrase	1	2	match	noir	5	1	y	0.4672
72.3348	0.0	+	9	noun	phrase	1	3	match	noir	5	1	y	0.4672
72.7346	0.2	xwtz	9	noun	phrase	1	4	match	noir	5	1	y	0.4672
72.93450000000001	0.0	+	9	noun	phrase	1	5	match	noir	5	1	y	0.4672
73.33430000000001	0.2	fpzv	9	noun	phrase	1	6	match	noir	5	1	y	0.4672
73.5342	0.0	+	9	noun	phrase	1	7	match	noir	5	1	y	0.4672
73.9341	0.2	wgqslkf	9	noun	phrase	1	8	match	noir	5	1	y	0.4672
74.13400000000001	0.0	+	9	noun	phrase	1	9	match	noir	5	1	y	0.4672
74.5344	0.2	noir	9	noun	phrase	1	10	match	noir	5	1	y	0.4672
74.73429999999999	0.0	+	9	noun	phrase	1	11	match	noir	5	1	y	0.4672
75.13419999999999	0.0	+	9	noun	phrase	1	12	match	noir	5	1	y	0.4672
77.14939999999999	0.0	NOIR	9	noun	phrase	1	13	match	noir	5	1	y	0.4672
77.69909999999999	0.0	+	9	noun	phrase	1	14	match	noir	5	1	y	0.4672
77.6166	0.0	[response]	9	noun	phrase	1	15	match	noir	5	1	y	0.4672
95.5412	0.0	+	10	noun	list	3	1	match	mon	3	1	y	0.45473
96.0909	0.2	kxv	10	noun	list	3	2	match	mon	3	1	y	0.45473
96.29079999999999	0.0	+	10	noun	list	3	3	match	mon	3	1	y	0.45473
96.69059999999999	0.2	nqwz	10	noun	list	3	4	match	mon	3	1	y	0.45473
96.8906	0.0	+	10	noun	list	3	5	match	mon	3	1	y	0.45473
97.2904	0.2	mon	10	noun	list	3	6	match	mon	3	1	y	0.45473
97.4905	0.0	+	10	noun	list	3	7	match	mon	3	1	y	0.45473
97.8906	0.2	beaucoup	10	noun	list	3	8	match	mon	3	1	y	0.45473
98.0907	0.0	+	10	noun	list	3	9	match	mon	3	1	y	0.45473
98.4906	0.2	sablier	10	noun	list	3	10	match	mon	3	1	y	0.45473
98.69030000000001	0.0	+	10	noun	list	3	11	match	mon	3	1	y	0.45473
99.08959999999999	0.0	+	10	noun	list	3	12	match	mon	3	1	y	0.45473
101.08879999999999	0.0	MON	10	noun	list	3	13	match	mon	3	1	y	0.45473
101.6051	0.0	+	10	noun	list	3	14	match	mon	3	1	y	0.45473
101.5436	0.0	[response]	10	noun	list	3	15	match	mon	3	1	y	0.45473
111.48409999999998	0.0	+	11	noun	phrase	1	1	nomatch	beau	-1	1	p	0.7225500000000001
112.03389999999999	0.2	tcn	11	noun	phrase	1	2	nomatch	beau	-1	1	p	0.7225500000000001
112.23419999999999	0.0	+	11	noun	phrase	1	3	nomatch	beau	-1	1	p	0.7225500000000001
112.6337	0.2	xqsw	11	noun	phrase	1	4	nomatch	beau	-1	1	p	0.7225500000000001
112.8339	0.0	+	11	noun	phrase	1	5	nomatch	beau	-1	1	p	0.7225500000000001
113.25039999999998	0.2	bxp	11	noun	phrase	1	6	nomatch	beau	-1	1	p	0.7225500000000001
113.4505	0.0	+	11	noun	phrase	1	7	nomatch	beau	-1	1	p	0.7225500000000001
113.84969999999998	0.2	jnzbl	11	noun	phrase	1	8	nomatch	beau	-1	1	p	0.7225500000000001
114.0496	0.0	+	11	noun	phrase	1	9	nomatch	beau	-1	1	p	0.7225500000000001
114.4495	0.2	boîtier	11	noun	phrase	1	10	nomatch	beau	-1	1	p	0.7225500000000001
114.64939999999999	0.0	+	11	noun	phrase	1	11	nomatch	beau	-1	1	p	0.7225500000000001
115.04919999999998	0.0	+	11	noun	phrase	1	12	nomatch	beau	-1	1	p	0.7225500000000001
117.0488	0.0	BEAU	11	noun	phrase	1	13	nomatch	beau	-1	1	p	0.7225500000000001
117.88129999999998	0.0	+	11	noun	phrase	1	14	nomatch	beau	-1	1	p	0.7225500000000001
117.7713	0.0	[response]	11	noun	phrase	1	15	nomatch	beau	-1	1	p	0.7225500000000001
119.44719999999998	0.0	+	12	noun	phrase	2	1	nomatch	parader	-1	1	p	0.52422
119.99699999999999	0.2	wnt	12	noun	phrase	2	2	nomatch	parader	-1	1	p	0.52422
120.1969	0.0	+	12	noun	phrase	2	3	nomatch	parader	-1	1	p	0.52422
120.5967	0.2	jwhm	12	noun	phrase	2	4	nomatch	parader	-1	1	p	0.52422
120.7971	0.0	+	12	noun	phrase	2	5	nomatch	parader	-1	1	p	0.52422
121.2133	0.2	bxp	12	noun	phrase	2	6	nomatch	parader	-1	1	p	0.52422
121.3964	0.0	+	12	noun	phrase	2	7	nomatch	parader	-1	1	p	0.52422
121.7962	0.2	petit	12	noun	phrase	2	8	nomatch	parader	-1	1	p	0.52422
121.99609999999998	0.0	+	12	noun	phrase	2	9	nomatch	parader	-1	1	p	0.52422
122.39589999999998	0.2	sablier	12	noun	phrase	2	10	nomatch	parader	-1	1	p	0.52422
122.5958	0.0	+	12	noun	phrase	2	11	nomatch	parader	-1	1	p	0.52422
122.9957	0.0	+	12	noun	phrase	2	12	nomatch	parader	-1	1	p	0.52422
124.9948	0.0	PARADER	12	noun	phrase	2	13	nomatch	parader	-1	1	p	0.52422
125.5779	0.0	+	12	noun	phrase	2	14	nomatch	parader	-1	1	p	0.52422
125.519	0.0	[response]	12	noun	phrase	2	15	nomatch	parader	-1	1	p	0.52422
135.5074	0.0	+	13	noun	phrase	4	1	nomatch	yves	-1	1	p	0.63889
135.9572	0.2	tbqwp	13	noun	phrase	4	2	nomatch	yves	-1	1	p	0.63889
136.15699999999998	0.0	+	13	noun	phrase	4	3	nomatch	yves	-1	1	p	0.63889
136.53969999999998	0.2	pour	13	noun	phrase	4	4	nomatch	yves	-1	1	p	0.63889
136.7396	0.0	+	13	noun	phrase	4	5	nomatch	yves	-1	1	p	0.63889
137.1394	0.2	leur	13	noun	phrase	4	6	nomatch	yves	-1	1	p	0.63889
137.33929999999998	0.0	+	13	noun	phrase	4	7	nomatch	yves	-1	1	p	0.63889
137.73919999999998	0.2	nouveau	13	noun	phrase	4	8	nomatch	yves	-1	1	p	0.63889
137.9391	0.0	+	13	noun	phrase	4	9	nomatch	yves	-1	1	p	0.63889
138.3389	0.2	voilier	13	noun	phrase	4	10	nomatch	yves	-1	1	p	0.63889
138.53879999999998	0.0	+	13	noun	phrase	4	11	nomatch	yves	-1	1	p	0.63889
138.9386	0.0	+	13	noun	phrase	4	12	nomatch	yves	-1	1	p	0.63889
140.9382	0.0	YVES	13	noun	phrase	4	13	nomatch	yves	-1	1	p	0.63889
141.67069999999998	0.0	+	13	noun	phrase	4	14	nomatch	yves	-1	1	p	0.63889
141.5771	0.0	[response]	13	noun	phrase	4	15	nomatch	yves	-1	1	p	0.63889
143.3367	0.0	+	14	noun	list	1	1	nomatch	loin	-1	1	p	0.49706
143.88639999999998	0.2	pdkr	14	noun	list	1	2	nomatch	loin	-1	1	p	0.49706
144.0863	0.0	+	14	noun	list	1	3	nomatch	loin	-1	1	p	0.49706
144.4862	0.2	dztj	14	noun	list	1	4	nomatch	loin	-1	1	p	0.49706
144.68609999999998	0.0	+	14	noun	list	1	5	nomatch	loin	-1	1	p	0.49706
145.08589999999998	0.2	ltfh	14	noun	list	1	6	nomatch	loin	-1	1	p	0.49706
145.2864	0.0	+	14	noun	list	1	7	nomatch	loin	-1	1	p	0.49706
145.6859	0.2	mlvpckt	14	noun	list	1	8	nomatch	loin	-1	1	p	0.49706
145.88569999999999	0.0	+	14	noun	list	1	9	nomatch	loin	-1	1	p	0.49706
146.286	0.2	tard	14	noun	list	1	10	nomatch	loin	-1	1	p	0.49706
146.48579999999998	0.0	+	14	noun	list	1	11	nomatch	loin	-1	1	p	0.49706
146.8851	0.0	+	14	noun	list	1	12	nomatch	loin	-1	1	p	0.49706
148.8842	0.0	LOIN	14	noun	list	1	13	nomatch	loin	-1	1	p	0.49706
149.434	0.0	+	14	noun	list	1	14	nomatch	loin	-1	1	p	0.49706
149.38129999999998	0.0	[response]	14	noun	list	1	15	nomatch	loin	-1	1	p	0.49706
151.3004	0.0	+	15	noun	phrase	1	1	nomatch	sablier	-1	1	p	0.52537
151.84959999999998	0.2	rpjvl	15	noun	phrase	1	2	nomatch	sablier	-1	1	p	0.52537
152.0495	0.0	+	15	noun	phrase	1	3	nomatch	sablier	-1	1	p	0.52537
152.4493	0.2	scgn	15	noun	phrase	1	4	nomatch	sablier	-1	1	p	0.52537
152.6492	0.0	+	15	noun	phrase	1	5	nomatch	sablier	-1	1	p	0.52537
153.049	0.2	jtp	15	noun	phrase	1	6	nomatch	sablier	-1	1	p	0.52537
153.2489	0.0	+	15	noun	phrase	1	7	nomatch	sablier	-1	1	p	0.52537
153.6488	0.2	fxtd	15	noun	phrase	1	8	nomatch	sablier	-1	1	p	0.52537
153.8487	0.0	+	15	noun	phrase	1	9	nomatch	sablier	-1	1	p	0.52537
154.2485	0.2	rocher	15	noun	phrase	1	10	nomatch	sablier	-1	1	p	0.52537
154.4484	0.0	+	15	noun	phrase	1	11	nomatch	sablier	-1	1	p	0.52537
154.8482	0.0	+	15	noun	phrase	1	12	nomatch	sablier	-1	1	p	0.52537
156.8474	0.0	SABLIER	15	noun	phrase	1	13	nomatch	sablier	-1	1	p	0.52537
157.4304	0.0	+	15	noun	phrase	1	14	nomatch	sablier	-1	1	p	0.52537
157.37269999999998	0.0	[response]	15	noun	phrase	1	15	nomatch	sablier	-1	1	p	0.52537
167.2429	0.0	+	16	noun	list	3	1	nomatch	tôt	-1	1	p	0.60632
167.7925	0.2	tvrsq	16	noun	list	3	2	nomatch	tôt	-1	1	p	0.60632
167.9924	0.0	+	16	noun	list	3	3	nomatch	tôt	-1	1	p	0.60632
168.3922	0.2	nqwz	16	noun	list	3	4	nomatch	tôt	-1	1	p	0.60632
168.5922	0.0	+	16	noun	list	3	5	nomatch	tôt	-1	1	p	0.60632
168.992	0.2	leur	16	noun	list	3	6	nomatch	tôt	-1	1	p	0.60632
169.1919	0.0	+	16	noun	list	3	7	nomatch	tôt	-1	1	p	0.60632
169.5917	0.2	moins	16	noun	list	3	8	nomatch	tôt	-1	1	p	0.60632
169.7916	0.0	+	16	noun	list	3	9	nomatch	tôt	-1	1	p	0.60632
170.1914	0.2	cendrier	16	noun	list	3	10	nomatch	tôt	-1	1	p	0.60632
170.3914	0.0	+	16	noun	list	3	11	nomatch	tôt	-1	1	p	0.60632
170.7912	0.0	+	16	noun	list	3	12	nomatch	tôt	-1	1	p	0.60632
172.7903	0.2	tôt	16	noun	list	3	13	nomatch	tôt	-1	1	p	0.60632
173.45669999999998	0.0	+	16	noun	list	3	14	nomatch	tôt	-1	1	p	0.60632
173.3966	0.0	[response]	16	noun	list	3	15	nomatch	tôt	-1	1	p	0.60632
175.1892	0.0	+	17	noun	phrase	3	1	match	casier	5	1	y	0.45321
175.739	0.2	jxlvq	17	noun	phrase	3	2	match	casier	5	1	y	0.45321
175.9389	0.0	+	17	noun	phrase	3	3	match	casier	5	1	y	0.45321
176.3387	0.2	xqsw	17	noun	phrase	3	4	match	casier	5	1	y	0.45321
176.5386	0.0	+	17	noun	phrase	3	5	match	casier	5	1	y	0.45321
176.9385	0.2	son	17	noun	phrase	3	6	match	casier	5	1	y	0.45321
177.1384	0.0	+	17	noun	phrase	3	7	match	casier	5	1	y	0.45321
177.53879999999998	0.2	petit	17	noun	phrase	3	8	match	casier	5	1	y	0.45321
177.7387	0.0	+	17	noun	phrase	3	9	match	casier	5	1	y	0.45321
178.1549	0.2	casier	17	noun	phrase	3	10	match	casier	5	1	y	0.45321
178.3378	0.0	+	17	noun	phrase	3	11	match	casier	5	1	y	0.45321
178.7377	0.0	+	17	noun	phrase	3	12	match	casier	5	1	y	0.45321
180.7373	0.0	CASIER	17	noun	phrase	3	13	match	casier	5	1	y	0.45321
181.3039	0.0	+	17	noun	phrase	3	14	match	casier	5	1	y	0.45321
181.1905	0.0	[response]	17	noun	phrase	3	15	match	casier	5	1	y	0.45321
191.249	0.0	+	18	noun	phrase	4	1	nomatch	petit	-1	1	p	0.49709
191.6986	0.2	mqw	18	noun	phrase	4	2	nomatch	petit	-1	1	p	0.49709
191.89849999999998	0.0	+	18	noun	phrase	4	3	nomatch	petit	-1	1	p	0.49709
192.29829999999998	0.2	dans	18	noun	phrase	4	4	nomatch	petit	-1	1	p	0.49709
192.4982	0.0	+	18	noun	phrase	4	5	nomatch	petit	-1	1	p	0.49709
192.8981	0.2	mon	18	noun	phrase	4	6	nomatch	petit	-1	1	p	0.49709
193.09799999999998	0.0	+	18	noun	phrase	4	7	nomatch	petit	-1	1	p	0.49709
193.49779999999998	0.2	rocher	18	noun	phrase	4	8	nomatch	petit	-1	1	p	0.49709
193.6977	0.0	+	18	noun	phrase	4	9	nomatch	petit	-1	1	p	0.49709
194.0975	0.2	rouge	18	noun	phrase	4	10	nomatch	petit	-1	1	p	0.49709
194.29739999999998	0.0	+	18	noun	phrase	4	11	nomatch	petit	-1	1	p	0.49709
194.69729999999998	0.0	+	18	noun	phrase	4	12	nomatch	petit	-1	1	p	0.49709
196.69639999999998	0.0	PETIT	18	noun	phrase	4	13	nomatch	petit	-1	1	p	0.49709
197.24609999999998	0.0	+	18	noun	phrase	4	14	nomatch	petit	-1	1	p	0.49709
197.1935	0.0	[response]	18	noun	phrase	4	15	nomatch	petit	-1	1	p	0.49709
199.09529999999998	0.0	+	19	noun	list	2	1	nomatch	tablier	-1	1	p	0.63891
199.64509999999999	0.2	trwkz	19	noun	list	2	2	nomatch	tablier	-1	1	p	0.63891
199.845	0.0	+	19	noun	list	2	3	nomatch	tablier	-1	1	p	0.63891
200.2454	0.2	xgsj	19	noun	list	2	4	nomatch	tablier	-1	1	p	0.63891
200.4453	0.0	+	19	noun	list	2	5	nomatch	tablier	-1	1	p	0.63891
200.8448	0.2	fpzv	19	noun	list	2	6	nomatch	tablier	-1	1	p	0.63891
201.04479999999998	0.0	+	19	noun	list	2	7	nomatch	tablier	-1	1	p	0.63891
201.4443	0.2	plus	19	noun	list	2	8	nomatch	tablier	-1	1	p	0.63891
201.64419999999998	0.0	+	19	noun	list	2	9	nomatch	tablier	-1	1	p	0.63891
202.04399999999998	0.2	grenier	19	noun	list	2	10	nomatch	tablier	-1	1	p	0.63891
202.2439	0.0	+	19	noun	list	2	11	nomatch	tablier	-1	1	p	0.63891
202.6437	0.0	+	19	noun	list	2	12	nomatch	tablier	-1	1	p	0.63891
204.6429	0.0	TABLIER	19	noun	list	2	13	nomatch	tablier	-1	1	p	0.63891
205.3425	0.0	+	19	noun	list	2	14	nomatch	tablier	-1	1	p	0.63891
205.2818	0.0	[response]	19	noun	list	2	15	nomatch	tablier	-1	1	p	0.63891
207.0418	0.0	+	20	noun	list	4	1	nomatch	mon	-1	1	p	0.52063
207.5916	0.2	kdg	20	noun	list	4	2	nomatch	mon	-1	1	p	0.52063
207.7922	0.0	+	20	noun	list	4	3	nomatch	mon	-1	1	p	0.52063
208.1919	0.2	dans	20	noun	list	4	4	nomatch	mon	-1	1	p	0.52063
208.3917	0.0	+	20	noun	list	4	5	nomatch	mon	-1	1	p	0.52063
208.79099999999997	0.2	peut	20	noun	list	4	6	nomatch	mon	-1	1	p	0.52063
208.99089999999998	0.0	+	20	noun	list	4	7	nomatch	mon	-1	1	p	0.52063
209.39079999999998	0.2	rocher	20	noun	list	4	8	nomatch	mon	-1	1	p	0.52063
209.5907	0.0	+	20	noun	list	4	9	nomatch	mon	-1	1	p	0.52063
209.99049999999997	0.2	tard	20	noun	list	4	10	nomatch	mon	-1	1	p	0.52063
210.19039999999998	0.0	+	20	noun	list	4	11	nomatch	mon	-1	1	p	0.52063
210.5907	0.0	+	20	noun	list	4	12	nomatch	mon	-1	1	p	0.52063
212.5893	0.0	MON	20	noun	list	4	13	nomatch	mon	-1	1	p	0.52063
213.1724	0.0	+	20	noun	list	4	14	nomatch	mon	-1	1	p	0.52063
213.10999999999999	0.0	[response]	20	noun	list	4	15	nomatch	mon	-1	1	p	0.52063
214.9883	0.0	+	21	noun	phrase	4	1	match	dans	2	1	y	0.45822
215.53799999999998	0.2	snk	21	noun	phrase	4	2	match	dans	2	1	y	0.45822
215.73799999999997	0.0	+	21	noun	phrase	4	3	match	dans	2	1	y	0.45822
216.1378	0.2	dans	21	noun	phrase	4	4	match	dans	2	1	y	0.45822
216.33809999999997	0.0	+	21	noun	phrase	4	5	match	dans	2	1	y	0.45822
216.73799999999997	0.2	son	21	noun	phrase	4	6	match	dans	2	1	y	0.45822
216.9378	0.0	+	21	noun	phrase	4	7	match	dans	2	1	y	0.45822
217.3377	0.2	petit	21	noun	phrase	4	8	match	dans	2	1	y	0.45822
217.53779999999998	0.0	+	21	noun	phrase	4	9	match	dans	2	1	y	0.45822
217.93699999999998	0.2	boîtier	21	noun	phrase	4	10	match	dans	2	1	y	0.45822
218.1369	0.0	+	21	noun	phrase	4	11	match	dans	2	1	y	0.45822
218.53669999999997	0.0	+	21	noun	phrase	4	12	match	dans	2	1	y	0.45822
220.53579999999997	0.0	DANS	21	noun	phrase	4	13	match	dans	2	1	y	0.45822
221.05229999999997	0.0	+	21	noun	phrase	4	14	match	dans	2	1	y	0.45822
220.994	0.0	[response]	21	noun	phrase	4	15	match	dans	2	1	y	0.45822
230.94789999999998	0.0	+	22	noun	list	2	1	nomatch	voyager	-1	1	p	0.54819
231.49769999999998	0.2	xtbld	22	noun	list	2	2	nomatch	voyager	-1	1	p	0.54819
231.69769999999997	0.0	+	22	noun	list	2	3	nomatch	voyager	-1	1	p	0.54819
232.11459999999997	0.2	xwtz	22	noun	list	2	4	nomatch	voyager	-1	1	p	0.54819
232.29760000000002	0.0	+	22	noun	list	2	5	nomatch	voyager	-1	1	p	0.54819
232.6971	0.2	ltfh	22	noun	list	2	6	nomatch	voyager	-1	1	p	0.54819
232.89700000000002	0.0	+	22	noun	list	2	7	nomatch	voyager	-1	1	p	0.54819
233.2968	0.2	grenier	22	noun	list	2	8	nomatch	voyager	-1	1	p	0.54819
233.4967	0.0	+	22	noun	list	2	9	nomatch	voyager	-1	1	p	0.54819
233.8966	0.2	tôt	22	noun	list	2	10	nomatch	voyager	-1	1	p	0.54819
234.09650000000002	0.0	+	22	noun	list	2	11	nomatch	voyager	-1	1	p	0.54819
234.4969	0.0	+	22	noun	list	2	12	nomatch	voyager	-1	1	p	0.54819
236.4954	0.0	VOYAGER	22	noun	list	2	13	nomatch	voyager	-1	1	p	0.54819
237.0952	0.0	+	22	noun	list	2	14	nomatch	voyager	-1	1	p	0.54819
237.0436	0.0	[response]	22	noun	list	2	15	nomatch	voyager	-1	1	p	0.54819
238.8944	0.0	+	23	noun	phrase	3	1	nomatch	vite	-1	1	p	0.77816
239.44410000000002	0.2	jlxwrtb	23	noun	phrase	3	2	nomatch	vite	-1	1	p	0.77816
239.6448	0.0	+	23	noun	phrase	3	3	nomatch	vite	-1	1	p	0.77816
240.04389999999998	0.2	zfs	23	noun	phrase	3	4	nomatch	vite	-1	1	p	0.77816
240.2438	0.0	+	23	noun	phrase	3	5	nomatch	vite	-1	1	p	0.77816
240.66079999999997	0.2	son	23	noun	phrase	3	6	nomatch	vite	-1	1	p	0.77816
240.84380000000002	0.0	+	23	noun	phrase	3	7	nomatch	vite	-1	1	p	0.77816
241.24370000000002	0.2	grand	23	noun	phrase	3	8	nomatch	vite	-1	1	p	0.77816
241.46059999999997	0.0	+	23	noun	phrase	3	9	nomatch	vite	-1	1	p	0.77816
241.84310000000002	0.2	cendrier	23	noun	phrase	3	10	nomatch	vite	-1	1	p	0.77816
242.04299999999998	0.0	+	23	noun	phrase	3	11	nomatch	vite	-1	1	p	0.77816
242.4428	0.0	+	23	noun	phrase	3	12	nomatch	vite	-1	1	p	0.77816
244.4419	0.0	VITE	23	noun	phrase	3	13	nomatch	vite	-1	1	p	0.77816
245.3251	0.0	+	23	noun	phrase	3	14	nomatch	vite	-1	1	p	0.77816
245.22009999999997	0.0	[response]	23	noun	phrase	3	15	nomatch	vite	-1	1	p	0.77816
254.88750000000002	0.0	+	24	noun	phrase	3	1	nomatch	nager	-1	1	p	0.5613000000000001
255.4043	0.2	dwkt	24	noun	phrase	3	2	nomatch	nager	-1	1	p	0.5613000000000001
255.58700000000002	0.0	+	24	noun	phrase	3	3	nomatch	nager	-1	1	p	0.5613000000000001
255.9868	0.2	jwhm	24	noun	phrase	3	4	nomatch	nager	-1	1	p	0.5613000000000001
256.18670000000003	0.0	+	24	noun	phrase	3	5	nomatch	nager	-1	1	p	0.5613000000000001
256.5865	0.2	son	24	noun	phrase	3	6	nomatch	nager	-1	1	p	0.5613000000000001
256.7864	0.0	+	24	noun	phrase	3	7	nomatch	nager	-1	1	p	0.5613000000000001
257.1863	0.2	boîtier	24	noun	phrase	3	8	nomatch	nager	-1	1	p	0.5613000000000001
257.38620000000003	0.0	+	24	noun	phrase	3	9	nomatch	nager	-1	1	p	0.5613000000000001
257.786	0.2	vert	24	noun	phrase	3	10	nomatch	nager	-1	1	p	0.5613000000000001
257.9859	0.0	+	24	noun	phrase	3	11	nomatch	nager	-1	1	p	0.5613000000000001
258.38570000000004	0.0	+	24	noun	phrase	3	12	nomatch	nager	-1	1	p	0.5613000000000001
260.38550000000004	0.0	NAGER	24	noun	phrase	3	13	nomatch	nager	-1	1	p	0.5613000000000001
261.00120000000004	0.0	+	24	noun	phrase	3	14	nomatch	nager	-1	1	p	0.5613000000000001
260.9468	0.0	[response]	24	noun	phrase	3	15	nomatch	nager	-1	1	p	0.5613000000000001
262.78380000000004	0.0	+	25	verb	phrase	4	1	match	peut	3	1	y	0.76843
263.3338	0.2	rpwtd	25	verb	phrase	4	2	match	peut	3	1	y	0.76843
263.55010000000004	0.0	+	25	verb	phrase	4	3	match	peut	3	1	y	0.76843
263.9499	0.2	paul	25	verb	phrase	4	4	match	peut	3	1	y	0.76843
264.1503	0.0	+	25	verb	phrase	4	5	match	peut	3	1	y	0.76843
264.5502	0.2	peut	25	verb	phrase	4	6	match	peut	3	1	y	0.76843
264.74980000000005	0.0	+	25	verb	phrase	4	7	match	peut	3	1	y	0.76843
265.1494	0.2	rouler	25	verb	phrase	4	8	match	peut	3	1	y	0.76843
265.35	0.0	+	25	verb	phrase	4	9	match	peut	3	1	y	0.76843
265.7491	0.2	tard	25	verb	phrase	4	10	match	peut	3	1	y	0.76843
265.949	0.0	+	25	verb	phrase	4	11	match	peut	3	1	y	0.76843
266.3489	0.0	+	25	verb	phrase	4	12	match	peut	3	1	y	0.76843
268.348	0.0	PEUT	25	verb	phrase	4	13	match	peut	3	1	y	0.76843
269.18100000000004	0.0	+	25	verb	phrase	4	14	match	peut	3	1	y	0.76843
269.1164	0.0	[response]	25	verb	phrase	4	15	match	peut	3	1	y	0.76843
286.7398	0.0	+	26	noun	phrase	2	1	nomatch	jean	-1	1	p	0.66896
287.2903	0.2	wvcsdqg	26	noun	phrase	2	2	nomatch	jean	-1	1	p	0.66896
287.49010000000004	0.0	+	26	noun	phrase	2	3	nomatch	jean	-1	1	p	0.66896
287.8895	0.2	dztj	26	noun	phrase	2	4	nomatch	jean	-1	1	p	0.66896
288.0894	0.0	+	26	noun	phrase	2	5	nomatch	jean	-1	1	p	0.66896
288.4896	0.2	fpzv	26	noun	phrase	2	6	nomatch	jean	-1	1	p	0.66896
288.689	0.0	+	26	noun	phrase	2	7	nomatch	jean	-1	1	p	0.66896
289.08880000000005	0.2	beau	26	noun	phrase	2	8	nomatch	jean	-1	1	p	0.66896
289.2887	0.0	+	26	noun	phrase	2	9	nomatch	jean	-1	1	p	0.66896
289.68850000000003	0.2	boîtier	26	noun	phrase	2	10	nomatch	jean	-1	1	p	0.66896
289.88840000000005	0.0	+	26	noun	phrase	2	11	nomatch	jean	-1	1	p	0.66896
290.28830000000005	0.0	+	26	noun	phrase	2	12	nomatch	jean	-1	1	p	0.66896
292.288	0.0	JEAN	26	noun	phrase	2	13	nomatch	jean	-1	1	p	0.66896
293.0543	0.0	+	26	noun	phrase	2	14	nomatch	jean	-1	1	p	0.66896
292.95700000000005	0.0	[response]	26	noun	phrase	2	15	nomatch	jean	-1	1	p	0.66896
294.6866	0.0	+	27	noun	list	3	1	nomatch	loin	-1	1	p	0.61324
295.23650000000004	0.2	prqt	27	noun	list	3	2	nomatch	loin	-1	1	p	0.61324
295.43600000000004	0.0	+	27	noun	list	3	3	nomatch	loin	-1	1	p	0.61324
295.8358	0.2	scgn	27	noun	list	3	4	nomatch	loin	-1	1	p	0.61324
296.0357	0.0	+	27	noun	list	3	5	nomatch	loin	-1	1	p	0.61324
296.43550000000005	0.2	va	27	noun	list	3	6	nomatch	loin	-1	1	p	0.61324
296.63550000000004	0.0	+	27	noun	list	3	7	nomatch	loin	-1	1	p	0.61324
297.0353	0.2	rocher	27	noun	list	3	8	nomatch	loin	-1	1	p	0.61324
297.2352	0.0	+	27	noun	list	3	9	nomatch	loin	-1	1	p	0.61324
297.63500000000005	0.2	vite	27	noun	list	3	10	nomatch	loin	-1	1	p	0.61324
297.8349	0.0	+	27	noun	list	3	11	nomatch	loin	-1	1	p	0.61324
298.2348	0.0	+	27	noun	list	3	12	nomatch	loin	-1	1	p	0.61324
300.23420000000004	0.0	LOIN	27	noun	list	3	13	nomatch	loin	-1	1	p	0.61324
300.90020000000004	0.0	+	27	noun	list	3	14	nomatch	loin	-1	1	p	0.61324
300.84740000000005	0.0	[response]	27	noun	list	3	15	nomatch	loin	-1	1	p	0.61324
302.64950000000005	0.0	+	28	noun	phrase	2	1	nomatch	rocher	-1	1	p	0.93019
303.1992	0.2	vzh	28	noun	phrase	2	2	nomatch	rocher	-1	1	p	0.93019
303.39910000000003	0.0	+	28	noun	phrase	2	3	nomatch	rocher	-1	1	p	0.93019
303.79900000000004	0.2	xqsw	28	noun	phrase	2	4	nomatch	rocher	-1	1	p	0.93019
303.99890000000005	0.0	+	28	noun	phrase	2	5	nomatch	rocher	-1	1	p	0.93019
304.39910000000003	0.2	jtp	28	noun	phrase	2	6	nomatch	rocher	-1	1	p	0.93019
304.59900000000005	0.0	+	28	noun	phrase	2	7	nomatch	rocher	-1	1	p	0.93019
304.9986	0.2	boîtier	28	noun	phrase	2	8	nomatch	rocher	-1	1	p	0.93019
305.1985	0.0	+	28	noun	phrase	2	9	nomatch	rocher	-1	1	p	0.93019
305.5982	0.2	noir	28	noun	phrase	2	10	nomatch	rocher	-1	1	p	0.93019
305.79810000000003	0.0	+	28	noun	phrase	2	11	nomatch	rocher	-1	1	p	0.93019
306.1979	0.0	+	28	noun	phrase	2	12	nomatch	rocher	-1	1	p	0.93019
308.197	0.0	ROCHER	28	noun	phrase	2	13	nomatch	rocher	-1	1	p	0.93019
309.26390000000004	0.0	+	28	noun	phrase	2	14	nomatch	rocher	-1	1	p	0.93019
309.1272	0.0	[response]	28	noun	phrase	2	15	nomatch	rocher	-1	1	p	0.93019
310.59590000000003	0.0	+	29	noun	phrase	2	1	match	nouveau	4	1	y	0.53052
311.14570000000003	0.2	xkwcsdp	29	noun	phrase	2	2	match	nouveau	4	1	y	0.53052
311.34560000000005	0.0	+	29	noun	phrase	2	3	match	nouveau	4	1	y	0.53052
311.7454	0.2	zfs	29	noun	phrase	2	4	match	nouveau	4	1	y	0.53052
311.9454	0.0	+	29	noun	phrase	2	5	match	nouveau	4	1	y	0.53052
312.34520000000003	0.2	bxp	29	noun	phrase	2	6	match	nouveau	4	1	y	0.53052
312.54510000000005	0.0	+	29	noun	phrase	2	7	match	nouveau	4	1	y	0.53052
312.9449	0.2	nouveau	29	noun	phrase	2	8	match	nouveau	4	1	y	0.53052
313.14480000000003	0.0	+	29	noun	phrase	2	9	match	nouveau	4	1	y	0.53052
313.54490000000004	0.2	rocher	29	noun	phrase	2	10	match	nouveau	4	1	y	0.53052
313.74530000000004	0.0	+	29	noun	phrase	2	11	match	nouveau	4	1	y	0.53052
314.1617	0.0	+	29	noun	phrase	2	12	match	nouveau	4	1	y	0.53052
316.1435	0.0	NOUVEAU	29	noun	phrase	2	13	match	nouveau	4	1	y	0.53052
316.7266	0.0	+	29	noun	phrase	2	14	match	nouveau	4	1	y	0.53052
316.67400000000004	0.0	[response]	29	noun	phrase	2	15	match	nouveau	4	1	y	0.53052
318.54240000000004	0.0	+	30	verb	phrase	4	1	match	jean	2	1	y	1.3075
319.09220000000005	0.2	lnqmv	30	verb	phrase	4	2	match	jean	2	1	y	1.3075
319.2921	0.0	+	30	verb	phrase	4	3	match	jean	2	1	y	1.3075
319.69190000000003	0.2	jean	30	verb	phrase	4	4	match	jean	2	1	y	1.3075
319.89180000000005	0.0	+	30	verb	phrase	4	5	match	jean	2	1	y	1.3075
320.29170000000005	0.2	doit	30	verb	phrase	4	6	match	jean	2	1	y	1.3075
320.4916	0.0	+	30	verb	phrase	4	7	match	jean	2	1	y	1.3075
320.89140000000003	0.2	danser	30	verb	phrase	4	8	match	jean	2	1	y	1.3075
321.0915	0.0	+	30	verb	phrase	4	9	match	jean	2	1	y	1.3075
321.4918	0.2	vite	30	verb	phrase	4	10	match	jean	2	1	y	1.3075
321.69100000000003	0.0	+	30	verb	phrase	4	11	match	jean	2	1	y	1.3075
322.1082	0.0	+	30	verb	phrase	4	12	match	jean	2	1	y	1.3075
324.09000000000003	0.0	JEAN	30	verb	phrase	4	13	match	jean	2	1	y	1.3075
325.456	0.0	+	30	verb	phrase	4	14	match	jean	2	1	y	1.3075
325.39750000000004	0.0	[response]	30	verb	phrase	4	15	match	jean	2	1	y	1.3075
326.4889	0.0	+	31	verb	phrase	2	1	match	plonger	5	1	y	0.44708
327.0387	0.2	wfcxlr	31	verb	phrase	2	2	match	plonger	5	1	y	0.44708
327.2386	0.0	+	31	verb	phrase	2	3	match	plonger	5	1	y	0.44708
327.639	0.2	tgm	31	verb	phrase	2	4	match	plonger	5	1	y	0.44708
327.83880000000005	0.0	+	31	verb	phrase	2	5	match	plonger	5	1	y	0.44708
328.2386	0.2	ltfh	31	verb	phrase	2	6	match	plonger	5	1	y	0.44708
328.4384	0.0	+	31	verb	phrase	2	7	match	plonger	5	1	y	0.44708
328.83790000000005	0.2	plus	31	verb	phrase	2	8	match	plonger	5	1	y	0.44708
329.0378	0.0	+	31	verb	phrase	2	9	match	plonger	5	1	y	0.44708
329.43760000000003	0.2	plonger	31	verb	phrase	2	10	match	plonger	5	1	y	0.44708
329.63750000000005	0.0	+	31	verb	phrase	2	11	match	plonger	5	1	y	0.44708
330.0373	0.0	+	31	verb	phrase	2	12	match	plonger	5	1	y	0.44708
332.03650000000005	0.0	PLONGER	31	verb	phrase	2	13	match	plonger	5	1	y	0.44708
332.603	0.0	+	31	verb	phrase	2	14	match	plonger	5	1	y	0.44708
332.48350000000005	0.0	[response]	31	verb	phrase	2	15	match	plonger	5	1	y	0.44708
334.4354	0.0	+	32	noun	list	2	1	nomatch	blanc	-1	1	p	0.63284
334.98510000000005	0.2	jgbvqt	32	noun	list	2	2	nomatch	blanc	-1	1	p	0.63284
335.18510000000003	0.0	+	32	noun	list	2	3	nomatch	blanc	-1	1	p	0.63284
335.5849	0.2	zfs	32	noun	list	2	4	nomatch	blanc	-1	1	p	0.63284
335.7848	0.0	+	32	noun	list	2	5	nomatch	blanc	-1	1	p	0.63284
336.18460000000005	0.2	hdmf	32	noun	list	2	6	nomatch	blanc	-1	1	p	0.63284
336.3845	0.0	+	32	noun	list	2	7	nomatch	blanc	-1	1	p	0.63284
336.7844	0.2	cendrier	32	noun	list	2	8	nomatch	blanc	-1	1	p	0.63284
336.9843	0.0	+	32	noun	list	2	9	nomatch	blanc	-1	1	p	0.63284
337.3842	0.2	tard	32	noun	list	2	10	nomatch	blanc	-1	1	p	0.63284
337.584	0.0	+	32	noun	list	2	11	nomatch	blanc	-1	1	p	0.63284
337.9841	0.0	+	32	noun	list	2	12	nomatch	blanc	-1	1	p	0.63284
339.9999	0.0	BLANC	32	noun	list	2	13	nomatch	blanc	-1	1	p	0.63284
340.69930000000005	0.0	+	32	noun	list	2	14	nomatch	blanc	-1	1	p	0.63284
340.6327	0.0	[response]	32	noun	list	2	15	nomatch	blanc	-1	1	p	0.63284
342.3985	0.0	+	33	noun	phrase	1	1	nomatch	cendrier	-1	1	p	0.39999
342.9483	0.2	zrpxlj	33	noun	phrase	1	2	nomatch	cendrier	-1	1	p	0.39999
343.14820000000003	0.0	+	33	noun	phrase	1	3	nomatch	cendrier	-1	1	p	0.39999
343.548	0.2	zfs	33	noun	phrase	1	4	nomatch	cendrier	-1	1	p	0.39999
343.7479	0.0	+	33	noun	phrase	1	5	nomatch	cendrier	-1	1	p	0.39999
344.14840000000004	0.2	jtp	33	noun	phrase	1	6	nomatch	cendrier	-1	1	p	0.39999
344.365	0.0	+	33	noun	phrase	1	7	nomatch	cendrier	-1	1	p	0.39999
344.7477	0.2	pxsvhwg	33	noun	phrase	1	8	nomatch	cendrier	-1	1	p	0.39999
344.9474	0.0	+	33	noun	phrase	1	9	nomatch	cendrier	-1	1	p	0.39999
345.3645	0.2	sablier	33	noun	phrase	1	10	nomatch	cendrier	-1	1	p	0.39999
345.5471	0.0	+	33	noun	phrase	1	11	nomatch	cendrier	-1	1	p	0.39999
345.947	0.0	+	33	noun	phrase	1	12	nomatch	cendrier	-1	1	p	0.39999
347.9461	0.0	CENDRIER	33	noun	phrase	1	13	nomatch	cendrier	-1	1	p	0.39999
348.4125	0.0	+	33	noun	phrase	1	14	nomatch	cendrier	-1	1	p	0.39999
348.3461000000001	0.0	[response]	33	noun	phrase	1	15	nomatch	cendrier	-1	1	p	0.39999
350.345	0.0	+	34	noun	list	1	1	nomatch	boîtier	-1	1	p	0.57176
350.89480000000003	0.2	gdbjf	34	noun	list	1	2	nomatch	boîtier	-1	1	p	0.57176
351.09470000000005	0.0	+	34	noun	list	1	3	nomatch	boîtier	-1	1	p	0.57176
351.4945	0.2	xwtz	34	noun	list	1	4	nomatch	boîtier	-1	1	p	0.57176
351.69440000000003	0.0	+	34	noun	list	1	5	nomatch	boîtier	-1	1	p	0.57176
352.0946	0.2	ltfh	34	noun	list	1	6	nomatch	boîtier	-1	1	p	0.57176
352.2946	0.0	+	34	noun	list	1	7	nomatch	boîtier	-1	1	p	0.57176
352.69460000000004	0.2	rzxj	34	noun	list	1	8	nomatch	boîtier	-1	1	p	0.57176
352.89430000000004	0.0	+	34	noun	list	1	9	nomatch	boîtier	-1	1	p	0.57176
353.2937	0.2	sablier	34	noun	list	1	10	nomatch	boîtier	-1	1	p	0.57176
353.4936	0.0	+	34	noun	list	1	11	nomatch	boîtier	-1	1	p	0.57176
353.89340000000004	0.0	+	34	noun	list	1	12	nomatch	boîtier	-1	1	p	0.57176
355.89300000000003	0.2	boîtier	34	noun	list	1	13	nomatch	boîtier	-1	1	p	0.57176
356.5591	0.0	+	34	noun	list	1	14	nomatch	boîtier	-1	1	p	0.57176
356.46470000000005	0.0	[response]	34	noun	list	1	15	nomatch	boîtier	-1	1	p	0.57176
358.29150000000004	0.0	+	35	noun	list	1	1	match	moins	5	1	y	0.44121
358.84130000000005	0.2	rwsqbf	35	noun	list	1	2	match	moins	5	1	y	0.44121
359.0418	0.0	+	35	noun	list	1	3	match	moins	5	1	y	0.44121
359.44140000000004	0.2	tqdg	35	noun	list	1	4	match	moins	5	1	y	0.44121
359.64140000000003	0.0	+	35	noun	list	1	5	match	moins	5	1	y	0.44121
360.04080000000005	0.2	jtp	35	noun	list	1	6	match	moins	5	1	y	0.44121
360.2411	0.0	+	35	noun	list	1	7	match	moins	5	1	y	0.44121
360.64050000000003	0.2	kpsfhmbj	35	noun	list	1	8	match	moins	5	1	y	0.44121
360.84040000000005	0.0	+	35	noun	list	1	9	match	moins	5	1	y	0.44121
361.2402	0.2	moins	35	noun	list	1	10	match	moins	5	1	y	0.44121
361.44010000000003	0.0	+	35	noun	list	1	11	match	moins	5	1	y	0.44121
361.8399	0.0	+	35	noun	list	1	12	match	moins	5	1	y	0.44121
363.839	0.0	MOINS	35	noun	list	1	13	match	moins	5	1	y	0.44121
364.33880000000005	0.0	+	35	noun	list	1	14	match	moins	5	1	y	0.44121
364.2803	0.0	[response]	35	noun	list	1	15	match	moins	5	1	y	0.44121
374.23440000000005	0.0	+	36	verb	phrase	3	1	match	peut	3	1	y	0.5174
374.7846	0.2	sbn	36	verb	phrase	3	2	match	peut	3	1	y	0.5174
374.9841	0.0	+	36	verb	phrase	3	3	match	peut	3	1	y	0.5174
375.38390000000004	0.2	sndq	36	verb	phrase	3	4	match	peut	3	1	y	0.5174
375.5838	0.0	+	36	verb	phrase	3	5	match	peut	3	1	y	0.5174
375.9837	0.2	peut	36	verb	phrase	3	6	match	peut	3	1	y	0.5174
376.1836	0.0	+	36	verb	phrase	3	7	match	peut	3	1	y	0.5174
376.6001	0.2	beaucoup	36	verb	phrase	3	8	match	peut	3	1	y	0.5174
376.8	0.0	+	36	verb	phrase	3	9	match	peut	3	1	y	0.5174
377.21700000000004	0.2	plonger	36	verb	phrase	3	10	match	peut	3	1	y	0.5174
377.3997	0.0	+	36	verb	phrase	3	11	match	peut	3	1	y	0.5174
377.8	0.0	+	36	verb	phrase	3	12	match	peut	3	1	y	0.5174
379.7989	0.0	PEUT	36	verb	phrase	3	13	match	peut	3	1	y	0.5174
380.3817	0.0	+	36	verb	phrase	3	14	match	peut	3	1	y	0.5174
380.3163	0.0	[response]	36	verb	phrase	3	15	match	peut	3	1	y	0.5174
382.23150000000004	0.0	+	37	noun	phrase	1	1	nomatch	voilier	-1	1	p	0.51161
382.74760000000003	0.2	nqfh	37	noun	phrase	1	2	nomatch	voilier	-1	1	p	0.51161
382.94750000000005	0.0	+	37	noun	phrase	1	3	nomatch	voilier	-1	1	p	0.51161
383.34720000000004	0.2	dztj	37	noun	phrase	1	4	nomatch	voilier	-1	1	p	0.51161
383.547	0.0	+	37	noun	phrase	1	5	nomatch	voilier	-1	1	p	0.51161
383.9468	0.2	jtp	37	noun	phrase	1	6	nomatch	voilier	-1	1	p	0.51161
384.1467	0.0	+	37	noun	phrase	1	7	nomatch	voilier	-1	1	p	0.51161
384.54650000000004	0.2	pvns	37	noun	phrase	1	8	nomatch	voilier	-1	1	p	0.51161
384.7465	0.0	+	37	noun	phrase	1	9	nomatch	voilier	-1	1	p	0.51161
385.1463	0.2	cendrier	37	noun	phrase	1	10	nomatch	voilier	-1	1	p	0.51161
385.3462	0.0	+	37	noun	phrase	1	11	nomatch	voilier	-1	1	p	0.51161
385.74600000000004	0.0	+	37	noun	phrase	1	12	nomatch	voilier	-1	1	p	0.51161
387.7457	0.0	VOILIER	37	noun	phrase	1	13	nomatch	voilier	-1	1	p	0.51161
388.362	0.0	+	37	noun	phrase	1	14	nomatch	voilier	-1	1	p	0.51161
388.2573000000001	0.0	[response]	37	noun	phrase	1	15	nomatch	voilier	-1	1	p	0.51161
390.14410000000004	0.0	+	38	noun	list	1	1	nomatch	grand	-1	1	p	0.43197
390.6938	0.2	dpktc	38	noun	list	1	2	nomatch	grand	-1	1	p	0.43197
390.8937	0.0	+	38	noun	list	1	3	nomatch	grand	-1	1	p	0.43197
391.2935	0.2	xqsw	38	noun	list	1	4	nomatch	grand	-1	1	p	0.43197
391.49350000000004	0.0	+	38	noun	list	1	5	nomatch	grand	-1	1	p	0.43197
391.8933	0.2	ltfh	38	noun	list	1	6	nomatch	grand	-1	1	p	0.43197
392.0939	0.0	+	38	noun	list	1	7	nomatch	grand	-1	1	p	0.43197
392.4936	0.2	wsrgpk	38	noun	list	1	8	nomatch	grand	-1	1	p	0.43197
392.69350000000003	0.0	+	38	noun	list	1	9	nomatch	grand	-1	1	p	0.43197
393.1098	0.2	loin	38	noun	list	1	10	nomatch	grand	-1	1	p	0.43197
393.29310000000004	0.0	+	38	noun	list	1	11	nomatch	grand	-1	1	p	0.43197
393.6925	0.0	+	38	noun	list	1	12	nomatch	grand	-1	1	p	0.43197
395.69210000000004	0.0	GRAND	38	noun	list	1	13	nomatch	grand	-1	1	p	0.43197
396.22470000000004	0.0	+	38	noun	list	1	14	nomatch	grand	-1	1	p	0.43197
396.124	0.0	[response]	38	noun	list	1	15	nomatch	grand	-1	1	p	0.43197
398.0905	0.0	+	39	verb	phrase	2	1	match	beaucoup	4	1	y	0.49640000000000006
398.6406	0.2	lrszfh	39	verb	phrase	2	2	match	beaucoup	4	1	y	0.49640000000000006
398.8408	0.0	+	39	verb	phrase	2	3	match	beaucoup	4	1	y	0.49640000000000006
399.2405	0.2	fnth	39	verb	phrase	2	4	match	beaucoup	4	1	y	0.49640000000000006
399.44030000000004	0.0	+	39	verb	phrase	2	5	match	beaucoup	4	1	y	0.49640000000000006
399.8398	0.2	ltfh	39	verb	phrase	2	6	match	beaucoup	4	1	y	0.49640000000000006
400.03970000000004	0.0	+	39	verb	phrase	2	7	match	beaucoup	4	1	y	0.49640000000000006
400.4395	0.2	beaucoup	39	verb	phrase	2	8	match	beaucoup	4	1	y	0.49640000000000006
400.6394	0.0	+	39	verb	phrase	2	9	match	beaucoup	4	1	y	0.49640000000000006
401.03920000000005	0.2	rouler	39	verb	phrase	2	10	match	beaucoup	4	1	y	0.49640000000000006
401.23920000000004	0.0	+	39	verb	phrase	2	11	match	beaucoup	4	1	y	0.49640000000000006
401.639	0.0	+	39	verb	phrase	2	12	match	beaucoup	4	1	y	0.49640000000000006
403.6383	0.0	BEAUCOUP	39	verb	phrase	2	13	match	beaucoup	4	1	y	0.49640000000000006
404.23810000000003	0.0	+	39	verb	phrase	2	14	match	beaucoup	4	1	y	0.49640000000000006
404.13470000000007	0.0	[response]	39	verb	phrase	2	15	match	beaucoup	4	1	y	0.49640000000000006
406.03700000000003	0.0	+	40	verb	phrase	1	1	match	tard	5	1	y	0.46171000000000006
406.58680000000004	0.2	hzp	40	verb	phrase	1	2	match	tard	5	1	y	0.46171000000000006
406.7867	0.0	+	40	verb	phrase	1	3	match	tard	5	1	y	0.46171000000000006
407.1865	0.2	fnth	40	verb	phrase	1	4	match	tard	5	1	y	0.46171000000000006
407.38640000000004	0.0	+	40	verb	phrase	1	5	match	tard	5	1	y	0.46171000000000006
407.78630000000004	0.2	ltfh	40	verb	phrase	1	6	match	tard	5	1	y	0.46171000000000006
407.9862	0.0	+	40	verb	phrase	1	7	match	tard	5	1	y	0.46171000000000006
408.3861	0.2	rwsqltc	40	verb	phrase	1	8	match	tard	5	1	y	0.46171000000000006
408.58660000000003	0.0	+	40	verb	phrase	1	9	match	tard	5	1	y	0.46171000000000006
408.9861	0.2	tard	40	verb	phrase	1	10	match	tard	5	1	y	0.46171000000000006
409.2026	0.0	+	40	verb	phrase	1	11	match	tard	5	1	y	0.46171000000000006
409.58540000000005	0.0	+	40	verb	phrase	1	12	match	tard	5	1	y	0.46171000000000006
411.6019	0.0	TARD	40	verb	phrase	1	13	match	tard	5	1	y	0.46171000000000006
412.1177	0.0	+	40	verb	phrase	1	14	match	tard	5	1	y	0.46171000000000006
412.0636	0.0	[response]	40	verb	phrase	1	15	match	tard	5	1	y	0.46171000000000006
413.98350000000005	0.0	+	41	noun	phrase	1	1	match	boîtier	5	1	y	0.42826
414.54990000000004	0.2	dmfvw	41	noun	phrase	1	2	match	boîtier	5	1	y	0.42826
414.74980000000005	0.0	+	41	noun	phrase	1	3	match	boîtier	5	1	y	0.42826
415.1497	0.2	xwtz	41	noun	phrase	1	4	match	boîtier	5	1	y	0.42826
415.367	0.0	+	41	noun	phrase	1	5	match	boîtier	5	1	y	0.42826
415.76660000000004	0.2	fpzv	41	noun	phrase	1	6	match	boîtier	5	1	y	0.42826
415.9494	0.0	+	41	noun	phrase	1	7	match	boîtier	5	1	y	0.42826
416.34970000000004	0.2	hjrvt	41	noun	phrase	1	8	match	boîtier	5	1	y	0.42826
416.54940000000005	0.0	+	41	noun	phrase	1	9	match	boîtier	5	1	y	0.42826
416.94890000000004	0.2	boîtier	41	noun	phrase	1	10	match	boîtier	5	1	y	0.42826
417.14880000000005	0.0	+	41	noun	phrase	1	11	match	boîtier	5	1	y	0.42826
417.5486	0.0	+	41	noun	phrase	1	12	match	boîtier	5	1	y	0.42826
419.5477	0.2	boîtier	41	noun	phrase	1	13	match	boîtier	5	1	y	0.42826
420.0308	0.0	+	41	noun	phrase	1	14	match	boîtier	5	1	y	0.42826
419.97600000000006	0.0	[response]	41	noun	phrase	1	15	match	boîtier	5	1	y	0.42826
421.94660000000005	0.0	+	42	verb	list	1	1	match	petit	5	1	y	0.43926
422.49640000000005	0.2	pcdhgqr	42	verb	list	1	2	match	petit	5	1	y	0.43926
422.6963	0.0	+	42	verb	list	1	3	match	petit	5	1	y	0.43926
423.09650000000005	0.2	jwhm	42	verb	list	1	4	match	petit	5	1	y	0.43926
423.2968	0.0	+	42	verb	list	1	5	match	petit	5	1	y	0.43926
423.6963	0.2	hdmf	42	verb	list	1	6	match	petit	5	1	y	0.43926
423.8963	0.0	+	42	verb	list	1	7	match	petit	5	1	y	0.43926
424.29630000000003	0.2	tzqhfnx	42	verb	list	1	8	match	petit	5	1	y	0.43926
424.49550000000005	0.0	+	42	verb	list	1	9	match	petit	5	1	y	0.43926
424.8953	0.2	petit	42	verb	list	1	10	match	petit	5	1	y	0.43926
425.0953	0.0	+	42	verb	list	1	11	match	petit	5	1	y	0.43926
425.49510000000004	0.0	+	42	verb	list	1	12	match	petit	5	1	y	0.43926
427.4947	0.0	PETIT	42	verb	list	1	13	match	petit	5	1	y	0.43926
427.994	0.0	+	42	verb	list	1	14	match	petit	5	1	y	0.43926
427.934	0.0	[response]	42	verb	list	1	15	match	petit	5	1	y	0.43926
429.8931	0.0	+	43	noun	list	3	1	nomatch	petit	-1	1	p	0.63609
430.4434	0.2	slnprd	43	noun	list	3	2	nomatch	petit	-1	1	p	0.63609
430.6433	0.0	+	43	noun	list	3	3	nomatch	petit	-1	1	p	0.63609
431.04310000000004	0.2	xqsw	43	noun	list	3	4	nomatch	petit	-1	1	p	0.63609
431.2432	0.0	+	43	noun	list	3	5	nomatch	petit	-1	1	p	0.63609
431.6424	0.2	doit	43	noun	list	3	6	nomatch	petit	-1	1	p	0.63609
431.8423	0.0	+	43	noun	list	3	7	nomatch	petit	-1	1	p	0.63609
432.24210000000005	0.2	grenier	43	noun	list	3	8	nomatch	petit	-1	1	p	0.63609
432.442	0.0	+	43	noun	list	3	9	nomatch	petit	-1	1	p	0.63609
432.84180000000003	0.2	tôt	43	noun	list	3	10	nomatch	petit	-1	1	p	0.63609
433.04170000000005	0.0	+	43	noun	list	3	11	nomatch	petit	-1	1	p	0.63609
433.442	0.0	+	43	noun	list	3	12	nomatch	petit	-1	1	p	0.63609
435.44070000000005	0.0	PETIT	43	noun	list	3	13	nomatch	petit	-1	1	p	0.63609
436.1404	0.0	+	43	noun	list	3	14	nomatch	petit	-1	1	p	0.63609
436.0768000000001	0.0	[response]	43	noun	list	3	15	nomatch	petit	-1	1	p	0.63609
437.8396	0.0	+	44	noun	phrase	1	1	match	petit	5	1	y	0.51211
438.3894	0.2	dvgnl	44	noun	phrase	1	2	match	petit	5	1	y	0.51211
438.58930000000004	0.0	+	44	noun	phrase	1	3	match	petit	5	1	y	0.51211
438.9891	0.2	zfs	44	noun	phrase	1	4	match	petit	5	1	y	0.51211
439.189	0.0	+	44	noun	phrase	1	5	match	petit	5	1	y	0.51211
439.58880000000005	0.2	bxp	44	noun	phrase	1	6	match	petit	5	1	y	0.51211
439.7894	0.0	+	44	noun	phrase	1	7	match	petit	5	1	y	0.51211
440.18890000000005	0.2	kpsfhmbj	44	noun	phrase	1	8	match	petit	5	1	y	0.51211
440.3886	0.0	+	44	noun	phrase	1	9	match	petit	5	1	y	0.51211
440.78830000000005	0.2	petit	44	noun	phrase	1	10	match	petit	5	1	y	0.51211
440.9882	0.0	+	44	noun	phrase	1	11	match	petit	5	1	y	0.51211
441.38800000000003	0.0	+	44	noun	phrase	1	12	match	petit	5	1	y	0.51211
443.3872	0.0	PETIT	44	noun	phrase	1	13	match	petit	5	1	y	0.51211
443.95410000000004	0.0	+	44	noun	phrase	1	14	match	petit	5	1	y	0.51211
443.89930000000004	0.0	[response]	44	noun	phrase	1	15	match	petit	5	1	y	0.51211
445.78610000000003	0.0	+	45	noun	list	4	1	match	leur	3	1	y	0.44404
446.3358	0.2	djwprb	45	noun	list	4	2	match	leur	3	1	y	0.44404
446.5358	0.0	+	45	noun	list	4	3	match	leur	3	1	y	0.44404
446.9356	0.2	paul	45	noun	list	4	4	match	leur	3	1	y	0.44404
447.13550000000004	0.0	+	45	noun	list	4	5	match	leur	3	1	y	0.44404
447.5353	0.2	leur	45	noun	list	4	6	match	leur	3	1	y	0.44404
447.7352	0.0	+	45	noun	list	4	7	match	leur	3	1	y	0.44404
448.1351	0.2	moins	45	noun	list	4	8	match	leur	3	1	y	0.44404
448.3523	0.0	+	45	noun	list	4	9	match	leur	3	1	y	0.44404
448.7348	0.2	cendrier	45	noun	list	4	10	match	leur	3	1	y	0.44404
448.9354	0.0	+	45	noun	list	4	11	match	leur	3	1	y	0.44404
449.33450000000005	0.0	+	45	noun	list	4	12	match	leur	3	1	y	0.44404
451.3503	0.0	LEUR	45	noun	list	4	13	match	leur	3	1	y	0.44404
451.8501	0.0	+	45	noun	list	4	14	match	leur	3	1	y	0.44404
451.7943	0.0	[response]	45	noun	list	4	15	match	leur	3	1	y	0.44404
453.74920000000003	0.0	+	46	verb	phrase	1	1	nomatch	parader	-1	1	p	0.6346
454.29900000000004	0.2	dwmbs	46	verb	phrase	1	2	nomatch	parader	-1	1	p	0.6346
454.49890000000005	0.0	+	46	verb	phrase	1	3	nomatch	parader	-1	1	p	0.6346
454.8987	0.2	sndq	46	verb	phrase	1	4	nomatch	parader	-1	1	p	0.6346
455.09860000000003	0.0	+	46	verb	phrase	1	5	nomatch	parader	-1	1	p	0.6346
455.49850000000004	0.2	hdmf	46	verb	phrase	1	6	nomatch	parader	-1	1	p	0.6346
455.69840000000005	0.0	+	46	verb	phrase	1	7	nomatch	parader	-1	1	p	0.6346
456.1154	0.2	rnsjd	46	verb	phrase	1	8	nomatch	parader	-1	1	p	0.6346
456.2984	0.0	+	46	verb	phrase	1	9	nomatch	parader	-1	1	p	0.6346
456.69800000000004	0.2	patiner	46	verb	phrase	1	10	nomatch	parader	-1	1	p	0.6346
456.89860000000004	0.0	+	46	verb	phrase	1	11	nomatch	parader	-1	1	p	0.6346
457.2982	0.0	+	46	verb	phrase	1	12	nomatch	parader	-1	1	p	0.6346
459.2968	0.0	PARADER	46	verb	phrase	1	13	nomatch	parader	-1	1	p	0.6346
460.08020000000005	0.0	+	46	verb	phrase	1	14	nomatch	parader	-1	1	p	0.6346
459.9314	0.0	[response]	46	verb	phrase	1	15	nomatch	parader	-1	1	p	0.6346
461.6957	0.0	+	47	verb	phrase	3	1	nomatch	petit	-1	1	p	1.1113
462.2455	0.2	pldfzhb	47	verb	phrase	3	2	nomatch	petit	-1	1	p	1.1113
462.4628	0.0	+	47	verb	phrase	3	3	nomatch	petit	-1	1	p	1.1113
462.8456	0.2	fnth	47	verb	phrase	3	4	nomatch	petit	-1	1	p	1.1113
463.04550000000006	0.0	+	47	verb	phrase	3	5	nomatch	petit	-1	1	p	1.1113
463.4623	0.2	peut	47	verb	phrase	3	6	nomatch	petit	-1	1	p	1.1113
463.6453	0.0	+	47	verb	phrase	3	7	nomatch	petit	-1	1	p	1.1113
464.04470000000003	0.2	plonger	47	verb	phrase	3	8	nomatch	petit	-1	1	p	1.1113
464.2446	0.0	+	47	verb	phrase	3	9	nomatch	petit	-1	1	p	1.1113
464.6444	0.2	loin	47	verb	phrase	3	10	nomatch	petit	-1	1	p	1.1113
464.8443	0.0	+	47	verb	phrase	3	11	nomatch	petit	-1	1	p	1.1113
465.2441	0.0	+	47	verb	phrase	3	12	nomatch	petit	-1	1	p	1.1113
467.244	0.0	PETIT	47	verb	phrase	3	13	nomatch	petit	-1	1	p	1.1113
468.45990000000006	0.0	+	47	verb	phrase	3	14	nomatch	petit	-1	1	p	1.1113
468.35530000000006	0.0	[response]	47	verb	phrase	3	15	nomatch	petit	-1	1	p	1.1113
469.6422	0.0	+	48	verb	list	4	1	nomatch	petit	-1	1	p	0.64361
470.192	0.2	hsrblzv	48	verb	list	4	2	nomatch	petit	-1	1	p	0.64361
470.3919000000001	0.0	+	48	verb	list	4	3	nomatch	petit	-1	1	p	0.64361
470.7917	0.2	sous	48	verb	list	4	4	nomatch	petit	-1	1	p	0.64361
470.99160000000006	0.0	+	48	verb	list	4	5	nomatch	petit	-1	1	p	0.64361
471.3914	0.2	peut	48	verb	list	4	6	nomatch	petit	-1	1	p	0.64361
471.59130000000005	0.0	+	48	verb	list	4	7	nomatch	petit	-1	1	p	0.64361
471.99120000000005	0.2	vieux	48	verb	list	4	8	nomatch	petit	-1	1	p	0.64361
472.20820000000003	0.0	+	48	verb	list	4	9	nomatch	petit	-1	1	p	0.64361
472.591	0.2	rouler	48	verb	list	4	10	nomatch	petit	-1	1	p	0.64361
472.79150000000004	0.0	+	48	verb	list	4	11	nomatch	petit	-1	1	p	0.64361
473.1912	0.0	+	48	verb	list	4	12	nomatch	petit	-1	1	p	0.64361
475.1897	0.0	PETIT	48	verb	list	4	13	nomatch	petit	-1	1	p	0.64361
475.8894	0.0	+	48	verb	list	4	14	nomatch	petit	-1	1	p	0.64361
475.8333	0.0	[response]	48	verb	list	4	15	nomatch	petit	-1	1	p	0.64361
485.5852	0.0	+	49	verb	list	1	1	match	nager	5	1	y	0.47672
486.1349	0.2	blcqhgs	49	verb	list	1	2	match	nager	5	1	y	0.47672
486.3348	0.0	+	49	verb	list	1	3	match	nager	5	1	y	0.47672
486.7346	0.2	xgsj	49	verb	list	1	4	match	nager	5	1	y	0.47672
486.9353	0.0	+	49	verb	list	1	5	match	nager	5	1	y	0.47672
487.33490000000006	0.2	jtp	49	verb	list	1	6	match	nager	5	1	y	0.47672
487.5345	0.0	+	49	verb	list	1	7	match	nager	5	1	y	0.47672
487.9348	0.2	hjrvt	49	verb	list	1	8	match	nager	5	1	y	0.47672
488.15139999999997	0.0	+	49	verb	list	1	9	match	nager	5	1	y	0.47672
488.53380000000004	0.2	nager	49	verb	list	1	10	match	nager	5	1	y	0.47672
488.7338	0.0	+	49	verb	list	1	11	match	nager	5	1	y	0.47672
489.1336	0.0	+	49	verb	list	1	12	match	nager	5	1	y	0.47672
491.14930000000004	0.0	NAGER	49	verb	list	1	13	match	nager	5	1	y	0.47672
491.71630000000005	0.0	+	49	verb	list	1	14	match	nager	5	1	y	0.47672
491.6261000000002	0.0	[response]	49	verb	list	1	15	match	nager	5	1	y	0.47672
493.54830000000004	0.0	+	50	verb	phrase	3	1	nomatch	peut	-1	1	p	0.7790800000000001
494.09800000000007	0.2	ndbkms	50	verb	phrase	3	2	nomatch	peut	-1	1	p	0.7790800000000001
494.2985	0.0	+	50	verb	phrase	3	3	nomatch	peut	-1	1	p	0.7790800000000001
494.6984	0.2	mqlx	50	verb	phrase	3	4	nomatch	peut	-1	1	p	0.7790800000000001
494.89830000000006	0.0	+	50	verb	phrase	3	5	nomatch	peut	-1	1	p	0.7790800000000001
495.2975	0.2	doit	50	verb	phrase	3	6	nomatch	peut	-1	1	p	0.7790800000000001
495.49739999999997	0.0	+	50	verb	phrase	3	7	nomatch	peut	-1	1	p	0.7790800000000001
495.8972	0.2	patiner	50	verb	phrase	3	8	nomatch	peut	-1	1	p	0.7790800000000001
496.09720000000004	0.0	+	50	verb	phrase	3	9	nomatch	peut	-1	1	p	0.7790800000000001
496.49700000000007	0.2	vite	50	verb	phrase	3	10	nomatch	peut	-1	1	p	0.7790800000000001
496.6969	0.0	+	50	verb	phrase	3	11	nomatch	peut	-1	1	p	0.7790800000000001
497.09670000000006	0.0	+	50	verb	phrase	3	12	nomatch	peut	-1	1	p	0.7790800000000001
499.09580000000005	0.0	PEUT	50	verb	phrase	3	13	nomatch	peut	-1	1	p	0.7790800000000001
499.9288	0.0	+	50	verb	phrase	3	14	nomatch	peut	-1	1	p	0.7790800000000001
499.8749	0.0	[response]	50	verb	phrase	3	15	nomatch	peut	-1	1	p	0.7790800000000001
501.49490000000003	0.0	+	51	verb	phrase	1	1	nomatch	plus	-1	1	p	0.5827900000000001
502.04449999999997	0.2	pbmq	51	verb	phrase	1	2	nomatch	plus	-1	1	p	0.5827900000000001
502.24440000000004	0.0	+	51	verb	phrase	1	3	nomatch	plus	-1	1	p	0.5827900000000001
502.64420000000007	0.2	sndq	51	verb	phrase	1	4	nomatch	plus	-1	1	p	0.5827900000000001
502.8442	0.0	+	51	verb	phrase	1	5	nomatch	plus	-1	1	p	0.5827900000000001
503.244	0.2	xl	51	verb	phrase	1	6	nomatch	plus	-1	1	p	0.5827900000000001
503.4439	0.0	+	51	verb	phrase	1	7	nomatch	plus	-1	1	p	0.5827900000000001
503.8439000000001	0.2	hckfxq	51	verb	phrase	1	8	nomatch	plus	-1	1	p	0.5827900000000001
504.04370000000006	0.0	+	51	verb	phrase	1	9	nomatch	plus	-1	1	p	0.5827900000000001
504.4440000000001	0.2	beaucoup	51	verb	phrase	1	10	nomatch	plus	-1	1	p	0.5827900000000001
504.64340000000004	0.0	+	51	verb	phrase	1	11	nomatch	plus	-1	1	p	0.5827900000000001
505.04320000000007	0.0	+	51	verb	phrase	1	12	nomatch	plus	-1	1	p	0.5827900000000001
507.04230000000007	0.0	PLUS	51	verb	phrase	1	13	nomatch	plus	-1	1	p	0.5827900000000001
507.692	0.0	+	51	verb	phrase	1	14	nomatch	plus	-1	1	p	0.5827900000000001
507.6251	0.0	[response]	51	verb	phrase	1	15	nomatch	plus	-1	1	p	0.5827900000000001
509.4412	0.0	+	52	verb	phrase	2	1	match	moins	4	1	y	0.55049
509.991	0.2	fqr	52	verb	phrase	2	2	match	moins	4	1	y	0.55049
510.19090000000006	0.0	+	52	verb	phrase	2	3	match	moins	4	1	y	0.55049
510.59069999999997	0.2	tqdg	52	verb	phrase	2	4	match	moins	4	1	y	0.55049
510.7907	0.0	+	52	verb	phrase	2	5	match	moins	4	1	y	0.55049
511.19050000000004	0.2	ltfh	52	verb	phrase	2	6	match	moins	4	1	y	0.55049
511.3904	0.0	+	52	verb	phrase	2	7	match	moins	4	1	y	0.55049
511.7909000000001	0.2	moins	52	verb	phrase	2	8	match	moins	4	1	y	0.55049
511.9905	0.0	+	52	verb	phrase	2	9	match	moins	4	1	y	0.55049
512.3899	0.2	voyager	52	verb	phrase	2	10	match	moins	4	1	y	0.55049
512.5898	0.0	+	52	verb	phrase	2	11	match	moins	4	1	y	0.55049
512.9897	0.0	+	52	verb	phrase	2	12	match	moins	4	1	y	0.55049
514.9892	0.0	MOINS	52	verb	phrase	2	13	match	moins	4	1	y	0.55049
515.6392000000001	0.0	+	52	verb	phrase	2	14	match	moins	4	1	y	0.55049
515.5397000000002	0.0	[response]	52	verb	phrase	2	15	match	moins	4	1	y	0.55049
517.3877	0.0	+	53	noun	list	1	1	match	voilier	5	1	y	0.61573
517.9375	0.2	kpctg	53	noun	list	1	2	match	voilier	5	1	y	0.61573
518.1374000000001	0.0	+	53	noun	list	1	3	match	voilier	5	1	y	0.61573
518.5372	0.2	sndq	53	noun	list	1	4	match	voilier	5	1	y	0.61573
518.7371	0.0	+	53	noun	list	1	5	match	voilier	5	1	y	0.61573
519.1370000000001	0.2	jtp	53	noun	list	1	6	match	voilier	5	1	y	0.61573
519.3375	0.0	+	53	noun	list	1	7	match	voilier	5	1	y	0.61573
519.7373	0.2	jfpc	53	noun	list	1	8	match	voilier	5	1	y	0.61573
519.9368000000001	0.0	+	53	noun	list	1	9	match	voilier	5	1	y	0.61573
520.337	0.2	voilier	53	noun	list	1	10	match	voilier	5	1	y	0.61573
520.5537	0.0	+	53	noun	list	1	11	match	voilier	5	1	y	0.61573
520.9362	0.0	+	53	noun	list	1	12	match	voilier	5	1	y	0.61573
522.9353	0.0	VOILIER	53	noun	list	1	13	match	voilier	5	1	y	0.61573
523.6183	0.0	+	53	noun	list	1	14	match	voilier	5	1	y	0.61573
523.551	0.0	[response]	53	noun	list	1	15	match	voilier	5	1	y	0.61573
525.3342	0.0	+	54	verb	list	4	1	nomatch	noir	-1	1	p	0.65469
525.884	0.2	tlpgsnr	54	verb	list	4	2	nomatch	noir	-1	1	p	0.65469
526.0839	0.0	+	54	verb	list	4	3	nomatch	noir	-1	1	p	0.65469
526.4837	0.2	adam	54	verb	list	4	4	nomatch	noir	-1	1	p	0.65469
526.6836000000001	0.0	+	54	verb	list	4	5	nomatch	noir	-1	1	p	0.65469
527.1006	0.2	son	54	verb	list	4	6	nomatch	noir	-1	1	p	0.65469
527.3006	0.0	+	54	verb	list	4	7	nomatch	noir	-1	1	p	0.65469
527.7005	0.2	patiner	54	verb	list	4	8	nomatch	noir	-1	1	p	0.65469
527.9004	0.0	+	54	verb	list	4	9	nomatch	noir	-1	1	p	0.65469
528.2999	0.2	blanc	54	verb	list	4	10	nomatch	noir	-1	1	p	0.65469
528.4995	0.0	+	54	verb	list	4	11	nomatch	noir	-1	1	p	0.65469
528.8993	0.0	+	54	verb	list	4	12	nomatch	noir	-1	1	p	0.65469
530.8989	0.0	NOIR	54	verb	list	4	13	nomatch	noir	-1	1	p	0.65469
531.6148000000001	0.0	+	54	verb	list	4	14	nomatch	noir	-1	1	p	0.65469
531.5536000000001	0.0	[response]	54	verb	list	4	15	nomatch	noir	-1	1	p	0.65469
533.2974	0.0	+	55	verb	phrase	1	1	nomatch	loin	-1	1	p	0.73863
533.8471000000001	0.2	qdgfzh	55	verb	phrase	1	2	nomatch	loin	-1	1	p	0.73863
534.047	0.0	+	55	verb	phrase	1	3	nomatch	loin	-1	1	p	0.73863
534.4468	0.2	mqlx	55	verb	phrase	1	4	nomatch	loin	-1	1	p	0.73863
534.6467	0.0	+	55	verb	phrase	1	5	nomatch	loin	-1	1	p	0.73863
535.047	0.2	ltfh	55	verb	phrase	1	6	nomatch	loin	-1	1	p	0.73863
535.2469	0.0	+	55	verb	phrase	1	7	nomatch	loin	-1	1	p	0.73863
535.6463	0.2	jsthprc	55	verb	phrase	1	8	nomatch	loin	-1	1	p	0.73863
535.8462000000001	0.0	+	55	verb	phrase	1	9	nomatch	loin	-1	1	p	0.73863
536.2461000000001	0.2	plus	55	verb	phrase	1	10	nomatch	loin	-1	1	p	0.73863
536.446	0.0	+	55	verb	phrase	1	11	nomatch	loin	-1	1	p	0.73863
536.8458	0.0	+	55	verb	phrase	1	12	nomatch	loin	-1	1	p	0.73863
538.8449	0.0	LOIN	55	verb	phrase	1	13	nomatch	loin	-1	1	p	0.73863
539.6445	0.0	+	55	verb	phrase	1	14	nomatch	loin	-1	1	p	0.73863
539.5835000000001	0.0	[response]	55	verb	phrase	1	15	nomatch	loin	-1	1	p	0.73863
541.2438000000001	0.0	+	56	verb	phrase	3	1	match	vite	5	1	y	0.68756
541.7936	0.2	zpdt	56	verb	phrase	3	2	match	vite	5	1	y	0.68756
541.9935	0.0	+	56	verb	phrase	3	3	match	vite	5	1	y	0.68756
542.3933000000001	0.2	tgm	56	verb	phrase	3	4	match	vite	5	1	y	0.68756
542.5932	0.0	+	56	verb	phrase	3	5	match	vite	5	1	y	0.68756
542.9931	0.2	doit	56	verb	phrase	3	6	match	vite	5	1	y	0.68756
543.193	0.0	+	56	verb	phrase	3	7	match	vite	5	1	y	0.68756
543.6099	0.2	jongler	56	verb	phrase	3	8	match	vite	5	1	y	0.68756
543.793	0.0	+	56	verb	phrase	3	9	match	vite	5	1	y	0.68756
544.2097	0.2	vite	56	verb	phrase	3	10	match	vite	5	1	y	0.68756
544.4094	0.0	+	56	verb	phrase	3	11	match	vite	5	1	y	0.68756
544.7923000000001	0.0	+	56	verb	phrase	3	12	match	vite	5	1	y	0.68756
546.7914000000001	0.0	VITE	56	verb	phrase	3	13	match	vite	5	1	y	0.68756
547.541	0.0	+	56	verb	phrase	3	14	match	vite	5	1	y	0.68756
547.4789000000001	0.0	[response]	56	verb	phrase	3	15	match	vite	5	1	y	0.68756
549.1903	0.0	+	57	verb	phrase	2	1	nomatch	doit	-1	1	p	1.0837
549.7401	0.2	fnwrk	57	verb	phrase	2	2	nomatch	doit	-1	1	p	1.0837
549.94	0.0	+	57	verb	phrase	2	3	nomatch	doit	-1	1	p	1.0837
550.3398	0.2	nqwz	57	verb	phrase	2	4	nomatch	doit	-1	1	p	1.0837
550.5397	0.0	+	57	verb	phrase	2	5	nomatch	doit	-1	1	p	1.0837
550.9398	0.2	hdmf	57	verb	phrase	2	6	nomatch	doit	-1	1	p	1.0837
551.1563	0.0	+	57	verb	phrase	2	7	nomatch	doit	-1	1	p	1.0837
551.5399	0.2	rouler	57	verb	phrase	2	8	nomatch	doit	-1	1	p	1.0837
551.7396	0.0	+	57	verb	phrase	2	9	nomatch	doit	-1	1	p	1.0837
552.1558	0.2	vite	57	verb	phrase	2	10	nomatch	doit	-1	1	p	1.0837
552.3389	0.0	+	57	verb	phrase	2	11	nomatch	doit	-1	1	p	1.0837
552.7387	0.0	+	57	verb	phrase	2	12	nomatch	doit	-1	1	p	1.0837
554.7382	0.0	DOIT	57	verb	phrase	2	13	nomatch	doit	-1	1	p	1.0837
555.8874000000001	0.0	+	57	verb	phrase	2	14	nomatch	doit	-1	1	p	1.0837
555.8219	0.0	[response]	57	verb	phrase	2	15	nomatch	doit	-1	1	p	1.0837
573.197	0.0	+	58	verb	phrase	1	1	nomatch	loin	-1	1	p	0.6190400000000001
573.6961	0.2	djwk	58	verb	phrase	1	2	nomatch	loin	-1	1	p	0.6190400000000001
573.8961	0.0	+	58	verb	phrase	1	3	nomatch	loin	-1	1	p	0.6190400000000001
574.2959000000001	0.2	xgsj	58	verb	phrase	1	4	nomatch	loin	-1	1	p	0.6190400000000001
574.4958	0.0	+	58	verb	phrase	1	5	nomatch	loin	-1	1	p	0.6190400000000001
574.8956000000001	0.2	ltfh	58	verb	phrase	1	6	nomatch	loin	-1	1	p	0.6190400000000001
575.0955	0.0	+	58	verb	phrase	1	7	nomatch	loin	-1	1	p	0.6190400000000001
575.4961000000001	0.2	tzqhfnx	58	verb	phrase	1	8	nomatch	loin	-1	1	p	0.6190400000000001
575.6958000000001	0.0	+	58	verb	phrase	1	9	nomatch	loin	-1	1	p	0.6190400000000001
576.0956	0.2	ainsi	58	verb	phrase	1	10	nomatch	loin	-1	1	p	0.6190400000000001
576.2950000000001	0.0	+	58	verb	phrase	1	11	nomatch	loin	-1	1	p	0.6190400000000001
576.6948	0.0	+	58	verb	phrase	1	12	nomatch	loin	-1	1	p	0.6190400000000001
578.6939	0.0	LOIN	58	verb	phrase	1	13	nomatch	loin	-1	1	p	0.6190400000000001
579.4105000000001	0.0	+	58	verb	phrase	1	14	nomatch	loin	-1	1	p	0.6190400000000001
579.313	0.0	[response]	58	verb	phrase	1	15	nomatch	loin	-1	1	p	0.6190400000000001
581.0928	0.0	+	59	verb	list	4	1	nomatch	rocher	-1	1	p	0.62655
581.6426	0.2	rjqtzf	59	verb	list	4	2	nomatch	rocher	-1	1	p	0.62655
581.8425	0.0	+	59	verb	list	4	3	nomatch	rocher	-1	1	p	0.62655
582.2424	0.2	avec	59	verb	list	4	4	nomatch	rocher	-1	1	p	0.62655
582.4423	0.0	+	59	verb	list	4	5	nomatch	rocher	-1	1	p	0.62655
582.8421000000001	0.2	va	59	verb	list	4	6	nomatch	rocher	-1	1	p	0.62655
583.042	0.0	+	59	verb	list	4	7	nomatch	rocher	-1	1	p	0.62655
583.4418000000001	0.2	grand	59	verb	list	4	8	nomatch	rocher	-1	1	p	0.62655
583.6417	0.0	+	59	verb	list	4	9	nomatch	rocher	-1	1	p	0.62655
584.0416	0.2	danser	59	verb	list	4	10	nomatch	rocher	-1	1	p	0.62655
584.2420000000001	0.0	+	59	verb	list	4	11	nomatch	rocher	-1	1	p	0.62655
584.6413	0.0	+	59	verb	list	4	12	nomatch	rocher	-1	1	p	0.62655
586.6404	0.0	ROCHER	59	verb	list	4	13	nomatch	rocher	-1	1	p	0.62655
587.3234	0.0	+	59	verb	list	4	14	nomatch	rocher	-1	1	p	0.62655
587.2669000000001	0.0	[response]	59	verb	list	4	15	nomatch	rocher	-1	1	p	0.62655
589.0393	0.0	+	60	verb	list	1	1	nomatch	jongler	-1	1	p	1.0721
589.5891	0.2	htq	60	verb	list	1	2	nomatch	jongler	-1	1	p	1.0721
589.789	0.0	+	60	verb	list	1	3	nomatch	jongler	-1	1	p	1.0721
590.1888	0.2	zfs	60	verb	list	1	4	nomatch	jongler	-1	1	p	1.0721
590.3887	0.0	+	60	verb	list	1	5	nomatch	jongler	-1	1	p	1.0721
590.7886	0.2	ltfh	60	verb	list	1	6	nomatch	jongler	-1	1	p	1.0721
590.9891	0.0	+	60	verb	list	1	7	nomatch	jongler	-1	1	p	1.0721
591.3884	0.2	pvns	60	verb	list	1	8	nomatch	jongler	-1	1	p	1.0721
591.5889	0.0	+	60	verb	list	1	9	nomatch	jongler	-1	1	p	1.0721
591.9884000000001	0.2	voyager	60	verb	list	1	10	nomatch	jongler	-1	1	p	1.0721
592.1881000000001	0.0	+	60	verb	list	1	11	nomatch	jongler	-1	1	p	1.0721
592.5878	0.0	+	60	verb	list	1	12	nomatch	jongler	-1	1	p	1.0721
594.5876000000001	0.0	JONGLER	60	verb	list	1	13	nomatch	jongler	-1	1	p	1.0721
595.7197	0.0	+	60	verb	list	1	14	nomatch	jongler	-1	1	p	1.0721
595.6597000000002	0.0	[response]	60	verb	list	1	15	nomatch	jongler	-1	1	p	1.0721
596.9858	0.0	+	61	verb	list	3	1	match	blanc	5	1	y	0.60245
597.5356	0.2	tbx	61	verb	list	3	2	match	blanc	5	1	y	0.60245
597.7355	0.0	+	61	verb	list	3	3	match	blanc	5	1	y	0.60245
598.1353	0.2	tqdg	61	verb	list	3	4	match	blanc	5	1	y	0.60245
598.3352	0.0	+	61	verb	list	3	5	match	blanc	5	1	y	0.60245
598.7355	0.2	son	61	verb	list	3	6	match	blanc	5	1	y	0.60245
598.9356	0.0	+	61	verb	list	3	7	match	blanc	5	1	y	0.60245
599.335	0.2	plonger	61	verb	list	3	8	match	blanc	5	1	y	0.60245
599.5347	0.0	+	61	verb	list	3	9	match	blanc	5	1	y	0.60245
599.9345000000001	0.2	blanc	61	verb	list	3	10	match	blanc	5	1	y	0.60245
600.1344	0.0	+	61	verb	list	3	11	match	blanc	5	1	y	0.60245
600.5343	0.0	+	61	verb	list	3	12	match	blanc	5	1	y	0.60245
602.5500000000001	0.0	BLANC	61	verb	list	3	13	match	blanc	5	1	y	0.60245
603.2164	0.0	+	61	verb	list	3	14	match	blanc	5	1	y	0.60245
603.1525	0.0	[response]	61	verb	list	3	15	match	blanc	5	1	y	0.60245
604.9490000000001	0.0	+	62	verb	phrase	1	1	nomatch	patiner	-1	1	p	0.5781
605.4987	0.2	blpjcn	62	verb	phrase	1	2	nomatch	patiner	-1	1	p	0.5781
605.6986	0.0	+	62	verb	phrase	1	3	nomatch	patiner	-1	1	p	0.5781
606.1156	0.2	fnth	62	verb	phrase	1	4	nomatch	patiner	-1	1	p	0.5781
606.2986000000001	0.0	+	62	verb	phrase	1	5	nomatch	patiner	-1	1	p	0.5781
606.6982	0.2	hdmf	62	verb	phrase	1	6	nomatch	patiner	-1	1	p	0.5781
606.8981	0.0	+	62	verb	phrase	1	7	nomatch	patiner	-1	1	p	0.5781
607.2986000000001	0.2	lznbr	62	verb	phrase	1	8	nomatch	patiner	-1	1	p	0.5781
607.4978	0.0	+	62	verb	phrase	1	9	nomatch	patiner	-1	1	p	0.5781
607.8977	0.2	jongler	62	verb	phrase	1	10	nomatch	patiner	-1	1	p	0.5781
608.0976	0.0	+	62	verb	phrase	1	11	nomatch	patiner	-1	1	p	0.5781
608.4974	0.0	+	62	verb	phrase	1	12	nomatch	patiner	-1	1	p	0.5781
610.4965	0.0	PATINER	62	verb	phrase	1	13	nomatch	patiner	-1	1	p	0.5781
611.1296	0.0	+	62	verb	phrase	1	14	nomatch	patiner	-1	1	p	0.5781
611.0746	0.0	[response]	62	verb	phrase	1	15	nomatch	patiner	-1	1	p	0.5781
612.8954	0.0	+	63	verb	list	3	1	match	noir	5	1	y	0.60451
613.4452	0.2	hsd	63	verb	list	3	2	match	noir	5	1	y	0.60451
613.6451000000001	0.0	+	63	verb	list	3	3	match	noir	5	1	y	0.60451
614.0449	0.2	xgsj	63	verb	list	3	4	match	noir	5	1	y	0.60451
614.2456	0.0	+	63	verb	list	3	5	match	noir	5	1	y	0.60451
614.6448	0.2	mon	63	verb	list	3	6	match	noir	5	1	y	0.60451
614.845	0.0	+	63	verb	list	3	7	match	noir	5	1	y	0.60451
615.2451	0.2	voyager	63	verb	list	3	8	match	noir	5	1	y	0.60451
615.4448	0.0	+	63	verb	list	3	9	match	noir	5	1	y	0.60451
615.8441	0.2	noir	63	verb	list	3	10	match	noir	5	1	y	0.60451
616.0441000000001	0.0	+	63	verb	list	3	11	match	noir	5	1	y	0.60451
616.4439	0.0	+	63	verb	list	3	12	match	noir	5	1	y	0.60451
618.443	0.0	NOIR	63	verb	list	3	13	match	noir	5	1	y	0.60451
619.2265	0.0	+	63	verb	list	3	14	match	noir	5	1	y	0.60451
619.0475	0.0	[response]	63	verb	list	3	15	match	noir	5	1	y	0.60451
620.8419	0.0	+	64	verb	list	1	1	nomatch	leur	-1	1	p	0.41065
621.3917	0.2	prtnkv	64	verb	list	1	2	nomatch	leur	-1	1	p	0.41065
621.5916	0.0	+	64	verb	list	1	3	nomatch	leur	-1	1	p	0.41065
621.9919	0.2	fnth	64	verb	list	1	4	nomatch	leur	-1	1	p	0.41065
622.1914	0.0	+	64	verb	list	1	5	nomatch	leur	-1	1	p	0.41065
622.6079	0.2	jtp	64	verb	list	1	6	nomatch	leur	-1	1	p	0.41065
622.7917	0.0	+	64	verb	list	1	7	nomatch	leur	-1	1	p	0.41065
623.191	0.2	bhmgwtn	64	verb	list	1	8	nomatch	leur	-1	1	p	0.41065
623.3908	0.0	+	64	verb	list	1	9	nomatch	leur	-1	1	p	0.41065
623.7906	0.2	noir	64	verb	list	1	10	nomatch	leur	-1	1	p	0.41065
623.9905	0.0	+	64	verb	list	1	11	nomatch	leur	-1	1	p	0.41065
624.3903	0.0	+	64	verb	list	1	12	nomatch	leur	-1	1	p	0.41065
626.39	0.0	LEUR	64	verb	list	1	13	nomatch	leur	-1	1	p	0.41065
626.8559	0.0	+	64	verb	list	1	14	nomatch	leur	-1	1	p	0.41065
626.8007	0.0	[response]	64	verb	list	1	15	nomatch	leur	-1	1	p	0.41065
628.7884	0.0	+	65	verb	list	1	1	nomatch	voyager	-1	1	p	0.48511000000000004
629.3555	0.2	ljfdc	65	verb	list	1	2	nomatch	voyager	-1	1	p	0.48511000000000004
629.5553	0.0	+	65	verb	list	1	3	nomatch	voyager	-1	1	p	0.48511000000000004
629.9381000000001	0.2	xwtz	65	verb	list	1	4	nomatch	voyager	-1	1	p	0.48511000000000004
630.1546000000001	0.0	+	65	verb	list	1	5	nomatch	voyager	-1	1	p	0.48511000000000004
630.5376	0.2	ltfh	65	verb	list	1	6	nomatch	voyager	-1	1	p	0.48511000000000004
630.7375000000001	0.0	+	65	verb	list	1	7	nomatch	voyager	-1	1	p	0.48511000000000004
631.1374000000001	0.2	pxsvhwg	65	verb	list	1	8	nomatch	voyager	-1	1	p	0.48511000000000004
631.3373	0.0	+	65	verb	list	1	9	nomatch	voyager	-1	1	p	0.48511000000000004
631.7371	0.2	plonger	65	verb	list	1	10	nomatch	voyager	-1	1	p	0.48511000000000004
631.937	0.0	+	65	verb	list	1	11	nomatch	voyager	-1	1	p	0.48511000000000004
632.3368	0.0	+	65	verb	list	1	12	nomatch	voyager	-1	1	p	0.48511000000000004
634.3359	0.0	VOYAGER	65	verb	list	1	13	nomatch	voyager	-1	1	p	0.48511000000000004
634.8857	0.0	+	65	verb	list	1	14	nomatch	voyager	-1	1	p	0.48511000000000004
634.821	0.0	[response]	65	verb	list	1	15	nomatch	voyager	-1	1	p	0.48511000000000004
636.7349	0.0	+	66	noun	list	2	1	match	loin	5	1	y	0.58132
637.2846000000001	0.2	flp	66	noun	list	2	2	match	loin	5	1	y	0.58132
637.4846	0.0	+	66	noun	list	2	3	match	loin	5	1	y	0.58132
637.8844	0.2	gbvz	66	noun	list	2	4	match	loin	5	1	y	0.58132
638.0843	0.0	+	66	noun	list	2	5	match	loin	5	1	y	0.58132
638.4841	0.2	hdmf	66	noun	list	2	6	match	loin	5	1	y	0.58132
638.684	0.0	+	66	noun	list	2	7	match	loin	5	1	y	0.58132
639.0843	0.2	rocher	66	noun	list	2	8	match	loin	5	1	y	0.58132
639.284	0.0	+	66	noun	list	2	9	match	loin	5	1	y	0.58132
639.6837	0.2	loin	66	noun	list	2	10	match	loin	5	1	y	0.58132
639.8836	0.0	+	66	noun	list	2	11	match	loin	5	1	y	0.58132
640.3007	0.0	+	66	noun	list	2	12	match	loin	5	1	y	0.58132
642.2998	0.0	LOIN	66	noun	list	2	13	match	loin	5	1	y	0.58132
642.9488	0.0	+	66	noun	list	2	14	match	loin	5	1	y	0.58132
642.8811000000002	0.0	[response]	66	noun	list	2	15	match	loin	5	1	y	0.58132
652.7451	0.0	+	67	verb	list	2	1	match	nouveau	4	1	y	1.2906
653.2449	0.2	fgk	67	verb	list	2	2	match	nouveau	4	1	y	1.2906
653.4446	0.0	+	67	verb	list	2	3	match	nouveau	4	1	y	1.2906
653.844	0.2	zfs	67	verb	list	2	4	match	nouveau	4	1	y	1.2906
654.0439	0.0	+	67	verb	list	2	5	match	nouveau	4	1	y	1.2906
654.4437	0.2	ltfh	67	verb	list	2	6	match	nouveau	4	1	y	1.2906
654.6436	0.0	+	67	verb	list	2	7	match	nouveau	4	1	y	1.2906
655.0434	0.2	nouveau	67	verb	list	2	8	match	nouveau	4	1	y	1.2906
655.2434000000001	0.0	+	67	verb	list	2	9	match	nouveau	4	1	y	1.2906
655.6432	0.2	plonger	67	verb	list	2	10	match	nouveau	4	1	y	1.2906
655.8431	0.0	+	67	verb	list	2	11	match	nouveau	4	1	y	1.2906
656.2429000000001	0.0	+	67	verb	list	2	12	match	nouveau	4	1	y	1.2906
658.2426	0.0	NOUVEAU	67	verb	list	2	13	match	nouveau	4	1	y	1.2906
659.5914	0.0	+	67	verb	list	2	14	match	nouveau	4	1	y	1.2906
659.5331	0.0	[response]	67	verb	list	2	15	match	nouveau	4	1	y	1.2906
660.6410000000001	0.0	+	68	verb	list	1	1	nomatch	plonger	-1	1	p	0.53647
661.1907	0.2	xvgjw	68	verb	list	1	2	nomatch	plonger	-1	1	p	0.53647
661.3906000000001	0.0	+	68	verb	list	1	3	nomatch	plonger	-1	1	p	0.53647
661.7905000000001	0.2	dztj	68	verb	list	1	4	nomatch	plonger	-1	1	p	0.53647
661.9904	0.0	+	68	verb	list	1	5	nomatch	plonger	-1	1	p	0.53647
662.3902	0.2	xl	68	verb	list	1	6	nomatch	plonger	-1	1	p	0.53647
662.5902	0.0	+	68	verb	list	1	7	nomatch	plonger	-1	1	p	0.53647
662.9899	0.2	blxzq	68	verb	list	1	8	nomatch	plonger	-1	1	p	0.53647
663.1899	0.0	+	68	verb	list	1	9	nomatch	plonger	-1	1	p	0.53647
663.5904	0.2	patiner	68	verb	list	1	10	nomatch	plonger	-1	1	p	0.53647
663.7902	0.0	+	68	verb	list	1	11	nomatch	plonger	-1	1	p	0.53647
664.1896	0.0	+	68	verb	list	1	12	nomatch	plonger	-1	1	p	0.53647
666.1885	0.0	PLONGER	68	verb	list	1	13	nomatch	plonger	-1	1	p	0.53647
666.7883	0.0	+	68	verb	list	1	14	nomatch	plonger	-1	1	p	0.53647
666.725	0.0	[response]	68	verb	list	1	15	nomatch	plonger	-1	1	p	0.53647
668.5875	0.0	+	69	verb	phrase	4	1	match	plonger	4	1	y	0.54387
669.1372	0.2	rhvgsbm	69	verb	phrase	4	2	match	plonger	4	1	y	0.54387
669.3371000000001	0.0	+	69	verb	phrase	4	3	match	plonger	4	1	y	0.54387
669.7369	0.2	yves	69	verb	phrase	4	4	match	plonger	4	1	y	0.54387
669.9368000000001	0.0	+	69	verb	phrase	4	5	match	plonger	4	1	y	0.54387
670.3367000000001	0.2	va	69	verb	phrase	4	6	match	plonger	4	1	y	0.54387
670.5366	0.0	+	69	verb	phrase	4	7	match	plonger	4	1	y	0.54387
670.9364	0.2	plonger	69	verb	phrase	4	8	match	plonger	4	1	y	0.54387
671.1363	0.0	+	69	verb	phrase	4	9	match	plonger	4	1	y	0.54387
671.5363	0.2	loin	69	verb	phrase	4	10	match	plonger	4	1	y	0.54387
671.7365	0.0	+	69	verb	phrase	4	11	match	plonger	4	1	y	0.54387
672.1533000000001	0.0	+	69	verb	phrase	4	12	match	plonger	4	1	y	0.54387
674.1357	0.0	PLONGER	69	verb	phrase	4	13	match	plonger	4	1	y	0.54387
674.7347	0.0	+	69	verb	phrase	4	14	match	plonger	4	1	y	0.54387
674.6795000000001	0.0	[response]	69	verb	phrase	4	15	match	plonger	4	1	y	0.54387
676.5339	0.0	+	70	verb	list	3	1	match	peut	3	1	y	0.60139
677.0839	0.2	whgtbnj	70	verb	list	3	2	match	peut	3	1	y	0.60139
677.2836	0.0	+	70	verb	list	3	3	match	peut	3	1	y	0.60139
677.7001	0.2	jwhm	70	verb	list	3	4	match	peut	3	1	y	0.60139
677.9	0.0	+	70	verb	list	3	5	match	peut	3	1	y	0.60139
678.3003	0.2	peut	70	verb	list	3	6	match	peut	3	1	y	0.60139
678.4999	0.0	+	70	verb	list	3	7	match	peut	3	1	y	0.60139
678.9001000000001	0.2	beau	70	verb	list	3	8	match	peut	3	1	y	0.60139
679.1166000000001	0.0	+	70	verb	list	3	9	match	peut	3	1	y	0.60139
679.5	0.2	plonger	70	verb	list	3	10	match	peut	3	1	y	0.60139
679.6992	0.0	+	70	verb	list	3	11	match	peut	3	1	y	0.60139
680.099	0.0	+	70	verb	list	3	12	match	peut	3	1	y	0.60139
682.0981	0.0	PEUT	70	verb	list	3	13	match	peut	3	1	y	0.60139
682.7645	0.0	+	70	verb	list	3	14	match	peut	3	1	y	0.60139
682.6995000000001	0.0	[response]	70	verb	list	3	15	match	peut	3	1	y	0.60139
684.4971	0.0	+	71	verb	list	4	1	nomatch	son	-1	1	p	0.9819
685.0468000000001	0.2	cvkbs	71	verb	list	4	2	nomatch	son	-1	1	p	0.9819
685.2467	0.0	+	71	verb	list	4	3	nomatch	son	-1	1	p	0.9819
685.6466	0.2	sur	71	verb	list	4	4	nomatch	son	-1	1	p	0.9819
685.8465	0.0	+	71	verb	list	4	5	nomatch	son	-1	1	p	0.9819
686.2470000000001	0.2	va	71	verb	list	4	6	nomatch	son	-1	1	p	0.9819
686.4468	0.0	+	71	verb	list	4	7	nomatch	son	-1	1	p	0.9819
686.8464	0.2	petit	71	verb	list	4	8	nomatch	son	-1	1	p	0.9819
687.0463	0.0	+	71	verb	list	4	9	nomatch	son	-1	1	p	0.9819
687.4458000000001	0.2	voyager	71	verb	list	4	10	nomatch	son	-1	1	p	0.9819
687.6457	0.0	+	71	verb	list	4	11	nomatch	son	-1	1	p	0.9819
688.0455000000001	0.0	+	71	verb	list	4	12	nomatch	son	-1	1	p	0.9819
690.0447	0.0	SON	71	verb	list	4	13	nomatch	son	-1	1	p	0.9819
691.0942	0.0	+	71	verb	list	4	14	nomatch	son	-1	1	p	0.9819
691.0266	0.0	[response]	71	verb	list	4	15	nomatch	son	-1	1	p	0.9819
692.4435	0.0	+	72	verb	list	2	1	nomatch	ainsi	-1	1	p	0.75794
692.9939	0.2	dkp	72	verb	list	2	2	nomatch	ainsi	-1	1	p	0.75794
693.1938	0.0	+	72	verb	list	2	3	nomatch	ainsi	-1	1	p	0.75794
693.5937	0.2	gbvz	72	verb	list	2	4	nomatch	ainsi	-1	1	p	0.75794
693.7937000000001	0.0	+	72	verb	list	2	5	nomatch	ainsi	-1	1	p	0.75794
694.1933	0.2	hdmf	72	verb	list	2	6	nomatch	ainsi	-1	1	p	0.75794
694.3927	0.0	+	72	verb	list	2	7	nomatch	ainsi	-1	1	p	0.75794
694.7925	0.2	vieux	72	verb	list	2	8	nomatch	ainsi	-1	1	p	0.75794
694.9924	0.0	+	72	verb	list	2	9	nomatch	ainsi	-1	1	p	0.75794
695.3923	0.2	nager	72	verb	list	2	10	nomatch	ainsi	-1	1	p	0.75794
695.5922	0.0	+	72	verb	list	2	11	nomatch	ainsi	-1	1	p	0.75794
695.9927	0.0	+	72	verb	list	2	12	nomatch	ainsi	-1	1	p	0.75794
697.9911000000001	0.0	AINSI	72	verb	list	2	13	nomatch	ainsi	-1	1	p	0.75794
698.8074	0.0	+	72	verb	list	2	14	nomatch	ainsi	-1	1	p	0.75794
698.749	0.0	[response]	72	verb	list	2	15	nomatch	ainsi	-1	1	p	0.75794
700.39	0.0	+	73	verb	list	1	1	nomatch	patiner	-1	1	p	0.69226
700.9398	0.2	cgdlsqv	73	verb	list	1	2	nomatch	patiner	-1	1	p	0.69226
701.1397000000001	0.0	+	73	verb	list	1	3	nomatch	patiner	-1	1	p	0.69226
701.5395	0.2	fnth	73	verb	list	1	4	nomatch	patiner	-1	1	p	0.69226
701.7394	0.0	+	73	verb	list	1	5	nomatch	patiner	-1	1	p	0.69226
702.1393	0.2	jtp	73	verb	list	1	6	nomatch	patiner	-1	1	p	0.69226
702.3392	0.0	+	73	verb	list	1	7	nomatch	patiner	-1	1	p	0.69226
702.7396	0.2	glbkt	73	verb	list	1	8	nomatch	patiner	-1	1	p	0.69226
702.9397	0.0	+	73	verb	list	1	9	nomatch	patiner	-1	1	p	0.69226
703.3393	0.2	parader	73	verb	list	1	10	nomatch	patiner	-1	1	p	0.69226
703.5386	0.0	+	73	verb	list	1	11	nomatch	patiner	-1	1	p	0.69226
703.9385	0.0	+	73	verb	list	1	12	nomatch	patiner	-1	1	p	0.69226
705.938	0.0	PATINER	73	verb	list	1	13	nomatch	patiner	-1	1	p	0.69226
706.6873	0.0	+	73	verb	list	1	14	nomatch	patiner	-1	1	p	0.69226
706.6302000000001	0.0	[response]	73	verb	list	1	15	nomatch	patiner	-1	1	p	0.69226
708.3365	0.0	+	74	verb	list	2	1	match	noir	5	0	p	0.68161
708.8863	0.2	tpzkvh	74	verb	list	2	2	match	noir	5	0	p	0.68161
709.0862000000001	0.0	+	74	verb	list	2	3	match	noir	5	0	p	0.68161
709.486	0.2	sndq	74	verb	list	2	4	match	noir	5	0	p	0.68161
709.6859000000001	0.0	+	74	verb	list	2	5	match	noir	5	0	p	0.68161
710.0864	0.2	bxp	74	verb	list	2	6	match	noir	5	0	p	0.68161
710.2860000000001	0.0	+	74	verb	list	2	7	match	noir	5	0	p	0.68161
710.6855	0.2	nager	74	verb	list	2	8	match	noir	5	0	p	0.68161
710.8854	0.0	+	74	verb	list	2	9	match	noir	5	0	p	0.68161
711.2852	0.2	noir	74	verb	list	2	10	match	noir	5	0	p	0.68161
711.4851	0.0	+	74	verb	list	2	11	match	noir	5	0	p	0.68161
711.885	0.0	+	74	verb	list	2	12	match	noir	5	0	p	0.68161
713.8841	0.0	NOIR	74	verb	list	2	13	match	noir	5	0	p	0.68161
714.7004000000001	0.0	+	74	verb	list	2	14	match	noir	5	0	p	0.68161
714.5657	0.0	[response]	74	verb	list	2	15	match	noir	5	0	p	0.68161
716.2997	0.0	+	75	verb	phrase	1	1	match	voyager	5	1	y	0.49692
716.8494000000001	0.2	qlfw	75	verb	phrase	1	2	match	voyager	5	1	y	0.49692
717.0493	0.0	+	75	verb	phrase	1	3	match	voyager	5	1	y	0.49692
717.4491	0.2	xgsj	75	verb	phrase	1	4	match	voyager	5	1	y	0.49692
717.6491	0.0	+	75	verb	phrase	1	5	match	voyager	5	1	y	0.49692
718.0489	0.2	xl	75	verb	phrase	1	6	match	voyager	5	1	y	0.49692
718.249	0.0	+	75	verb	phrase	1	7	match	voyager	5	1	y	0.49692
718.6492000000001	0.2	cdzgf	75	verb	phrase	1	8	match	voyager	5	1	y	0.49692
718.8658	0.0	+	75	verb	phrase	1	9	match	voyager	5	1	y	0.49692
719.2484000000001	0.2	voyager	75	verb	phrase	1	10	match	voyager	5	1	y	0.49692
719.4489	0.0	+	75	verb	phrase	1	11	match	voyager	5	1	y	0.49692
719.8481	0.0	+	75	verb	phrase	1	12	match	voyager	5	1	y	0.49692
721.8472	0.0	VOYAGER	75	verb	phrase	1	13	match	voyager	5	1	y	0.49692
722.397	0.0	+	75	verb	phrase	1	14	match	voyager	5	1	y	0.49692
722.3441	0.0	[response]	75	verb	phrase	1	15	match	voyager	5	1	y	0.49692
724.2633000000001	0.0	+	76	verb	phrase	1	1	match	danser	5	1	y	0.45239
724.7959000000001	0.2	qhdtn	76	verb	phrase	1	2	match	danser	5	1	y	0.45239
724.9958	0.0	+	76	verb	phrase	1	3	match	danser	5	1	y	0.45239
725.3956000000001	0.2	sndq	76	verb	phrase	1	4	match	danser	5	1	y	0.45239
725.5956	0.0	+	76	verb	phrase	1	5	match	danser	5	1	y	0.45239
725.9954	0.2	hdmf	76	verb	phrase	1	6	match	danser	5	1	y	0.45239
726.1953	0.0	+	76	verb	phrase	1	7	match	danser	5	1	y	0.45239
726.5951	0.2	xncl	76	verb	phrase	1	8	match	danser	5	1	y	0.45239
726.7950000000001	0.0	+	76	verb	phrase	1	9	match	danser	5	1	y	0.45239
727.1948	0.2	danser	76	verb	phrase	1	10	match	danser	5	1	y	0.45239
727.3947000000001	0.0	+	76	verb	phrase	1	11	match	danser	5	1	y	0.45239
727.7946000000001	0.0	+	76	verb	phrase	1	12	match	danser	5	1	y	0.45239
729.7937000000001	0.0	DANSER	76	verb	phrase	1	13	match	danser	5	1	y	0.45239
730.3101	0.0	+	76	verb	phrase	1	14	match	danser	5	1	y	0.45239
730.2461000000002	0.0	[response]	76	verb	phrase	1	15	match	danser	5	1	y	0.45239
732.1926	0.0	+	77	verb	list	2	1	nomatch	nouveau	-1	1	p	1.7211
732.7424	0.2	zvqpd	77	verb	list	2	2	nomatch	nouveau	-1	1	p	1.7211
732.9423	0.0	+	77	verb	list	2	3	nomatch	nouveau	-1	1	p	1.7211
733.359	0.2	xwtz	77	verb	list	2	4	nomatch	nouveau	-1	1	p	1.7211
733.5426	0.0	+	77	verb	list	2	5	nomatch	nouveau	-1	1	p	1.7211
733.9589	0.2	xl	77	verb	list	2	6	nomatch	nouveau	-1	1	p	1.7211
734.1419000000001	0.0	+	77	verb	list	2	7	nomatch	nouveau	-1	1	p	1.7211
734.5416	0.2	petit	77	verb	list	2	8	nomatch	nouveau	-1	1	p	1.7211
734.7415	0.0	+	77	verb	list	2	9	nomatch	nouveau	-1	1	p	1.7211
735.1413	0.2	rouler	77	verb	list	2	10	nomatch	nouveau	-1	1	p	1.7211
735.3412000000001	0.0	+	77	verb	list	2	11	nomatch	nouveau	-1	1	p	1.7211
735.7411000000001	0.0	+	77	verb	list	2	12	nomatch	nouveau	-1	1	p	1.7211
737.7402000000001	0.0	NOUVEAU	77	verb	list	2	13	nomatch	nouveau	-1	1	p	1.7211
739.5227	0.0	+	77	verb	list	2	14	nomatch	nouveau	-1	1	p	1.7211
739.4613	0.0	[response]	77	verb	list	2	15	nomatch	nouveau	-1	1	p	1.7211
740.1391	0.0	+	78	verb	list	3	1	nomatch	parader	-1	1	p	0.75757
740.6889	0.2	jwx	78	verb	list	3	2	nomatch	parader	-1	1	p	0.75757
740.8888000000001	0.0	+	78	verb	list	3	3	nomatch	parader	-1	1	p	0.75757
741.2886	0.2	jwhm	78	verb	list	3	4	nomatch	parader	-1	1	p	0.75757
741.4885	0.0	+	78	verb	list	3	5	nomatch	parader	-1	1	p	0.75757
741.8883000000001	0.2	doit	78	verb	list	3	6	nomatch	parader	-1	1	p	0.75757
742.0882	0.0	+	78	verb	list	3	7	nomatch	parader	-1	1	p	0.75757
742.4881	0.2	petit	78	verb	list	3	8	nomatch	parader	-1	1	p	0.75757
742.688	0.0	+	78	verb	list	3	9	nomatch	parader	-1	1	p	0.75757
743.0878	0.2	patiner	78	verb	list	3	10	nomatch	parader	-1	1	p	0.75757
743.2877	0.0	+	78	verb	list	3	11	nomatch	parader	-1	1	p	0.75757
743.6877000000001	0.0	+	78	verb	list	3	12	nomatch	parader	-1	1	p	0.75757
745.6867	0.0	PARADER	78	verb	list	3	13	nomatch	parader	-1	1	p	0.75757
746.503	0.0	+	78	verb	list	3	14	nomatch	parader	-1	1	p	0.75757
746.4442	0.0	[response]	78	verb	list	3	15	nomatch	parader	-1	1	p	0.75757
748.0856	0.0	+	79	verb	phrase	4	1	nomatch	voyager	-1	1	p	0.66812
748.6353	0.2	rdwf	79	verb	phrase	4	2	nomatch	voyager	-1	1	p	0.66812
748.8353000000001	0.0	+	79	verb	phrase	4	3	nomatch	voyager	-1	1	p	0.66812
749.2352000000001	0.2	adam	79	verb	phrase	4	4	nomatch	voyager	-1	1	p	0.66812
749.4357	0.0	+	79	verb	phrase	4	5	nomatch	voyager	-1	1	p	0.66812
749.8352	0.2	va	79	verb	phrase	4	6	nomatch	voyager	-1	1	p	0.66812
750.0517	0.0	+	79	verb	phrase	4	7	nomatch	voyager	-1	1	p	0.66812
750.4353	0.2	plus	79	verb	phrase	4	8	nomatch	voyager	-1	1	p	0.66812
750.6345	0.0	+	79	verb	phrase	4	9	nomatch	voyager	-1	1	p	0.66812
751.0343	0.2	patiner	79	verb	phrase	4	10	nomatch	voyager	-1	1	p	0.66812
751.2342	0.0	+	79	verb	phrase	4	11	nomatch	voyager	-1	1	p	0.66812
751.634	0.0	+	79	verb	phrase	4	12	nomatch	voyager	-1	1	p	0.66812
753.6498	0.0	VOYAGER	79	verb	phrase	4	13	nomatch	voyager	-1	1	p	0.66812
754.4830000000001	0.0	+	79	verb	phrase	4	14	nomatch	voyager	-1	1	p	0.66812
754.3179	0.0	[response]	79	verb	phrase	4	15	nomatch	voyager	-1	1	p	0.66812
756.0487	0.0	+	80	verb	list	1	1	nomatch	parader	-1	1	p	0.50154
756.5985000000001	0.2	rwq	80	verb	list	1	2	nomatch	parader	-1	1	p	0.50154
756.7985	0.0	+	80	verb	list	1	3	nomatch	parader	-1	1	p	0.50154
757.1989	0.2	tgm	80	verb	list	1	4	nomatch	parader	-1	1	p	0.50154
757.4149	0.0	+	80	verb	list	1	5	nomatch	parader	-1	1	p	0.50154
757.7979	0.2	bxp	80	verb	list	1	6	nomatch	parader	-1	1	p	0.50154
757.9986	0.0	+	80	verb	list	1	7	nomatch	parader	-1	1	p	0.50154
758.3977	0.2	xfps	80	verb	list	1	8	nomatch	parader	-1	1	p	0.50154
758.5976	0.0	+	80	verb	list	1	9	nomatch	parader	-1	1	p	0.50154
758.9974	0.2	rouler	80	verb	list	1	10	nomatch	parader	-1	1	p	0.50154
759.1973	0.0	+	80	verb	list	1	11	nomatch	parader	-1	1	p	0.50154
759.5972	0.0	+	80	verb	list	1	12	nomatch	parader	-1	1	p	0.50154
761.5963	0.0	PARADER	80	verb	list	1	13	nomatch	parader	-1	1	p	0.50154
762.1627	0.0	+	80	verb	list	1	14	nomatch	parader	-1	1	p	0.50154
764.0452	0.0	+	80	verb	list	1	15	nomatch	parader	-1	1	p	0.50154
765.0616	0.0	+	80	verb	list	1	16	nomatch	parader	-1	1	p	0.50154
765.162	0.0	+	80	verb	list	1	17	nomatch	parader	-1	1	p	0.50154
766.5108	0.0	+	80	verb	list	1	18	nomatch	parader	-1	1	p	0.50154
766.6107000000001	0.0	+	80	verb	list	1	19	nomatch	parader	-1	1	p	0.50154
768.0101000000001	0.0	+	80	verb	list	1	20	nomatch	parader	-1	1	p	0.50154
768.1101	0.0	+	80	verb	list	1	21	nomatch	parader	-1	1	p	0.50154
769.5094	0.0	+	80	verb	list	1	22	nomatch	parader	-1	1	p	0.50154
769.6094	0.0	+	80	verb	list	1	23	nomatch	parader	-1	1	p	0.50154
771.0088000000001	0.0	+	80	verb	list	1	24	nomatch	parader	-1	1	p	0.50154
771.1087	0.0	+	80	verb	list	1	25	nomatch	parader	-1	1	p	0.50154
772.5081	0.0	+	80	verb	list	1	26	nomatch	parader	-1	1	p	0.50154
772.6081	0.0	+	80	verb	list	1	27	nomatch	parader	-1	1	p	0.50154
774.0074000000001	0.0	+	80	verb	list	1	28	nomatch	parader	-1	1	p	0.50154
774.1074	0.0	+	80	verb	list	1	29	nomatch	parader	-1	1	p	0.50154
775.5068	0.0	+	80	verb	list	1	30	nomatch	parader	-1	1	p	0.50154
775.6067	0.0	+	80	verb	list	1	31	nomatch	parader	-1	1	p	0.50154
777.0228000000001	0.0	+	80	verb	list	1	32	nomatch	parader	-1	1	p	0.50154
777.1227	0.0	+	80	verb	list	1	33	nomatch	parader	-1	1	p	0.50154
778.5055	0.0	+	80	verb	list	1	34	nomatch	parader	-1	1	p	0.50154
778.6054	0.0	+	80	verb	list	1	35	nomatch	parader	-1	1	p	0.50154
793.1656	0.0	+	80	verb	list	1	36	nomatch	parader	-1	1	p	0.50154
762.0978	0.0	[response]	80	verb	list	1	37	nomatch	parader	-1	1	p	0.50154
