onset	duration	stim	trial_number	trial_type	trial_structure	trial_length	sequential_position	probe_type	probe	probe_position	response_correct	response_key	response_time
0.056100000000000705	0.0	+	1	noun	phrase	2	1	match	cendrier	4	1	y	0.71178
0.5392999999999972	0.2	fmhnpqv	1	noun	phrase	2	2	match	cendrier	4	1	y	0.71178
0.7391999999999967	0.0	+	1	noun	phrase	2	3	match	cendrier	4	1	y	0.71178
1.1389999999999958	0.2	xqsw	1	noun	phrase	2	4	match	cendrier	4	1	y	0.71178
1.3389000000000024	0.0	+	1	noun	phrase	2	5	match	cendrier	4	1	y	0.71178
1.7387000000000015	0.2	fpzv	1	noun	phrase	2	6	match	cendrier	4	1	y	0.71178
1.938600000000001	0.0	+	1	noun	phrase	2	7	match	cendrier	4	1	y	0.71178
2.3384999999999962	0.2	cendrier	1	noun	phrase	2	8	match	cendrier	4	1	y	0.71178
2.5383999999999958	0.0	+	1	noun	phrase	2	9	match	cendrier	4	1	y	0.71178
2.938200000000002	0.2	bleu	1	noun	phrase	2	10	match	cendrier	4	1	y	0.71178
3.1381000000000014	0.0	+	1	noun	phrase	2	11	match	cendrier	4	1	y	0.71178
3.5379000000000005	0.0	+	1	noun	phrase	2	12	match	cendrier	4	1	y	0.71178
5.536999999999999	0.0	CENDRIER	1	noun	phrase	2	13	match	cendrier	4	1	y	0.71178
6.303399999999996	0.0	+	1	noun	phrase	2	14	match	cendrier	4	1	y	0.71178
6.248799999999996	0.0	[response]	1	noun	phrase	2	15	match	cendrier	4	1	y	0.71178
7.936	0.0	+	2	noun	list	4	1	nomatch	patiner	-1	1	p	0.72662
8.485700000000001	0.2	qsbd	2	noun	list	4	2	nomatch	patiner	-1	1	p	0.72662
8.685699999999997	0.0	+	2	noun	list	4	3	nomatch	patiner	-1	1	p	0.72662
9.085500000000003	0.2	vers	2	noun	list	4	4	nomatch	patiner	-1	1	p	0.72662
9.285999999999994	0.0	+	2	noun	list	4	5	nomatch	patiner	-1	1	p	0.72662
9.685499999999998	0.2	peut	2	noun	list	4	6	nomatch	patiner	-1	1	p	0.72662
9.885699999999993	0.0	+	2	noun	list	4	7	nomatch	patiner	-1	1	p	0.72662
10.285500000000006	0.2	sablier	2	noun	list	4	8	nomatch	patiner	-1	1	p	0.72662
10.485499999999995	0.0	+	2	noun	list	4	9	nomatch	patiner	-1	1	p	0.72662
10.884700000000002	0.2	ainsi	2	noun	list	4	10	nomatch	patiner	-1	1	p	0.72662
11.084600000000002	0.0	+	2	noun	list	4	11	nomatch	patiner	-1	1	p	0.72662
11.485099999999996	0.0	+	2	noun	list	4	12	nomatch	patiner	-1	1	p	0.72662
13.5002	0.0	PATINER	2	noun	list	4	13	nomatch	patiner	-1	1	p	0.72662
14.2832	0.0	+	2	noun	list	4	14	nomatch	patiner	-1	1	p	0.72662
14.226800000000004	0.0	[response]	2	noun	list	4	15	nomatch	patiner	-1	1	p	0.72662
15.899099999999997	0.0	+	3	noun	phrase	2	1	match	voilier	4	1	y	0.51539
16.448900000000002	0.2	dpzm	3	noun	phrase	2	2	match	voilier	4	1	y	0.51539
16.6488	0.0	+	3	noun	phrase	2	3	match	voilier	4	1	y	0.51539
17.0486	0.2	gbvz	3	noun	phrase	2	4	match	voilier	4	1	y	0.51539
17.2485	0.0	+	3	noun	phrase	2	5	match	voilier	4	1	y	0.51539
17.6483	0.2	jtp	3	noun	phrase	2	6	match	voilier	4	1	y	0.51539
17.848899999999993	0.0	+	3	noun	phrase	2	7	match	voilier	4	1	y	0.51539
18.248399999999997	0.2	voilier	3	noun	phrase	2	8	match	voilier	4	1	y	0.51539
18.448	0.0	+	3	noun	phrase	2	9	match	voilier	4	1	y	0.51539
18.8478	0.2	noir	3	noun	phrase	2	10	match	voilier	4	1	y	0.51539
19.0477	0.0	+	3	noun	phrase	2	11	match	voilier	4	1	y	0.51539
19.4476	0.0	+	3	noun	phrase	2	12	match	voilier	4	1	y	0.51539
21.4471	0.0	VOILIER	3	noun	phrase	2	13	match	voilier	4	1	y	0.51539
22.0297	0.0	+	3	noun	phrase	2	14	match	voilier	4	1	y	0.51539
21.9625	0.0	[response]	3	noun	phrase	2	15	match	voilier	4	1	y	0.51539
23.845599999999997	0.0	+	4	noun	list	1	1	match	vite	5	1	y	0.46496
24.395999999999994	0.2	zhrb	4	noun	list	1	2	match	vite	5	1	y	0.46496
24.5957	0.0	+	4	noun	list	1	3	match	vite	5	1	y	0.46496
24.9951	0.2	jwhm	4	noun	list	1	4	match	vite	5	1	y	0.46496
25.195	0.0	+	4	noun	list	1	5	match	vite	5	1	y	0.46496
25.5948	0.2	hdmf	4	noun	list	1	6	match	vite	5	1	y	0.46496
25.7947	0.0	+	4	noun	list	1	7	match	vite	5	1	y	0.46496
26.1946	0.2	dnjwxkhq	4	noun	list	1	8	match	vite	5	1	y	0.46496
26.3945	0.0	+	4	noun	list	1	9	match	vite	5	1	y	0.46496
26.7943	0.2	vite	4	noun	list	1	10	match	vite	5	1	y	0.46496
26.9942	0.0	+	4	noun	list	1	11	match	vite	5	1	y	0.46496
27.394	0.0	+	4	noun	list	1	12	match	vite	5	1	y	0.46496
29.393700000000003	0.0	VITE	4	noun	list	1	13	match	vite	5	1	y	0.46496
29.9262	0.0	+	4	noun	list	1	14	match	vite	5	1	y	0.46496
29.858600000000003	0.0	[response]	4	noun	list	1	15	match	vite	5	1	y	0.46496
31.792099999999998	0.0	+	5	noun	phrase	4	1	match	beau	4	1	y	0.57955
32.3418	0.2	kvpx	5	noun	phrase	4	2	match	beau	4	1	y	0.57955
32.5418	0.0	+	5	noun	phrase	4	3	match	beau	4	1	y	0.57955
32.9416	0.2	avec	5	noun	phrase	4	4	match	beau	4	1	y	0.57955
33.1415	0.0	+	5	noun	phrase	4	5	match	beau	4	1	y	0.57955
33.541999999999994	0.2	mon	5	noun	phrase	4	6	match	beau	4	1	y	0.57955
33.741400000000006	0.0	+	5	noun	phrase	4	7	match	beau	4	1	y	0.57955
34.1415	0.2	beau	5	noun	phrase	4	8	match	beau	4	1	y	0.57955
34.34119999999999	0.0	+	5	noun	phrase	4	9	match	beau	4	1	y	0.57955
34.7408	0.2	sablier	5	noun	phrase	4	10	match	beau	4	1	y	0.57955
34.9407	0.0	+	5	noun	phrase	4	11	match	beau	4	1	y	0.57955
35.3405	0.0	+	5	noun	phrase	4	12	match	beau	4	1	y	0.57955
37.339800000000004	0.0	BEAU	5	noun	phrase	4	13	match	beau	4	1	y	0.57955
37.972699999999996	0.0	+	5	noun	phrase	4	14	match	beau	4	1	y	0.57955
37.9194	0.0	[response]	5	noun	phrase	4	15	match	beau	4	1	y	0.57955
39.7386	0.0	+	6	noun	list	1	1	nomatch	beaucoup	-1	1	p	1.4137000000000002
40.2883	0.2	fgskjdv	6	noun	list	1	2	nomatch	beaucoup	-1	1	p	1.4137000000000002
40.4887	0.0	+	6	noun	list	1	3	nomatch	beaucoup	-1	1	p	1.4137000000000002
40.8881	0.2	sndq	6	noun	list	1	4	nomatch	beaucoup	-1	1	p	1.4137000000000002
41.088100000000004	0.0	+	6	noun	list	1	5	nomatch	beaucoup	-1	1	p	1.4137000000000002
41.4883	0.2	bxp	6	noun	list	1	6	nomatch	beaucoup	-1	1	p	1.4137000000000002
41.705000000000005	0.0	+	6	noun	list	1	7	nomatch	beaucoup	-1	1	p	1.4137000000000002
42.1046	0.2	jtwlzxs	6	noun	list	1	8	nomatch	beaucoup	-1	1	p	1.4137000000000002
42.288000000000004	0.0	+	6	noun	list	1	9	nomatch	beaucoup	-1	1	p	1.4137000000000002
42.6873	0.2	mieux	6	noun	list	1	10	nomatch	beaucoup	-1	1	p	1.4137000000000002
42.88739999999999	0.0	+	6	noun	list	1	11	nomatch	beaucoup	-1	1	p	1.4137000000000002
43.287	0.0	+	6	noun	list	1	12	nomatch	beaucoup	-1	1	p	1.4137000000000002
45.28679999999999	0.0	BEAUCOUP	6	noun	list	1	13	nomatch	beaucoup	-1	1	p	1.4137000000000002
46.752100000000006	0.0	+	6	noun	list	1	14	nomatch	beaucoup	-1	1	p	1.4137000000000002
46.7005	0.0	[response]	6	noun	list	1	15	nomatch	beaucoup	-1	1	p	1.4137000000000002
47.684999999999995	0.0	+	7	noun	phrase	3	1	nomatch	bleu	-1	1	p	0.66797
48.2348	0.2	wshcf	7	noun	phrase	3	2	nomatch	bleu	-1	1	p	0.66797
48.4347	0.0	+	7	noun	phrase	3	3	nomatch	bleu	-1	1	p	0.66797
48.8345	0.2	gbvz	7	noun	phrase	3	4	nomatch	bleu	-1	1	p	0.66797
49.0345	0.0	+	7	noun	phrase	3	5	nomatch	bleu	-1	1	p	0.66797
49.4343	0.2	son	7	noun	phrase	3	6	nomatch	bleu	-1	1	p	0.66797
49.6342	0.0	+	7	noun	phrase	3	7	nomatch	bleu	-1	1	p	0.66797
50.0345	0.2	beau	7	noun	phrase	3	8	nomatch	bleu	-1	1	p	0.66797
50.2343	0.0	+	7	noun	phrase	3	9	nomatch	bleu	-1	1	p	0.66797
50.6338	0.2	grenier	7	noun	phrase	3	10	nomatch	bleu	-1	1	p	0.66797
50.834300000000006	0.0	+	7	noun	phrase	3	11	nomatch	bleu	-1	1	p	0.66797
51.250800000000005	0.0	+	7	noun	phrase	3	12	nomatch	bleu	-1	1	p	0.66797
53.249199999999995	0.0	BLEU	7	noun	phrase	3	13	nomatch	bleu	-1	1	p	0.66797
53.999599999999994	0.0	+	7	noun	phrase	3	14	nomatch	bleu	-1	1	p	0.66797
53.9172	0.0	[response]	7	noun	phrase	3	15	nomatch	bleu	-1	1	p	0.66797
55.648199999999996	0.0	+	8	noun	phrase	1	1	match	beau	5	1	y	0.48939
56.1979	0.2	rzlknp	8	noun	phrase	1	2	match	beau	5	1	y	0.48939
56.3979	0.0	+	8	noun	phrase	1	3	match	beau	5	1	y	0.48939
56.7977	0.2	xqsw	8	noun	phrase	1	4	match	beau	5	1	y	0.48939
56.9976	0.0	+	8	noun	phrase	1	5	match	beau	5	1	y	0.48939
57.3978	0.2	jtp	8	noun	phrase	1	6	match	beau	5	1	y	0.48939
57.5979	0.0	+	8	noun	phrase	1	7	match	beau	5	1	y	0.48939
57.997800000000005	0.2	wgqslkf	8	noun	phrase	1	8	match	beau	5	1	y	0.48939
58.1971	0.0	+	8	noun	phrase	1	9	match	beau	5	1	y	0.48939
58.5969	0.2	beau	8	noun	phrase	1	10	match	beau	5	1	y	0.48939
58.7968	0.0	+	8	noun	phrase	1	11	match	beau	5	1	y	0.48939
59.1966	0.0	+	8	noun	phrase	1	12	match	beau	5	1	y	0.48939
61.195699999999995	0.0	BEAU	8	noun	phrase	1	13	match	beau	5	1	y	0.48939
61.796200000000006	0.0	+	8	noun	phrase	1	14	match	beau	5	1	y	0.48939
61.68510000000001	0.0	[response]	8	noun	phrase	1	15	match	beau	5	1	y	0.48939
63.594699999999996	0.0	+	9	noun	list	3	1	match	casier	5	1	y	0.84097
64.14500000000001	0.2	mvqhpk	9	noun	list	3	2	match	casier	5	1	y	0.84097
64.34469999999999	0.0	+	9	noun	list	3	3	match	casier	5	1	y	0.84097
64.74449999999999	0.2	xgsj	9	noun	list	3	4	match	casier	5	1	y	0.84097
64.94479999999999	0.0	+	9	noun	list	3	5	match	casier	5	1	y	0.84097
65.3443	0.2	leur	9	noun	list	3	6	match	casier	5	1	y	0.84097
65.5438	0.0	+	9	noun	list	3	7	match	casier	5	1	y	0.84097
65.9436	0.2	mieux	9	noun	list	3	8	match	casier	5	1	y	0.84097
66.14349999999999	0.0	+	9	noun	list	3	9	match	casier	5	1	y	0.84097
66.54339999999999	0.2	casier	9	noun	list	3	10	match	casier	5	1	y	0.84097
66.7433	0.0	+	9	noun	list	3	11	match	casier	5	1	y	0.84097
67.1431	0.0	+	9	noun	list	3	12	match	casier	5	1	y	0.84097
69.1422	0.0	CASIER	9	noun	list	3	13	match	casier	5	1	y	0.84097
70.0418	0.0	+	9	noun	list	3	14	match	casier	5	1	y	0.84097
69.98320000000001	0.0	[response]	9	noun	list	3	15	match	casier	5	1	y	0.84097
71.5411	0.0	+	10	noun	list	3	1	match	ainsi	5	1	y	0.6148000000000001
72.0909	0.2	fhj	10	noun	list	3	2	match	ainsi	5	1	y	0.6148000000000001
72.29079999999999	0.0	+	10	noun	list	3	3	match	ainsi	5	1	y	0.6148000000000001
72.69069999999999	0.2	jwhm	10	noun	list	3	4	match	ainsi	5	1	y	0.6148000000000001
72.8906	0.0	+	10	noun	list	3	5	match	ainsi	5	1	y	0.6148000000000001
73.29050000000001	0.2	doit	10	noun	list	3	6	match	ainsi	5	1	y	0.6148000000000001
73.49030000000002	0.0	+	10	noun	list	3	7	match	ainsi	5	1	y	0.6148000000000001
73.8906	0.2	casier	10	noun	list	3	8	match	ainsi	5	1	y	0.6148000000000001
74.0907	0.0	+	10	noun	list	3	9	match	ainsi	5	1	y	0.6148000000000001
74.50720000000001	0.2	ainsi	10	noun	list	3	10	match	ainsi	5	1	y	0.6148000000000001
74.68980000000002	0.0	+	10	noun	list	3	11	match	ainsi	5	1	y	0.6148000000000001
75.08960000000002	0.0	+	10	noun	list	3	12	match	ainsi	5	1	y	0.6148000000000001
77.08870000000002	0.0	AINSI	10	noun	list	3	13	match	ainsi	5	1	y	0.6148000000000001
77.7551	0.0	+	10	noun	list	3	14	match	ainsi	5	1	y	0.6148000000000001
77.70350000000002	0.0	[response]	10	noun	list	3	15	match	ainsi	5	1	y	0.6148000000000001
79.48760000000001	0.0	+	11	noun	list	2	1	match	voilier	5	1	y	0.55728
80.03740000000002	0.2	jwlc	11	noun	list	2	2	match	voilier	5	1	y	0.55728
80.2373	0.0	+	11	noun	list	2	3	match	voilier	5	1	y	0.55728
80.6371	0.2	nqwz	11	noun	list	2	4	match	voilier	5	1	y	0.55728
80.83700000000002	0.0	+	11	noun	list	2	5	match	voilier	5	1	y	0.55728
81.23690000000002	0.2	jtp	11	noun	list	2	6	match	voilier	5	1	y	0.55728
81.4368	0.0	+	11	noun	list	2	7	match	voilier	5	1	y	0.55728
81.83670000000001	0.2	moins	11	noun	list	2	8	match	voilier	5	1	y	0.55728
82.03710000000001	0.0	+	11	noun	list	2	9	match	voilier	5	1	y	0.55728
82.43630000000002	0.2	voilier	11	noun	list	2	10	match	voilier	5	1	y	0.55728
82.6362	0.0	+	11	noun	list	2	11	match	voilier	5	1	y	0.55728
83.0361	0.0	+	11	noun	list	2	12	match	voilier	5	1	y	0.55728
85.03570000000002	0.0	VOILIER	11	noun	list	2	13	match	voilier	5	1	y	0.55728
85.78540000000001	0.0	+	11	noun	list	2	14	match	voilier	5	1	y	0.55728
85.59300000000002	0.0	[response]	11	noun	list	2	15	match	voilier	5	1	y	0.55728
87.4341	0.0	+	12	noun	list	4	1	nomatch	va	-1	1	p	0.62351
87.9839	0.2	npgbql	12	noun	list	4	2	nomatch	va	-1	1	p	0.62351
88.18380000000002	0.0	+	12	noun	list	4	3	nomatch	va	-1	1	p	0.62351
88.6003	0.2	sur	12	noun	list	4	4	nomatch	va	-1	1	p	0.62351
88.78380000000001	0.0	+	12	noun	list	4	5	nomatch	va	-1	1	p	0.62351
89.20000000000002	0.2	doit	12	noun	list	4	6	nomatch	va	-1	1	p	0.62351
89.3999	0.0	+	12	noun	list	4	7	nomatch	va	-1	1	p	0.62351
89.80020000000002	0.2	tablier	12	noun	list	4	8	nomatch	va	-1	1	p	0.62351
90.0	0.0	+	12	noun	list	4	9	nomatch	va	-1	1	p	0.62351
90.39950000000002	0.2	tard	12	noun	list	4	10	nomatch	va	-1	1	p	0.62351
90.6	0.0	+	12	noun	list	4	11	nomatch	va	-1	1	p	0.62351
90.9992	0.0	+	12	noun	list	4	12	nomatch	va	-1	1	p	0.62351
92.9983	0.0	VA	12	noun	list	4	13	nomatch	va	-1	1	p	0.62351
93.6814	0.0	+	12	noun	list	4	14	nomatch	va	-1	1	p	0.62351
93.62180000000001	0.0	[response]	12	noun	list	4	15	nomatch	va	-1	1	p	0.62351
95.3973	0.0	+	13	noun	list	4	1	match	sablier	5	1	y	0.49183
95.947	0.2	cwzf	13	noun	list	4	2	match	sablier	5	1	y	0.49183
96.14690000000002	0.0	+	13	noun	list	4	3	match	sablier	5	1	y	0.49183
96.54670000000002	0.2	yves	13	noun	list	4	4	match	sablier	5	1	y	0.49183
96.7467	0.0	+	13	noun	list	4	5	match	sablier	5	1	y	0.49183
97.1472	0.2	leur	13	noun	list	4	6	match	sablier	5	1	y	0.49183
97.3469	0.0	+	13	noun	list	4	7	match	sablier	5	1	y	0.49183
97.7465	0.2	beaucoup	13	noun	list	4	8	match	sablier	5	1	y	0.49183
97.96350000000001	0.0	+	13	noun	list	4	9	match	sablier	5	1	y	0.49183
98.34640000000002	0.2	sablier	13	noun	list	4	10	match	sablier	5	1	y	0.49183
98.54660000000001	0.0	+	13	noun	list	4	11	match	sablier	5	1	y	0.49183
98.94570000000002	0.0	+	13	noun	list	4	12	match	sablier	5	1	y	0.49183
100.94480000000001	0.0	SABLIER	13	noun	list	4	13	match	sablier	5	1	y	0.49183
101.49460000000002	0.0	+	13	noun	list	4	14	match	sablier	5	1	y	0.49183
101.43660000000003	0.0	[response]	13	noun	list	4	15	match	sablier	5	1	y	0.49183
103.34370000000001	0.0	+	14	noun	list	1	1	nomatch	sans	-1	1	p	0.51644
103.89350000000002	0.2	dkftwsh	14	noun	list	1	2	nomatch	sans	-1	1	p	0.51644
104.0934	0.0	+	14	noun	list	1	3	nomatch	sans	-1	1	p	0.51644
104.4932	0.2	xqsw	14	noun	list	1	4	nomatch	sans	-1	1	p	0.51644
104.69310000000002	0.0	+	14	noun	list	1	5	nomatch	sans	-1	1	p	0.51644
105.09300000000002	0.2	hdmf	14	noun	list	1	6	nomatch	sans	-1	1	p	0.51644
105.2929	0.0	+	14	noun	list	1	7	nomatch	sans	-1	1	p	0.51644
105.6927	0.2	mlfjvkp	14	noun	list	1	8	nomatch	sans	-1	1	p	0.51644
105.89260000000002	0.0	+	14	noun	list	1	9	nomatch	sans	-1	1	p	0.51644
106.2926	0.2	loin	14	noun	list	1	10	nomatch	sans	-1	1	p	0.51644
106.49290000000002	0.0	+	14	noun	list	1	11	nomatch	sans	-1	1	p	0.51644
106.8923	0.0	+	14	noun	list	1	12	nomatch	sans	-1	1	p	0.51644
108.89170000000001	0.0	SANS	14	noun	list	1	13	nomatch	sans	-1	1	p	0.51644
109.5411	0.0	+	14	noun	list	1	14	nomatch	sans	-1	1	p	0.51644
109.40810000000002	0.0	[response]	14	noun	list	1	15	nomatch	sans	-1	1	p	0.51644
119.2869	0.0	+	15	noun	list	1	1	match	beaucoup	5	1	y	0.62206
119.8364	0.2	txlhp	15	noun	list	1	2	match	beaucoup	5	1	y	0.62206
120.03640000000001	0.0	+	15	noun	list	1	3	match	beaucoup	5	1	y	0.62206
120.4368	0.2	fnth	15	noun	list	1	4	match	beaucoup	5	1	y	0.62206
120.63660000000002	0.0	+	15	noun	list	1	5	match	beaucoup	5	1	y	0.62206
121.03630000000001	0.2	bxp	15	noun	list	1	6	match	beaucoup	5	1	y	0.62206
121.2361	0.0	+	15	noun	list	1	7	match	beaucoup	5	1	y	0.62206
121.63589999999999	0.2	mlfjvkp	15	noun	list	1	8	match	beaucoup	5	1	y	0.62206
121.8356	0.0	+	15	noun	list	1	9	match	beaucoup	5	1	y	0.62206
122.2354	0.2	beaucoup	15	noun	list	1	10	match	beaucoup	5	1	y	0.62206
122.43530000000001	0.0	+	15	noun	list	1	11	match	beaucoup	5	1	y	0.62206
122.83510000000001	0.0	+	15	noun	list	1	12	match	beaucoup	5	1	y	0.62206
124.83420000000001	0.0	BEAUCOUP	15	noun	list	1	13	match	beaucoup	5	1	y	0.62206
125.6012	0.0	+	15	noun	list	1	14	match	beaucoup	5	1	y	0.62206
125.4563	0.0	[response]	15	noun	list	1	15	match	beaucoup	5	1	y	0.62206
127.2501	0.0	+	16	noun	phrase	1	1	match	rouge	5	1	y	0.43863
127.7996	0.2	cvsz	16	noun	phrase	1	2	match	rouge	5	1	y	0.43863
127.99950000000001	0.0	+	16	noun	phrase	1	3	match	rouge	5	1	y	0.43863
128.39950000000002	0.2	xqsw	16	noun	phrase	1	4	match	rouge	5	1	y	0.43863
128.59980000000002	0.0	+	16	noun	phrase	1	5	match	rouge	5	1	y	0.43863
129.0157	0.2	jtp	16	noun	phrase	1	6	match	rouge	5	1	y	0.43863
129.19910000000002	0.0	+	16	noun	phrase	1	7	match	rouge	5	1	y	0.43863
129.5988	0.2	dnjwxkhq	16	noun	phrase	1	8	match	rouge	5	1	y	0.43863
129.7987	0.0	+	16	noun	phrase	1	9	match	rouge	5	1	y	0.43863
130.1985	0.2	rouge	16	noun	phrase	1	10	match	rouge	5	1	y	0.43863
130.3984	0.0	+	16	noun	phrase	1	11	match	rouge	5	1	y	0.43863
130.7983	0.0	+	16	noun	phrase	1	12	match	rouge	5	1	y	0.43863
132.7978	0.0	ROUGE	16	noun	phrase	1	13	match	rouge	5	1	y	0.43863
133.2972	0.0	+	16	noun	phrase	1	14	match	rouge	5	1	y	0.43863
133.2364	0.0	[response]	16	noun	phrase	1	15	match	rouge	5	1	y	0.43863
143.1928	0.0	+	17	noun	list	1	1	nomatch	paul	-1	1	p	0.7132
143.7425	0.2	znqhvj	17	noun	list	1	2	nomatch	paul	-1	1	p	0.7132
143.9424	0.0	+	17	noun	list	1	3	nomatch	paul	-1	1	p	0.7132
144.3423	0.2	mqlx	17	noun	list	1	4	nomatch	paul	-1	1	p	0.7132
144.5422	0.0	+	17	noun	list	1	5	nomatch	paul	-1	1	p	0.7132
144.942	0.2	fpzv	17	noun	list	1	6	nomatch	paul	-1	1	p	0.7132
145.1419	0.0	+	17	noun	list	1	7	nomatch	paul	-1	1	p	0.7132
145.54170000000002	0.2	lznbr	17	noun	list	1	8	nomatch	paul	-1	1	p	0.7132
145.7416	0.0	+	17	noun	list	1	9	nomatch	paul	-1	1	p	0.7132
146.1415	0.2	tablier	17	noun	list	1	10	nomatch	paul	-1	1	p	0.7132
146.3414	0.0	+	17	noun	list	1	11	nomatch	paul	-1	1	p	0.7132
146.74190000000002	0.0	+	17	noun	list	1	12	nomatch	paul	-1	1	p	0.7132
148.74030000000002	0.0	PAUL	17	noun	list	1	13	nomatch	paul	-1	1	p	0.7132
149.50660000000002	0.0	+	17	noun	list	1	14	nomatch	paul	-1	1	p	0.7132
149.45350000000002	0.0	[response]	17	noun	list	1	15	nomatch	paul	-1	1	p	0.7132
151.13920000000002	0.0	+	18	noun	phrase	1	1	nomatch	vieux	-1	1	p	0.53737
151.689	0.2	gwvn	18	noun	phrase	1	2	nomatch	vieux	-1	1	p	0.53737
151.8889	0.0	+	18	noun	phrase	1	3	nomatch	vieux	-1	1	p	0.53737
152.2887	0.2	xwtz	18	noun	phrase	1	4	nomatch	vieux	-1	1	p	0.53737
152.4887	0.0	+	18	noun	phrase	1	5	nomatch	vieux	-1	1	p	0.53737
152.90540000000001	0.2	fpzv	18	noun	phrase	1	6	nomatch	vieux	-1	1	p	0.53737
153.0885	0.0	+	18	noun	phrase	1	7	nomatch	vieux	-1	1	p	0.53737
153.4882	0.2	frqlpb	18	noun	phrase	1	8	nomatch	vieux	-1	1	p	0.53737
153.68810000000002	0.0	+	18	noun	phrase	1	9	nomatch	vieux	-1	1	p	0.53737
154.08790000000002	0.2	blanc	18	noun	phrase	1	10	nomatch	vieux	-1	1	p	0.53737
154.2879	0.0	+	18	noun	phrase	1	11	nomatch	vieux	-1	1	p	0.53737
154.6877	0.0	+	18	noun	phrase	1	12	nomatch	vieux	-1	1	p	0.53737
156.68710000000002	0.0	VIEUX	18	noun	phrase	1	13	nomatch	vieux	-1	1	p	0.53737
157.28650000000002	0.0	+	18	noun	phrase	1	14	nomatch	vieux	-1	1	p	0.53737
157.2245	0.0	[response]	18	noun	phrase	1	15	nomatch	vieux	-1	1	p	0.53737
159.1029	0.0	+	19	noun	list	1	1	match	casier	5	1	y	0.46991
159.636	0.2	fnzhsbd	19	noun	list	1	2	match	casier	5	1	y	0.46991
159.83610000000002	0.0	+	19	noun	list	1	3	match	casier	5	1	y	0.46991
160.25230000000002	0.2	fnth	19	noun	list	1	4	match	casier	5	1	y	0.46991
160.4351	0.0	+	19	noun	list	1	5	match	casier	5	1	y	0.46991
160.835	0.2	bxp	19	noun	list	1	6	match	casier	5	1	y	0.46991
161.0349	0.0	+	19	noun	list	1	7	match	casier	5	1	y	0.46991
161.4347	0.2	sjwq	19	noun	list	1	8	match	casier	5	1	y	0.46991
161.6346	0.0	+	19	noun	list	1	9	match	casier	5	1	y	0.46991
162.0344	0.2	casier	19	noun	list	1	10	match	casier	5	1	y	0.46991
162.23430000000002	0.0	+	19	noun	list	1	11	match	casier	5	1	y	0.46991
162.6342	0.0	+	19	noun	list	1	12	match	casier	5	1	y	0.46991
164.6499	0.0	CASIER	19	noun	list	1	13	match	casier	5	1	y	0.46991
165.183	0.0	+	19	noun	list	1	14	match	casier	5	1	y	0.46991
165.1198	0.0	[response]	19	noun	list	1	15	match	casier	5	1	y	0.46991
167.0489	0.0	+	20	noun	list	1	1	nomatch	parader	-1	1	p	0.59669
167.5986	0.2	whf	20	noun	list	1	2	nomatch	parader	-1	1	p	0.59669
167.79850000000002	0.0	+	20	noun	list	1	3	nomatch	parader	-1	1	p	0.59669
168.1984	0.2	gbvz	20	noun	list	1	4	nomatch	parader	-1	1	p	0.59669
168.3983	0.0	+	20	noun	list	1	5	nomatch	parader	-1	1	p	0.59669
168.7981	0.2	xl	20	noun	list	1	6	nomatch	parader	-1	1	p	0.59669
168.9983	0.0	+	20	noun	list	1	7	nomatch	parader	-1	1	p	0.59669
169.3985	0.2	cdzgf	20	noun	list	1	8	nomatch	parader	-1	1	p	0.59669
169.5977	0.0	+	20	noun	list	1	9	nomatch	parader	-1	1	p	0.59669
169.9976	0.2	boîtier	20	noun	list	1	10	nomatch	parader	-1	1	p	0.59669
170.19750000000002	0.0	+	20	noun	list	1	11	nomatch	parader	-1	1	p	0.59669
170.59730000000002	0.0	+	20	noun	list	1	12	nomatch	parader	-1	1	p	0.59669
172.59640000000002	0.0	PARADER	20	noun	list	1	13	nomatch	parader	-1	1	p	0.59669
173.2461	0.0	+	20	noun	list	1	14	nomatch	parader	-1	1	p	0.59669
173.19310000000002	0.0	[response]	20	noun	list	1	15	nomatch	parader	-1	1	p	0.59669
174.99530000000001	0.0	+	21	noun	list	2	1	match	trop	4	0	p	0.48322
175.54510000000002	0.2	nqrvsbz	21	noun	list	2	2	match	trop	4	0	p	0.48322
175.745	0.0	+	21	noun	list	2	3	match	trop	4	0	p	0.48322
176.1451	0.2	sndq	21	noun	list	2	4	match	trop	4	0	p	0.48322
176.3451	0.0	+	21	noun	list	2	5	match	trop	4	0	p	0.48322
176.74460000000002	0.2	jtp	21	noun	list	2	6	match	trop	4	0	p	0.48322
176.9445	0.0	+	21	noun	list	2	7	match	trop	4	0	p	0.48322
177.3443	0.2	trop	21	noun	list	2	8	match	trop	4	0	p	0.48322
177.54420000000002	0.0	+	21	noun	list	2	9	match	trop	4	0	p	0.48322
177.94400000000002	0.2	cendrier	21	noun	list	2	10	match	trop	4	0	p	0.48322
178.144	0.0	+	21	noun	list	2	11	match	trop	4	0	p	0.48322
178.5438	0.0	+	21	noun	list	2	12	match	trop	4	0	p	0.48322
180.5429	0.0	TROP	21	noun	list	2	13	match	trop	4	0	p	0.48322
181.0926	0.0	+	21	noun	list	2	14	match	trop	4	0	p	0.48322
181.0261	0.0	[response]	21	noun	list	2	15	match	trop	4	0	p	0.48322
182.9418	0.0	+	22	noun	list	3	1	match	tablier	5	1	y	0.57005
183.4916	0.2	czpshr	22	noun	list	3	2	match	tablier	5	1	y	0.57005
183.69150000000002	0.0	+	22	noun	list	3	3	match	tablier	5	1	y	0.57005
184.09130000000002	0.2	fnth	22	noun	list	3	4	match	tablier	5	1	y	0.57005
184.2912	0.0	+	22	noun	list	3	5	match	tablier	5	1	y	0.57005
184.6916	0.2	mon	22	noun	list	3	6	match	tablier	5	1	y	0.57005
184.90800000000002	0.0	+	22	noun	list	3	7	match	tablier	5	1	y	0.57005
185.2915	0.2	moins	22	noun	list	3	8	match	tablier	5	1	y	0.57005
185.5081	0.0	+	22	noun	list	3	9	match	tablier	5	1	y	0.57005
185.8905	0.2	tablier	22	noun	list	3	10	match	tablier	5	1	y	0.57005
186.09040000000002	0.0	+	22	noun	list	3	11	match	tablier	5	1	y	0.57005
186.49030000000002	0.0	+	22	noun	list	3	12	match	tablier	5	1	y	0.57005
188.48940000000002	0.0	TABLIER	22	noun	list	3	13	match	tablier	5	1	y	0.57005
189.1224	0.0	+	22	noun	list	3	14	match	tablier	5	1	y	0.57005
189.0594	0.0	[response]	22	noun	list	3	15	match	tablier	5	1	y	0.57005
190.88830000000002	0.0	+	23	noun	phrase	1	1	match	bleu	5	1	y	0.76905
191.43810000000002	0.2	xjktw	23	noun	phrase	1	2	match	bleu	5	1	y	0.76905
191.638	0.0	+	23	noun	phrase	1	3	match	bleu	5	1	y	0.76905
192.0378	0.2	dztj	23	noun	phrase	1	4	match	bleu	5	1	y	0.76905
192.2383	0.0	+	23	noun	phrase	1	5	match	bleu	5	1	y	0.76905
192.6377	0.2	bxp	23	noun	phrase	1	6	match	bleu	5	1	y	0.76905
192.8376	0.0	+	23	noun	phrase	1	7	match	bleu	5	1	y	0.76905
193.2545	0.2	mlfjvkp	23	noun	phrase	1	8	match	bleu	5	1	y	0.76905
193.4377	0.0	+	23	noun	phrase	1	9	match	bleu	5	1	y	0.76905
193.83700000000002	0.2	bleu	23	noun	phrase	1	10	match	bleu	5	1	y	0.76905
194.0369	0.0	+	23	noun	phrase	1	11	match	bleu	5	1	y	0.76905
194.4367	0.0	+	23	noun	phrase	1	12	match	bleu	5	1	y	0.76905
196.4362	0.0	BLEU	23	noun	phrase	1	13	match	bleu	5	1	y	0.76905
197.2688	0.0	+	23	noun	phrase	1	14	match	bleu	5	1	y	0.76905
197.2053	0.0	[response]	23	noun	phrase	1	15	match	bleu	5	1	y	0.76905
198.8348	0.0	+	24	noun	phrase	3	1	match	leur	3	1	y	0.55786
199.4013	0.2	qjb	24	noun	phrase	3	2	match	leur	3	1	y	0.55786
199.6018	0.0	+	24	noun	phrase	3	3	match	leur	3	1	y	0.55786
200.00130000000001	0.2	xwtz	24	noun	phrase	3	4	match	leur	3	1	y	0.55786
200.1843	0.0	+	24	noun	phrase	3	5	match	leur	3	1	y	0.55786
200.584	0.2	leur	24	noun	phrase	3	6	match	leur	3	1	y	0.55786
200.78390000000002	0.0	+	24	noun	phrase	3	7	match	leur	3	1	y	0.55786
201.18370000000002	0.2	beau	24	noun	phrase	3	8	match	leur	3	1	y	0.55786
201.3837	0.0	+	24	noun	phrase	3	9	match	leur	3	1	y	0.55786
201.80010000000001	0.2	voilier	24	noun	phrase	3	10	match	leur	3	1	y	0.55786
202.0001	0.0	+	24	noun	phrase	3	11	match	leur	3	1	y	0.55786
202.39990000000003	0.0	+	24	noun	phrase	3	12	match	leur	3	1	y	0.55786
204.39900000000003	0.0	LEUR	24	noun	phrase	3	13	match	leur	3	1	y	0.55786
205.01540000000003	0.0	+	24	noun	phrase	3	14	match	leur	3	1	y	0.55786
204.9569	0.0	[response]	24	noun	phrase	3	15	match	leur	3	1	y	0.55786
206.7979	0.0	+	25	noun	phrase	2	1	nomatch	noir	-1	1	p	0.58443
207.3477	0.2	nqgbl	25	noun	phrase	2	2	nomatch	noir	-1	1	p	0.58443
207.54760000000002	0.0	+	25	noun	phrase	2	3	nomatch	noir	-1	1	p	0.58443
207.9474	0.2	scgn	25	noun	phrase	2	4	nomatch	noir	-1	1	p	0.58443
208.1473	0.0	+	25	noun	phrase	2	5	nomatch	noir	-1	1	p	0.58443
208.5642	0.2	jtp	25	noun	phrase	2	6	nomatch	noir	-1	1	p	0.58443
208.74750000000003	0.0	+	25	noun	phrase	2	7	nomatch	noir	-1	1	p	0.58443
209.14740000000003	0.2	casier	25	noun	phrase	2	8	nomatch	noir	-1	1	p	0.58443
209.34720000000002	0.0	+	25	noun	phrase	2	9	nomatch	noir	-1	1	p	0.58443
209.74660000000003	0.2	blanc	25	noun	phrase	2	10	nomatch	noir	-1	1	p	0.58443
209.9465	0.0	+	25	noun	phrase	2	11	nomatch	noir	-1	1	p	0.58443
210.3464	0.0	+	25	noun	phrase	2	12	nomatch	noir	-1	1	p	0.58443
212.3455	0.0	NOIR	25	noun	phrase	2	13	nomatch	noir	-1	1	p	0.58443
212.99519999999998	0.0	+	25	noun	phrase	2	14	nomatch	noir	-1	1	p	0.58443
212.92990000000006	0.0	[response]	25	noun	phrase	2	15	nomatch	noir	-1	1	p	0.58443
214.7444	0.0	+	26	noun	phrase	3	1	match	vieux	4	1	y	0.6833900000000002
215.29420000000002	0.2	xmgjfq	26	noun	phrase	3	2	match	vieux	4	1	y	0.6833900000000002
215.49410000000003	0.0	+	26	noun	phrase	3	3	match	vieux	4	1	y	0.6833900000000002
215.8939	0.2	xwtz	26	noun	phrase	3	4	match	vieux	4	1	y	0.6833900000000002
216.09380000000002	0.0	+	26	noun	phrase	3	5	match	vieux	4	1	y	0.6833900000000002
216.4936	0.2	mon	26	noun	phrase	3	6	match	vieux	4	1	y	0.6833900000000002
216.69360000000003	0.0	+	26	noun	phrase	3	7	match	vieux	4	1	y	0.6833900000000002
217.0934	0.2	vieux	26	noun	phrase	3	8	match	vieux	4	1	y	0.6833900000000002
217.29330000000002	0.0	+	26	noun	phrase	3	9	match	vieux	4	1	y	0.6833900000000002
217.69379999999998	0.2	rocher	26	noun	phrase	3	10	match	vieux	4	1	y	0.6833900000000002
217.8934	0.0	+	26	noun	phrase	3	11	match	vieux	4	1	y	0.6833900000000002
218.2936	0.0	+	26	noun	phrase	3	12	match	vieux	4	1	y	0.6833900000000002
220.292	0.0	VIEUX	26	noun	phrase	3	13	match	vieux	4	1	y	0.6833900000000002
221.0416	0.0	+	26	noun	phrase	3	14	match	vieux	4	1	y	0.6833900000000002
220.9754	0.0	[response]	26	noun	phrase	3	15	match	vieux	4	1	y	0.6833900000000002
230.6874	0.0	+	27	noun	phrase	2	1	match	cendrier	5	1	y	0.59318
231.23710000000003	0.2	ptsvlz	27	noun	phrase	2	2	match	cendrier	5	1	y	0.59318
231.4372	0.0	+	27	noun	phrase	2	3	match	cendrier	5	1	y	0.59318
231.83759999999998	0.2	jwhm	27	noun	phrase	2	4	match	cendrier	5	1	y	0.59318
232.0375	0.0	+	27	noun	phrase	2	5	match	cendrier	5	1	y	0.59318
232.4369	0.2	bxp	27	noun	phrase	2	6	match	cendrier	5	1	y	0.59318
232.63660000000002	0.0	+	27	noun	phrase	2	7	match	cendrier	5	1	y	0.59318
233.0363	0.2	petit	27	noun	phrase	2	8	match	cendrier	5	1	y	0.59318
233.23620000000003	0.0	+	27	noun	phrase	2	9	match	cendrier	5	1	y	0.59318
233.63610000000003	0.2	cendrier	27	noun	phrase	2	10	match	cendrier	5	1	y	0.59318
233.83599999999998	0.0	+	27	noun	phrase	2	11	match	cendrier	5	1	y	0.59318
234.2358	0.0	+	27	noun	phrase	2	12	match	cendrier	5	1	y	0.59318
236.2349	0.0	CENDRIER	27	noun	phrase	2	13	match	cendrier	5	1	y	0.59318
236.95200000000003	0.0	+	27	noun	phrase	2	14	match	cendrier	5	1	y	0.59318
236.82809999999998	0.0	[response]	27	noun	phrase	2	15	match	cendrier	5	1	y	0.59318
238.63379999999998	0.0	+	28	noun	list	3	1	match	va	3	1	y	0.78495
239.18390000000002	0.2	mrw	28	noun	list	3	2	match	va	3	1	y	0.78495
239.38360000000003	0.0	+	28	noun	list	3	3	match	va	3	1	y	0.78495
239.79999999999998	0.2	xwtz	28	noun	list	3	4	match	va	3	1	y	0.78495
239.9999	0.0	+	28	noun	list	3	5	match	va	3	1	y	0.78495
240.39970000000002	0.2	va	28	noun	list	3	6	match	va	3	1	y	0.78495
240.59959999999998	0.0	+	28	noun	list	3	7	match	va	3	1	y	0.78495
240.99949999999998	0.2	sablier	28	noun	list	3	8	match	va	3	1	y	0.78495
241.1994	0.0	+	28	noun	list	3	9	match	va	3	1	y	0.78495
241.59959999999998	0.2	loin	28	noun	list	3	10	match	va	3	1	y	0.78495
241.7995	0.0	+	28	noun	list	3	11	match	va	3	1	y	0.78495
242.19950000000003	0.0	+	28	noun	list	3	12	match	va	3	1	y	0.78495
244.19809999999998	0.0	VA	28	noun	list	3	13	match	va	3	1	y	0.78495
245.0477	0.0	+	28	noun	list	3	14	match	va	3	1	y	0.78495
244.98300000000003	0.0	[response]	28	noun	list	3	15	match	va	3	1	y	0.78495
246.597	0.0	+	29	noun	phrase	3	1	match	grenier	4	1	y	0.5181700000000001
247.14669999999998	0.2	vmcjktw	29	noun	phrase	3	2	match	grenier	4	1	y	0.5181700000000001
247.34670000000003	0.0	+	29	noun	phrase	3	3	match	grenier	4	1	y	0.5181700000000001
247.7465	0.2	dztj	29	noun	phrase	3	4	match	grenier	4	1	y	0.5181700000000001
247.9464	0.0	+	29	noun	phrase	3	5	match	grenier	4	1	y	0.5181700000000001
248.3466	0.2	leur	29	noun	phrase	3	6	match	grenier	4	1	y	0.5181700000000001
248.54640000000003	0.0	+	29	noun	phrase	3	7	match	grenier	4	1	y	0.5181700000000001
248.9462	0.2	grenier	29	noun	phrase	3	8	match	grenier	4	1	y	0.5181700000000001
249.1464	0.0	+	29	noun	phrase	3	9	match	grenier	4	1	y	0.5181700000000001
249.5459	0.2	vert	29	noun	phrase	3	10	match	grenier	4	1	y	0.5181700000000001
249.7456	0.0	+	29	noun	phrase	3	11	match	grenier	4	1	y	0.5181700000000001
250.14540000000002	0.0	+	29	noun	phrase	3	12	match	grenier	4	1	y	0.5181700000000001
252.14450000000002	0.0	GRENIER	29	noun	phrase	3	13	match	grenier	4	1	y	0.5181700000000001
252.72760000000002	0.0	+	29	noun	phrase	3	14	match	grenier	4	1	y	0.5181700000000001
252.6627	0.0	[response]	29	noun	phrase	3	15	match	grenier	4	1	y	0.5181700000000001
254.54350000000002	0.0	+	30	verb	phrase	3	1	match	doit	3	1	y	0.43591
255.0932	0.2	sxw	30	verb	phrase	3	2	match	doit	3	1	y	0.43591
255.2931	0.0	+	30	verb	phrase	3	3	match	doit	3	1	y	0.43591
255.693	0.2	nqwz	30	verb	phrase	3	4	match	doit	3	1	y	0.43591
255.89290000000003	0.0	+	30	verb	phrase	3	5	match	doit	3	1	y	0.43591
256.31	0.2	doit	30	verb	phrase	3	6	match	doit	3	1	y	0.43591
256.4933	0.0	+	30	verb	phrase	3	7	match	doit	3	1	y	0.43591
256.89279999999997	0.2	danser	30	verb	phrase	3	8	match	doit	3	1	y	0.43591
257.0927	0.0	+	30	verb	phrase	3	9	match	doit	3	1	y	0.43591
257.49219999999997	0.2	ainsi	30	verb	phrase	3	10	match	doit	3	1	y	0.43591
257.6921	0.0	+	30	verb	phrase	3	11	match	doit	3	1	y	0.43591
258.09189999999995	0.0	+	30	verb	phrase	3	12	match	doit	3	1	y	0.43591
260.0911	0.0	DOIT	30	verb	phrase	3	13	match	doit	3	1	y	0.43591
260.64099999999996	0.0	+	30	verb	phrase	3	14	match	doit	3	1	y	0.43591
260.52709999999996	0.0	[response]	30	verb	phrase	3	15	match	doit	3	1	y	0.43591
262.49019999999996	0.0	+	31	verb	list	3	1	nomatch	jean	-1	1	p	0.58269
263.0397	0.2	sqv	31	verb	list	3	2	nomatch	jean	-1	1	p	0.58269
263.24019999999996	0.0	+	31	verb	list	3	3	nomatch	jean	-1	1	p	0.58269
263.64009999999996	0.2	xwtz	31	verb	list	3	4	nomatch	jean	-1	1	p	0.58269
263.83959999999996	0.0	+	31	verb	list	3	5	nomatch	jean	-1	1	p	0.58269
264.2394	0.2	va	31	verb	list	3	6	nomatch	jean	-1	1	p	0.58269
264.4394	0.0	+	31	verb	list	3	7	nomatch	jean	-1	1	p	0.58269
264.83889999999997	0.2	vieux	31	verb	list	3	8	nomatch	jean	-1	1	p	0.58269
265.0388	0.0	+	31	verb	list	3	9	nomatch	jean	-1	1	p	0.58269
265.43859999999995	0.2	danser	31	verb	list	3	10	nomatch	jean	-1	1	p	0.58269
265.6386	0.0	+	31	verb	list	3	11	nomatch	jean	-1	1	p	0.58269
266.03839999999997	0.0	+	31	verb	list	3	12	nomatch	jean	-1	1	p	0.58269
268.03749999999997	0.0	JEAN	31	verb	list	3	13	nomatch	jean	-1	1	p	0.58269
268.68719999999996	0.0	+	31	verb	list	3	14	nomatch	jean	-1	1	p	0.58269
268.62019999999995	0.0	[response]	31	verb	list	3	15	nomatch	jean	-1	1	p	0.58269
270.4364	0.0	+	32	verb	phrase	2	1	match	parader	5	1	y	0.47299
270.9862	0.2	shpfb	32	verb	phrase	2	2	match	parader	5	1	y	0.47299
271.18609999999995	0.0	+	32	verb	phrase	2	3	match	parader	5	1	y	0.47299
271.5859	0.2	fnth	32	verb	phrase	2	4	match	parader	5	1	y	0.47299
271.7858	0.0	+	32	verb	phrase	2	5	match	parader	5	1	y	0.47299
272.18559999999997	0.2	xl	32	verb	phrase	2	6	match	parader	5	1	y	0.47299
272.38559999999995	0.0	+	32	verb	phrase	2	7	match	parader	5	1	y	0.47299
272.7854	0.2	trop	32	verb	phrase	2	8	match	parader	5	1	y	0.47299
272.98589999999996	0.0	+	32	verb	phrase	2	9	match	parader	5	1	y	0.47299
273.3853	0.2	parader	32	verb	phrase	2	10	match	parader	5	1	y	0.47299
273.5856	0.0	+	32	verb	phrase	2	11	match	parader	5	1	y	0.47299
273.98479999999995	0.0	+	32	verb	phrase	2	12	match	parader	5	1	y	0.47299
275.984	0.0	PARADER	32	verb	phrase	2	13	match	parader	5	1	y	0.47299
276.51709999999997	0.0	+	32	verb	phrase	2	14	match	parader	5	1	y	0.47299
276.457	0.0	[response]	32	verb	phrase	2	15	match	parader	5	1	y	0.47299
278.39959999999996	0.0	+	33	verb	phrase	2	1	nomatch	vite	-1	1	p	0.49767
278.9493	0.2	txvbql	33	verb	phrase	2	2	nomatch	vite	-1	1	p	0.49767
279.14919999999995	0.0	+	33	verb	phrase	2	3	nomatch	vite	-1	1	p	0.49767
279.54909999999995	0.2	sndq	33	verb	phrase	2	4	nomatch	vite	-1	1	p	0.49767
279.7491	0.0	+	33	verb	phrase	2	5	nomatch	vite	-1	1	p	0.49767
280.14919999999995	0.2	xl	33	verb	phrase	2	6	nomatch	vite	-1	1	p	0.49767
280.3492	0.0	+	33	verb	phrase	2	7	nomatch	vite	-1	1	p	0.49767
280.7485	0.2	parader	33	verb	phrase	2	8	nomatch	vite	-1	1	p	0.49767
280.9484	0.0	+	33	verb	phrase	2	9	nomatch	vite	-1	1	p	0.49767
281.3483	0.2	loin	33	verb	phrase	2	10	nomatch	vite	-1	1	p	0.49767
281.54819999999995	0.0	+	33	verb	phrase	2	11	nomatch	vite	-1	1	p	0.49767
281.948	0.0	+	33	verb	phrase	2	12	nomatch	vite	-1	1	p	0.49767
283.9471	0.0	VITE	33	verb	phrase	2	13	nomatch	vite	-1	1	p	0.49767
284.5806	0.0	+	33	verb	phrase	2	14	nomatch	vite	-1	1	p	0.49767
284.4448	0.0	[response]	33	verb	phrase	2	15	nomatch	vite	-1	1	p	0.49767
286.3461	0.0	+	34	noun	phrase	1	1	match	tablier	5	1	y	0.43467
286.89579999999995	0.2	ktqdvs	34	noun	phrase	1	2	match	tablier	5	1	y	0.43467
287.09569999999997	0.0	+	34	noun	phrase	1	3	match	tablier	5	1	y	0.43467
287.4955	0.2	gbvz	34	noun	phrase	1	4	match	tablier	5	1	y	0.43467
287.6955	0.0	+	34	noun	phrase	1	5	match	tablier	5	1	y	0.43467
288.09529999999995	0.2	fpzv	34	noun	phrase	1	6	match	tablier	5	1	y	0.43467
288.29519999999997	0.0	+	34	noun	phrase	1	7	match	tablier	5	1	y	0.43467
288.7124	0.2	jnzbl	34	noun	phrase	1	8	match	tablier	5	1	y	0.43467
288.8954	0.0	+	34	noun	phrase	1	9	match	tablier	5	1	y	0.43467
289.31199999999995	0.2	tablier	34	noun	phrase	1	10	match	tablier	5	1	y	0.43467
289.49469999999997	0.0	+	34	noun	phrase	1	11	match	tablier	5	1	y	0.43467
289.8945	0.0	+	34	noun	phrase	1	12	match	tablier	5	1	y	0.43467
291.8936	0.0	TABLIER	34	noun	phrase	1	13	match	tablier	5	1	y	0.43467
292.3934	0.0	+	34	noun	phrase	1	14	match	tablier	5	1	y	0.43467
292.32829999999996	0.0	[response]	34	noun	phrase	1	15	match	tablier	5	1	y	0.43467
294.29249999999996	0.0	+	35	noun	phrase	1	1	nomatch	dans	-1	1	p	0.60087
294.8425	0.2	jmrntd	35	noun	phrase	1	2	nomatch	dans	-1	1	p	0.60087
295.0428	0.0	+	35	noun	phrase	1	3	nomatch	dans	-1	1	p	0.60087
295.44199999999995	0.2	xwtz	35	noun	phrase	1	4	nomatch	dans	-1	1	p	0.60087
295.64189999999996	0.0	+	35	noun	phrase	1	5	nomatch	dans	-1	1	p	0.60087
296.04179999999997	0.2	jtp	35	noun	phrase	1	6	nomatch	dans	-1	1	p	0.60087
296.2417	0.0	+	35	noun	phrase	1	7	nomatch	dans	-1	1	p	0.60087
296.64149999999995	0.2	jtwlzxs	35	noun	phrase	1	8	nomatch	dans	-1	1	p	0.60087
296.84139999999996	0.0	+	35	noun	phrase	1	9	nomatch	dans	-1	1	p	0.60087
297.2412	0.2	beau	35	noun	phrase	1	10	nomatch	dans	-1	1	p	0.60087
297.4411	0.0	+	35	noun	phrase	1	11	nomatch	dans	-1	1	p	0.60087
297.8411	0.0	+	35	noun	phrase	1	12	nomatch	dans	-1	1	p	0.60087
299.84009999999995	0.0	DANS	35	noun	phrase	1	13	nomatch	dans	-1	1	p	0.60087
300.5064	0.0	+	35	noun	phrase	1	14	nomatch	dans	-1	1	p	0.60087
300.441	0.0	[response]	35	noun	phrase	1	15	nomatch	dans	-1	1	p	0.60087
302.239	0.0	+	36	noun	phrase	1	1	match	nouveau	5	1	y	0.43268
302.7888	0.2	pbmn	36	noun	phrase	1	2	match	nouveau	5	1	y	0.43268
302.98879999999997	0.0	+	36	noun	phrase	1	3	match	nouveau	5	1	y	0.43268
303.38849999999996	0.2	dztj	36	noun	phrase	1	4	match	nouveau	5	1	y	0.43268
303.5884	0.0	+	36	noun	phrase	1	5	match	nouveau	5	1	y	0.43268
303.9887	0.2	bxp	36	noun	phrase	1	6	match	nouveau	5	1	y	0.43268
304.20509999999996	0.0	+	36	noun	phrase	1	7	match	nouveau	5	1	y	0.43268
304.58799999999997	0.2	mlfjvkp	36	noun	phrase	1	8	match	nouveau	5	1	y	0.43268
304.7879	0.0	+	36	noun	phrase	1	9	match	nouveau	5	1	y	0.43268
305.18769999999995	0.2	nouveau	36	noun	phrase	1	10	match	nouveau	5	1	y	0.43268
305.38759999999996	0.0	+	36	noun	phrase	1	11	match	nouveau	5	1	y	0.43268
305.78749999999997	0.0	+	36	noun	phrase	1	12	match	nouveau	5	1	y	0.43268
307.78659999999996	0.0	NOUVEAU	36	noun	phrase	1	13	match	nouveau	5	1	y	0.43268
308.2863	0.0	+	36	noun	phrase	1	14	match	nouveau	5	1	y	0.43268
308.2193	0.0	[response]	36	noun	phrase	1	15	match	nouveau	5	1	y	0.43268
310.1855	0.0	+	37	verb	list	1	1	nomatch	paul	-1	1	p	0.5357200000000001
310.73519999999996	0.2	pcv	37	verb	list	1	2	nomatch	paul	-1	1	p	0.5357200000000001
310.9358	0.0	+	37	verb	list	1	3	nomatch	paul	-1	1	p	0.5357200000000001
311.3356	0.2	mqlx	37	verb	list	1	4	nomatch	paul	-1	1	p	0.5357200000000001
311.53529999999995	0.0	+	37	verb	list	1	5	nomatch	paul	-1	1	p	0.5357200000000001
311.9348	0.2	bxp	37	verb	list	1	6	nomatch	paul	-1	1	p	0.5357200000000001
312.1352	0.0	+	37	verb	list	1	7	nomatch	paul	-1	1	p	0.5357200000000001
312.53499999999997	0.2	jsthprc	37	verb	list	1	8	nomatch	paul	-1	1	p	0.5357200000000001
312.73479999999995	0.0	+	37	verb	list	1	9	nomatch	paul	-1	1	p	0.5357200000000001
313.13419999999996	0.2	bleu	37	verb	list	1	10	nomatch	paul	-1	1	p	0.5357200000000001
313.3341	0.0	+	37	verb	list	1	11	nomatch	paul	-1	1	p	0.5357200000000001
313.7339	0.0	+	37	verb	list	1	12	nomatch	paul	-1	1	p	0.5357200000000001
315.74989999999997	0.0	PAUL	37	verb	list	1	13	nomatch	paul	-1	1	p	0.5357200000000001
316.41679999999997	0.0	+	37	verb	list	1	14	nomatch	paul	-1	1	p	0.5357200000000001
316.28560000000004	0.0	[response]	37	verb	list	1	15	nomatch	paul	-1	1	p	0.5357200000000001
318.1486	0.0	+	38	verb	phrase	3	1	match	voyager	4	1	y	0.42348
318.71569999999997	0.2	lbwgjx	38	verb	phrase	3	2	match	voyager	4	1	y	0.42348
318.91569999999996	0.0	+	38	verb	phrase	3	3	match	voyager	4	1	y	0.42348
319.29839999999996	0.2	tqdg	38	verb	phrase	3	4	match	voyager	4	1	y	0.42348
319.498	0.0	+	38	verb	phrase	3	5	match	voyager	4	1	y	0.42348
319.8979	0.2	va	38	verb	phrase	3	6	match	voyager	4	1	y	0.42348
320.09779999999995	0.0	+	38	verb	phrase	3	7	match	voyager	4	1	y	0.42348
320.4976	0.2	voyager	38	verb	phrase	3	8	match	voyager	4	1	y	0.42348
320.6975	0.0	+	38	verb	phrase	3	9	match	voyager	4	1	y	0.42348
321.09729999999996	0.2	loin	38	verb	phrase	3	10	match	voyager	4	1	y	0.42348
321.2972	0.0	+	38	verb	phrase	3	11	match	voyager	4	1	y	0.42348
321.71389999999997	0.0	+	38	verb	phrase	3	12	match	voyager	4	1	y	0.42348
323.6962	0.0	VOYAGER	38	verb	phrase	3	13	match	voyager	4	1	y	0.42348
324.17929999999996	0.0	+	38	verb	phrase	3	14	match	voyager	4	1	y	0.42348
324.1197	0.0	[response]	38	verb	phrase	3	15	match	voyager	4	1	y	0.42348
326.0951	0.0	+	39	noun	list	4	1	nomatch	vers	-1	1	p	0.91012
326.64489999999995	0.2	lwcjtpr	39	noun	list	4	2	nomatch	vers	-1	1	p	0.91012
326.84479999999996	0.0	+	39	noun	list	4	3	nomatch	vers	-1	1	p	0.91012
327.2446	0.2	sur	39	noun	list	4	4	nomatch	vers	-1	1	p	0.91012
327.4445	0.0	+	39	noun	list	4	5	nomatch	vers	-1	1	p	0.91012
327.8447	0.2	va	39	noun	list	4	6	nomatch	vers	-1	1	p	0.91012
328.04429999999996	0.0	+	39	noun	list	4	7	nomatch	vers	-1	1	p	0.91012
328.44469999999995	0.2	cendrier	39	noun	list	4	8	nomatch	vers	-1	1	p	0.91012
328.644	0.0	+	39	noun	list	4	9	nomatch	vers	-1	1	p	0.91012
329.0438	0.2	vite	39	noun	list	4	10	nomatch	vers	-1	1	p	0.91012
329.2437	0.0	+	39	noun	list	4	11	nomatch	vers	-1	1	p	0.91012
329.6436	0.0	+	39	noun	list	4	12	nomatch	vers	-1	1	p	0.91012
331.643	0.0	VERS	39	noun	list	4	13	nomatch	vers	-1	1	p	0.91012
332.6089	0.0	+	39	noun	list	4	14	nomatch	vers	-1	1	p	0.91012
332.5531	0.0	[response]	39	noun	list	4	15	nomatch	vers	-1	1	p	0.91012
334.04159999999996	0.0	+	40	verb	phrase	1	1	match	rouler	5	1	y	0.43399000000000004
334.59139999999996	0.2	clbftgz	40	verb	phrase	1	2	match	rouler	5	1	y	0.43399000000000004
334.7913	0.0	+	40	verb	phrase	1	3	match	rouler	5	1	y	0.43399000000000004
335.1911	0.2	nqwz	40	verb	phrase	1	4	match	rouler	5	1	y	0.43399000000000004
335.39099999999996	0.0	+	40	verb	phrase	1	5	match	rouler	5	1	y	0.43399000000000004
335.7908	0.2	xl	40	verb	phrase	1	6	match	rouler	5	1	y	0.43399000000000004
335.99129999999997	0.0	+	40	verb	phrase	1	7	match	rouler	5	1	y	0.43399000000000004
336.39059999999995	0.2	crkjbpvw	40	verb	phrase	1	8	match	rouler	5	1	y	0.43399000000000004
336.59049999999996	0.0	+	40	verb	phrase	1	9	match	rouler	5	1	y	0.43399000000000004
336.9908	0.2	rouler	40	verb	phrase	1	10	match	rouler	5	1	y	0.43399000000000004
337.20739999999995	0.0	+	40	verb	phrase	1	11	match	rouler	5	1	y	0.43399000000000004
337.59009999999995	0.0	+	40	verb	phrase	1	12	match	rouler	5	1	y	0.43399000000000004
339.5892	0.0	ROULER	40	verb	phrase	1	13	match	rouler	5	1	y	0.43399000000000004
340.08889999999997	0.0	+	40	verb	phrase	1	14	match	rouler	5	1	y	0.43399000000000004
340.0231	0.0	[response]	40	verb	phrase	1	15	match	rouler	5	1	y	0.43399000000000004
341.9881	0.0	+	41	noun	list	2	1	nomatch	moins	-1	1	p	0.50915
342.5378	0.2	lcmjp	41	noun	list	2	2	nomatch	moins	-1	1	p	0.50915
342.7378	0.0	+	41	noun	list	2	3	nomatch	moins	-1	1	p	0.50915
343.13759999999996	0.2	scgn	41	noun	list	2	4	nomatch	moins	-1	1	p	0.50915
343.33779999999996	0.0	+	41	noun	list	2	5	nomatch	moins	-1	1	p	0.50915
343.73769999999996	0.2	hdmf	41	noun	list	2	6	nomatch	moins	-1	1	p	0.50915
343.9375	0.0	+	41	noun	list	2	7	nomatch	moins	-1	1	p	0.50915
344.3372	0.2	casier	41	noun	list	2	8	nomatch	moins	-1	1	p	0.50915
344.53749999999997	0.0	+	41	noun	list	2	9	nomatch	moins	-1	1	p	0.50915
344.9368	0.2	loin	41	noun	list	2	10	nomatch	moins	-1	1	p	0.50915
345.13669999999996	0.0	+	41	noun	list	2	11	nomatch	moins	-1	1	p	0.50915
345.537	0.0	+	41	noun	list	2	12	nomatch	moins	-1	1	p	0.50915
347.5356	0.0	MOINS	41	noun	list	2	13	nomatch	moins	-1	1	p	0.50915
348.10209999999995	0.0	+	41	noun	list	2	14	nomatch	moins	-1	1	p	0.50915
348.04479999999995	0.0	[response]	41	noun	list	2	15	nomatch	moins	-1	1	p	0.50915
349.9346	0.0	+	42	noun	phrase	1	1	match	vieux	5	1	y	0.43699000000000005
350.48429999999996	0.2	czwhgjs	42	noun	phrase	1	2	match	vieux	5	1	y	0.43699000000000005
350.6842	0.0	+	42	noun	phrase	1	3	match	vieux	5	1	y	0.43699000000000005
351.0841	0.2	xqsw	42	noun	phrase	1	4	match	vieux	5	1	y	0.43699000000000005
351.284	0.0	+	42	noun	phrase	1	5	match	vieux	5	1	y	0.43699000000000005
351.6844	0.2	fpzv	42	noun	phrase	1	6	match	vieux	5	1	y	0.43699000000000005
351.8837	0.0	+	42	noun	phrase	1	7	match	vieux	5	1	y	0.43699000000000005
352.2836	0.2	frqlpb	42	noun	phrase	1	8	match	vieux	5	1	y	0.43699000000000005
352.5001	0.0	+	42	noun	phrase	1	9	match	vieux	5	1	y	0.43699000000000005
352.8999	0.2	vieux	42	noun	phrase	1	10	match	vieux	5	1	y	0.43699000000000005
353.09979999999996	0.0	+	42	noun	phrase	1	11	match	vieux	5	1	y	0.43699000000000005
353.49969999999996	0.0	+	42	noun	phrase	1	12	match	vieux	5	1	y	0.43699000000000005
355.5161	0.0	VIEUX	42	noun	phrase	1	13	match	vieux	5	1	y	0.43699000000000005
356.0152	0.0	+	42	noun	phrase	1	14	match	vieux	5	1	y	0.43699000000000005
355.95309999999995	0.0	[response]	42	noun	phrase	1	15	match	vieux	5	1	y	0.43699000000000005
357.8977	0.0	+	43	verb	phrase	2	1	match	vite	5	1	y	0.64536
358.4475	0.2	nxt	43	verb	phrase	2	2	match	vite	5	1	y	0.64536
358.6474	0.0	+	43	verb	phrase	2	3	match	vite	5	1	y	0.64536
359.0472	0.2	xgsj	43	verb	phrase	2	4	match	vite	5	1	y	0.64536
359.2471	0.0	+	43	verb	phrase	2	5	match	vite	5	1	y	0.64536
359.6475	0.2	xl	43	verb	phrase	2	6	match	vite	5	1	y	0.64536
359.8472	0.0	+	43	verb	phrase	2	7	match	vite	5	1	y	0.64536
360.26349999999996	0.2	danser	43	verb	phrase	2	8	match	vite	5	1	y	0.64536
360.464	0.0	+	43	verb	phrase	2	9	match	vite	5	1	y	0.64536
360.84639999999996	0.2	vite	43	verb	phrase	2	10	match	vite	5	1	y	0.64536
361.0463	0.0	+	43	verb	phrase	2	11	match	vite	5	1	y	0.64536
361.4461	0.0	+	43	verb	phrase	2	12	match	vite	5	1	y	0.64536
363.4452	0.0	VITE	43	verb	phrase	2	13	match	vite	5	1	y	0.64536
364.14489999999995	0.0	+	43	verb	phrase	2	14	match	vite	5	1	y	0.64536
364.0906	0.0	[response]	43	verb	phrase	2	15	match	vite	5	1	y	0.64536
365.8442	0.0	+	44	noun	list	1	1	match	cendrier	5	1	y	0.69561
366.3939	0.2	qgtr	44	noun	list	1	2	match	cendrier	5	1	y	0.69561
366.59389999999996	0.0	+	44	noun	list	1	3	match	cendrier	5	1	y	0.69561
366.9937	0.2	gbvz	44	noun	list	1	4	match	cendrier	5	1	y	0.69561
367.1936	0.0	+	44	noun	list	1	5	match	cendrier	5	1	y	0.69561
367.5936	0.2	xl	44	noun	list	1	6	match	cendrier	5	1	y	0.69561
367.794	0.0	+	44	noun	list	1	7	match	cendrier	5	1	y	0.69561
368.1937	0.2	kqlp	44	noun	list	1	8	match	cendrier	5	1	y	0.69561
368.3934	0.0	+	44	noun	list	1	9	match	cendrier	5	1	y	0.69561
368.7929	0.2	cendrier	44	noun	list	1	10	match	cendrier	5	1	y	0.69561
368.9928	0.0	+	44	noun	list	1	11	match	cendrier	5	1	y	0.69561
369.39259999999996	0.0	+	44	noun	list	1	12	match	cendrier	5	1	y	0.69561
371.39169999999996	0.0	CENDRIER	44	noun	list	1	13	match	cendrier	5	1	y	0.69561
372.1414	0.0	+	44	noun	list	1	14	match	cendrier	5	1	y	0.69561
372.08729999999997	0.0	[response]	44	noun	list	1	15	match	cendrier	5	1	y	0.69561
373.79069999999996	0.0	+	45	verb	phrase	1	1	nomatch	cendrier	-1	1	p	0.66444
374.3404	0.2	dzhl	45	verb	phrase	1	2	nomatch	cendrier	-1	1	p	0.66444
374.5403	0.0	+	45	verb	phrase	1	3	nomatch	cendrier	-1	1	p	0.66444
374.9572	0.2	xgsj	45	verb	phrase	1	4	nomatch	cendrier	-1	1	p	0.66444
375.14029999999997	0.0	+	45	verb	phrase	1	5	nomatch	cendrier	-1	1	p	0.66444
375.5406	0.2	xl	45	verb	phrase	1	6	nomatch	cendrier	-1	1	p	0.66444
375.7398	0.0	+	45	verb	phrase	1	7	nomatch	cendrier	-1	1	p	0.66444
376.1396	0.2	rzxj	45	verb	phrase	1	8	nomatch	cendrier	-1	1	p	0.66444
376.33959999999996	0.0	+	45	verb	phrase	1	9	nomatch	cendrier	-1	1	p	0.66444
376.7394	0.2	rouler	45	verb	phrase	1	10	nomatch	cendrier	-1	1	p	0.66444
376.9393	0.0	+	45	verb	phrase	1	11	nomatch	cendrier	-1	1	p	0.66444
377.3391	0.0	+	45	verb	phrase	1	12	nomatch	cendrier	-1	1	p	0.66444
379.3382	0.0	CENDRIER	45	verb	phrase	1	13	nomatch	cendrier	-1	1	p	0.66444
380.0546	0.0	+	45	verb	phrase	1	14	nomatch	cendrier	-1	1	p	0.66444
380.0027	0.0	[response]	45	verb	phrase	1	15	nomatch	cendrier	-1	1	p	0.66444
389.7503	0.0	+	46	verb	list	3	1	nomatch	voyager	-1	1	p	0.66356
390.29999999999995	0.2	jbw	46	verb	list	3	2	nomatch	voyager	-1	1	p	0.66356
390.49989999999997	0.0	+	46	verb	list	3	3	nomatch	voyager	-1	1	p	0.66356
390.89979999999997	0.2	fnth	46	verb	list	3	4	nomatch	voyager	-1	1	p	0.66356
391.0997	0.0	+	46	verb	list	3	5	nomatch	voyager	-1	1	p	0.66356
391.49949999999995	0.2	son	46	verb	list	3	6	nomatch	voyager	-1	1	p	0.66356
391.69939999999997	0.0	+	46	verb	list	3	7	nomatch	voyager	-1	1	p	0.66356
392.0992	0.2	nager	46	verb	list	3	8	nomatch	voyager	-1	1	p	0.66356
392.29909999999995	0.0	+	46	verb	list	3	9	nomatch	voyager	-1	1	p	0.66356
392.69899999999996	0.2	vert	46	verb	list	3	10	nomatch	voyager	-1	1	p	0.66356
392.89889999999997	0.0	+	46	verb	list	3	11	nomatch	voyager	-1	1	p	0.66356
393.299	0.0	+	46	verb	list	3	12	nomatch	voyager	-1	1	p	0.66356
395.2978	0.0	VOYAGER	46	verb	list	3	13	nomatch	voyager	-1	1	p	0.66356
396.01419999999996	0.0	+	46	verb	list	3	14	nomatch	voyager	-1	1	p	0.66356
395.96139999999997	0.0	[response]	46	verb	list	3	15	nomatch	voyager	-1	1	p	0.66356
405.6936	0.0	+	47	verb	phrase	1	1	match	moins	5	1	y	0.42499
406.2435	0.2	vgqfms	47	verb	phrase	1	2	match	moins	5	1	y	0.42499
406.4434	0.0	+	47	verb	phrase	1	3	match	moins	5	1	y	0.42499
406.8427	0.2	sndq	47	verb	phrase	1	4	match	moins	5	1	y	0.42499
407.0426	0.0	+	47	verb	phrase	1	5	match	moins	5	1	y	0.42499
407.44239999999996	0.2	xl	47	verb	phrase	1	6	match	moins	5	1	y	0.42499
407.64239999999995	0.0	+	47	verb	phrase	1	7	match	moins	5	1	y	0.42499
408.0422	0.2	nhsjqxr	47	verb	phrase	1	8	match	moins	5	1	y	0.42499
408.2421	0.0	+	47	verb	phrase	1	9	match	moins	5	1	y	0.42499
408.6422	0.2	moins	47	verb	phrase	1	10	match	moins	5	1	y	0.42499
408.84189999999995	0.0	+	47	verb	phrase	1	11	match	moins	5	1	y	0.42499
409.24219999999997	0.0	+	47	verb	phrase	1	12	match	moins	5	1	y	0.42499
411.2408	0.0	MOINS	47	verb	phrase	1	13	match	moins	5	1	y	0.42499
411.7912	0.0	+	47	verb	phrase	1	14	match	moins	5	1	y	0.42499
411.6658	0.0	[response]	47	verb	phrase	1	15	match	moins	5	1	y	0.42499
413.6397	0.0	+	48	noun	phrase	4	1	match	son	3	1	y	0.63282
414.1894	0.2	wqz	48	noun	phrase	4	2	match	son	3	1	y	0.63282
414.38939999999997	0.0	+	48	noun	phrase	4	3	match	son	3	1	y	0.63282
414.7892	0.2	pour	48	noun	phrase	4	4	match	son	3	1	y	0.63282
414.98909999999995	0.0	+	48	noun	phrase	4	5	match	son	3	1	y	0.63282
415.3889	0.2	son	48	noun	phrase	4	6	match	son	3	1	y	0.63282
415.5888	0.0	+	48	noun	phrase	4	7	match	son	3	1	y	0.63282
415.9887	0.2	voilier	48	noun	phrase	4	8	match	son	3	1	y	0.63282
416.18859999999995	0.0	+	48	noun	phrase	4	9	match	son	3	1	y	0.63282
416.5891	0.2	rouge	48	noun	phrase	4	10	match	son	3	1	y	0.63282
416.7888	0.0	+	48	noun	phrase	4	11	match	son	3	1	y	0.63282
417.1884	0.0	+	48	noun	phrase	4	12	match	son	3	1	y	0.63282
419.18719999999996	0.0	SON	48	noun	phrase	4	13	match	son	3	1	y	0.63282
419.88689999999997	0.0	+	48	noun	phrase	4	14	match	son	3	1	y	0.63282
419.82009999999997	0.0	[response]	48	noun	phrase	4	15	match	son	3	1	y	0.63282
429.59929999999997	0.0	+	49	verb	list	3	1	match	mon	3	1	y	0.6829
430.1491	0.2	vmgh	49	verb	list	3	2	match	mon	3	1	y	0.6829
430.349	0.0	+	49	verb	list	3	3	match	mon	3	1	y	0.6829
430.7489	0.2	sndq	49	verb	list	3	4	match	mon	3	1	y	0.6829
430.9487	0.0	+	49	verb	list	3	5	match	mon	3	1	y	0.6829
431.3492	0.2	mon	49	verb	list	3	6	match	mon	3	1	y	0.6829
431.549	0.0	+	49	verb	list	3	7	match	mon	3	1	y	0.6829
431.94829999999996	0.2	jongler	49	verb	list	3	8	match	mon	3	1	y	0.6829
432.1482	0.0	+	49	verb	list	3	9	match	mon	3	1	y	0.6829
432.548	0.2	rouge	49	verb	list	3	10	match	mon	3	1	y	0.6829
432.74789999999996	0.0	+	49	verb	list	3	11	match	mon	3	1	y	0.6829
433.1477	0.0	+	49	verb	list	3	12	match	mon	3	1	y	0.6829
435.1468	0.0	MON	49	verb	list	3	13	match	mon	3	1	y	0.6829
435.9969	0.0	+	49	verb	list	3	14	match	mon	3	1	y	0.6829
435.8297	0.0	[response]	49	verb	list	3	15	match	mon	3	1	y	0.6829
445.5422	0.0	+	50	verb	phrase	2	1	nomatch	rouler	-1	1	p	0.66174
446.092	0.2	jxn	50	verb	phrase	2	2	nomatch	rouler	-1	1	p	0.66174
446.2919	0.0	+	50	verb	phrase	2	3	nomatch	rouler	-1	1	p	0.66174
446.69169999999997	0.2	xgsj	50	verb	phrase	2	4	nomatch	rouler	-1	1	p	0.66174
446.8916	0.0	+	50	verb	phrase	2	5	nomatch	rouler	-1	1	p	0.66174
447.2915	0.2	xl	50	verb	phrase	2	6	nomatch	rouler	-1	1	p	0.66174
447.49179999999996	0.0	+	50	verb	phrase	2	7	nomatch	rouler	-1	1	p	0.66174
447.89149999999995	0.2	jongler	50	verb	phrase	2	8	nomatch	rouler	-1	1	p	0.66174
448.09119999999996	0.0	+	50	verb	phrase	2	9	nomatch	rouler	-1	1	p	0.66174
448.49109999999996	0.2	tard	50	verb	phrase	2	10	nomatch	rouler	-1	1	p	0.66174
448.6911	0.0	+	50	verb	phrase	2	11	nomatch	rouler	-1	1	p	0.66174
449.09069999999997	0.0	+	50	verb	phrase	2	12	nomatch	rouler	-1	1	p	0.66174
451.08979999999997	0.0	ROULER	50	verb	phrase	2	13	nomatch	rouler	-1	1	p	0.66174
451.80609999999996	0.0	+	50	verb	phrase	2	14	nomatch	rouler	-1	1	p	0.66174
451.75149999999996	0.0	[response]	50	verb	phrase	2	15	nomatch	rouler	-1	1	p	0.66174
453.4887	0.0	+	51	verb	phrase	1	1	nomatch	mieux	-1	1	p	0.6304400000000001
454.0385	0.2	zkxmjlg	51	verb	phrase	1	2	nomatch	mieux	-1	1	p	0.6304400000000001
454.23839999999996	0.0	+	51	verb	phrase	1	3	nomatch	mieux	-1	1	p	0.6304400000000001
454.6382	0.2	nqwz	51	verb	phrase	1	4	nomatch	mieux	-1	1	p	0.6304400000000001
454.8381	0.0	+	51	verb	phrase	1	5	nomatch	mieux	-1	1	p	0.6304400000000001
455.23789999999997	0.2	ltfh	51	verb	phrase	1	6	nomatch	mieux	-1	1	p	0.6304400000000001
455.4548	0.0	+	51	verb	phrase	1	7	nomatch	mieux	-1	1	p	0.6304400000000001
455.8383	0.2	rwsqltc	51	verb	phrase	1	8	nomatch	mieux	-1	1	p	0.6304400000000001
456.03799999999995	0.0	+	51	verb	phrase	1	9	nomatch	mieux	-1	1	p	0.6304400000000001
456.4382	0.2	plus	51	verb	phrase	1	10	nomatch	mieux	-1	1	p	0.6304400000000001
456.6373	0.0	+	51	verb	phrase	1	11	nomatch	mieux	-1	1	p	0.6304400000000001
457.0371999999999	0.0	+	51	verb	phrase	1	12	nomatch	mieux	-1	1	p	0.6304400000000001
459.03669999999994	0.0	MIEUX	51	verb	phrase	1	13	nomatch	mieux	-1	1	p	0.6304400000000001
459.80310000000003	0.0	+	51	verb	phrase	1	14	nomatch	mieux	-1	1	p	0.6304400000000001
459.66709999999995	0.0	[response]	51	verb	phrase	1	15	nomatch	mieux	-1	1	p	0.6304400000000001
461.43519999999995	0.0	+	52	verb	list	1	1	match	beau	5	1	y	0.42703
461.9849	0.2	svb	52	verb	list	1	2	match	beau	5	1	y	0.42703
462.2015999999999	0.0	+	52	verb	list	1	3	match	beau	5	1	y	0.42703
462.5849	0.2	xwtz	52	verb	list	1	4	match	beau	5	1	y	0.42703
462.78489999999994	0.0	+	52	verb	list	1	5	match	beau	5	1	y	0.42703
463.20120000000003	0.2	ltfh	52	verb	list	1	6	match	beau	5	1	y	0.42703
463.38499999999993	0.0	+	52	verb	list	1	7	match	beau	5	1	y	0.42703
463.7842	0.2	vjrmh	52	verb	list	1	8	match	beau	5	1	y	0.42703
463.98409999999996	0.0	+	52	verb	list	1	9	match	beau	5	1	y	0.42703
464.3839	0.2	beau	52	verb	list	1	10	match	beau	5	1	y	0.42703
464.58379999999994	0.0	+	52	verb	list	1	11	match	beau	5	1	y	0.42703
464.98359999999997	0.0	+	52	verb	list	1	12	match	beau	5	1	y	0.42703
466.9994	0.0	BEAU	52	verb	list	1	13	match	beau	5	1	y	0.42703
467.4825	0.0	+	52	verb	list	1	14	match	beau	5	1	y	0.42703
467.4264	0.0	[response]	52	verb	list	1	15	match	beau	5	1	y	0.42703
469.449	0.0	+	53	verb	list	1	1	nomatch	leur	-1	1	p	0.71336
469.94879999999995	0.2	wmpbz	53	verb	list	1	2	nomatch	leur	-1	1	p	0.71336
470.14849999999996	0.0	+	53	verb	list	1	3	nomatch	leur	-1	1	p	0.71336
470.5478	0.2	tgm	53	verb	list	1	4	nomatch	leur	-1	1	p	0.71336
470.7477999999999	0.0	+	53	verb	list	1	5	nomatch	leur	-1	1	p	0.71336
471.14759999999995	0.2	bxp	53	verb	list	1	6	nomatch	leur	-1	1	p	0.71336
471.3475	0.0	+	53	verb	list	1	7	nomatch	leur	-1	1	p	0.71336
471.74729999999994	0.2	fxtd	53	verb	list	1	8	nomatch	leur	-1	1	p	0.71336
471.9472	0.0	+	53	verb	list	1	9	nomatch	leur	-1	1	p	0.71336
472.3469999999999	0.2	danser	53	verb	list	1	10	nomatch	leur	-1	1	p	0.71336
472.5469	0.0	+	53	verb	list	1	11	nomatch	leur	-1	1	p	0.71336
472.94739999999996	0.0	+	53	verb	list	1	12	nomatch	leur	-1	1	p	0.71336
474.9459	0.0	LEUR	53	verb	list	1	13	nomatch	leur	-1	1	p	0.71336
475.7122	0.0	+	53	verb	list	1	14	nomatch	leur	-1	1	p	0.71336
475.6593000000001	0.0	[response]	53	verb	list	1	15	nomatch	leur	-1	1	p	0.71336
477.3448	0.0	+	54	noun	phrase	4	1	nomatch	leur	-1	1	p	0.69389
477.8946	0.2	dxbnfv	54	noun	phrase	4	2	nomatch	leur	-1	1	p	0.69389
478.0945	0.0	+	54	noun	phrase	4	3	nomatch	leur	-1	1	p	0.69389
478.4943	0.2	sur	54	noun	phrase	4	4	nomatch	leur	-1	1	p	0.69389
478.69419999999997	0.0	+	54	noun	phrase	4	5	nomatch	leur	-1	1	p	0.69389
479.09409999999997	0.2	mon	54	noun	phrase	4	6	nomatch	leur	-1	1	p	0.69389
479.2939999999999	0.0	+	54	noun	phrase	4	7	nomatch	leur	-1	1	p	0.69389
479.69429999999994	0.2	sablier	54	noun	phrase	4	8	nomatch	leur	-1	1	p	0.69389
479.8939	0.0	+	54	noun	phrase	4	9	nomatch	leur	-1	1	p	0.69389
480.2937	0.2	noir	54	noun	phrase	4	10	nomatch	leur	-1	1	p	0.69389
480.4934	0.0	+	54	noun	phrase	4	11	nomatch	leur	-1	1	p	0.69389
480.8933	0.0	+	54	noun	phrase	4	12	nomatch	leur	-1	1	p	0.69389
482.89259999999996	0.0	LEUR	54	noun	phrase	4	13	nomatch	leur	-1	1	p	0.69389
483.67569999999995	0.0	+	54	noun	phrase	4	14	nomatch	leur	-1	1	p	0.69389
483.58649999999994	0.0	[response]	54	noun	phrase	4	15	nomatch	leur	-1	1	p	0.69389
493.35509999999994	0.0	+	55	noun	phrase	4	1	match	sur	2	1	y	0.60681
493.83750000000003	0.2	rtjfwm	55	noun	phrase	4	2	match	sur	2	1	y	0.60681
494.0374	0.0	+	55	noun	phrase	4	3	match	sur	2	1	y	0.60681
494.4373	0.2	sur	55	noun	phrase	4	4	match	sur	2	1	y	0.60681
494.63719999999995	0.0	+	55	noun	phrase	4	5	match	sur	2	1	y	0.60681
495.037	0.2	son	55	noun	phrase	4	6	match	sur	2	1	y	0.60681
495.23689999999993	0.0	+	55	noun	phrase	4	7	match	sur	2	1	y	0.60681
495.63669999999996	0.2	tablier	55	noun	phrase	4	8	match	sur	2	1	y	0.60681
495.83660000000003	0.0	+	55	noun	phrase	4	9	match	sur	2	1	y	0.60681
496.2364999999999	0.2	bleu	55	noun	phrase	4	10	match	sur	2	1	y	0.60681
496.4364	0.0	+	55	noun	phrase	4	11	match	sur	2	1	y	0.60681
496.8362	0.0	+	55	noun	phrase	4	12	match	sur	2	1	y	0.60681
498.8353	0.0	SUR	55	noun	phrase	4	13	match	sur	2	1	y	0.60681
499.50169999999997	0.0	+	55	noun	phrase	4	14	match	sur	2	1	y	0.60681
499.4420999999999	0.0	[response]	55	noun	phrase	4	15	match	sur	2	1	y	0.60681
501.23419999999993	0.0	+	56	verb	phrase	3	1	match	trop	4	1	y	0.49282
501.78399999999993	0.2	jlxsw	56	verb	phrase	3	2	match	trop	4	1	y	0.49282
501.9839	0.0	+	56	verb	phrase	3	3	match	trop	4	1	y	0.49282
502.38439999999997	0.2	tgm	56	verb	phrase	3	4	match	trop	4	1	y	0.49282
502.6008	0.0	+	56	verb	phrase	3	5	match	trop	4	1	y	0.49282
503.0175	0.2	peut	56	verb	phrase	3	6	match	trop	4	1	y	0.49282
503.2006999999999	0.0	+	56	verb	phrase	3	7	match	trop	4	1	y	0.49282
503.5999	0.2	trop	56	verb	phrase	3	8	match	trop	4	1	y	0.49282
503.79979999999995	0.0	+	56	verb	phrase	3	9	match	trop	4	1	y	0.49282
504.1996	0.2	patiner	56	verb	phrase	3	10	match	trop	4	1	y	0.49282
504.39949999999993	0.0	+	56	verb	phrase	3	11	match	trop	4	1	y	0.49282
504.79929999999996	0.0	+	56	verb	phrase	3	12	match	trop	4	1	y	0.49282
506.79839999999996	0.0	TROP	56	verb	phrase	3	13	match	trop	4	1	y	0.49282
507.41529999999995	0.0	+	56	verb	phrase	3	14	match	trop	4	1	y	0.49282
507.2912999999999	0.0	[response]	56	verb	phrase	3	15	match	trop	4	1	y	0.49282
509.19739999999996	0.0	+	57	noun	list	2	1	nomatch	beau	-1	1	p	0.60745
509.7471	0.2	pkr	57	noun	list	2	2	nomatch	beau	-1	1	p	0.60745
509.94710000000003	0.0	+	57	noun	list	2	3	nomatch	beau	-1	1	p	0.60745
510.34689999999995	0.2	dztj	57	noun	list	2	4	nomatch	beau	-1	1	p	0.60745
510.5468	0.0	+	57	noun	list	2	5	nomatch	beau	-1	1	p	0.60745
510.94659999999993	0.2	ltfh	57	noun	list	2	6	nomatch	beau	-1	1	p	0.60745
511.1465	0.0	+	57	noun	list	2	7	nomatch	beau	-1	1	p	0.60745
511.5636	0.2	boîtier	57	noun	list	2	8	nomatch	beau	-1	1	p	0.60745
511.747	0.0	+	57	noun	list	2	9	nomatch	beau	-1	1	p	0.60745
512.1465000000001	0.2	vite	57	noun	list	2	10	nomatch	beau	-1	1	p	0.60745
512.3461	0.0	+	57	noun	list	2	11	nomatch	beau	-1	1	p	0.60745
512.7458	0.0	+	57	noun	list	2	12	nomatch	beau	-1	1	p	0.60745
514.7456000000001	0.0	BEAU	57	noun	list	2	13	nomatch	beau	-1	1	p	0.60745
515.4115	0.0	+	57	noun	list	2	14	nomatch	beau	-1	1	p	0.60745
515.3530000000001	0.0	[response]	57	noun	list	2	15	nomatch	beau	-1	1	p	0.60745
517.1439	0.0	+	58	verb	phrase	4	1	match	jean	2	1	y	0.7824
517.6936000000001	0.2	zxt	58	verb	phrase	4	2	match	jean	2	1	y	0.7824
517.8935	0.0	+	58	verb	phrase	4	3	match	jean	2	1	y	0.7824
518.2934	0.2	jean	58	verb	phrase	4	4	match	jean	2	1	y	0.7824
518.4938000000001	0.0	+	58	verb	phrase	4	5	match	jean	2	1	y	0.7824
518.8936	0.2	doit	58	verb	phrase	4	6	match	jean	2	1	y	0.7824
519.0934000000001	0.0	+	58	verb	phrase	4	7	match	jean	2	1	y	0.7824
519.4934000000001	0.2	voyager	58	verb	phrase	4	8	match	jean	2	1	y	0.7824
519.693	0.0	+	58	verb	phrase	4	9	match	jean	2	1	y	0.7824
520.0926000000001	0.2	vite	58	verb	phrase	4	10	match	jean	2	1	y	0.7824
520.2925	0.0	+	58	verb	phrase	4	11	match	jean	2	1	y	0.7824
520.6923	0.0	+	58	verb	phrase	4	12	match	jean	2	1	y	0.7824
522.6914	0.0	JEAN	58	verb	phrase	4	13	match	jean	2	1	y	0.7824
523.6247000000001	0.0	+	58	verb	phrase	4	14	match	jean	2	1	y	0.7824
523.4738	0.0	[response]	58	verb	phrase	4	15	match	jean	2	1	y	0.7824
525.0904	0.0	+	59	verb	list	1	1	match	vert	5	1	y	0.46167
525.6401000000001	0.2	pxrj	59	verb	list	1	2	match	vert	5	1	y	0.46167
525.84	0.0	+	59	verb	list	1	3	match	vert	5	1	y	0.46167
526.2402000000001	0.2	sndq	59	verb	list	1	4	match	vert	5	1	y	0.46167
526.4403	0.0	+	59	verb	list	1	5	match	vert	5	1	y	0.46167
526.8403000000001	0.2	jtp	59	verb	list	1	6	match	vert	5	1	y	0.46167
527.0400000000001	0.0	+	59	verb	list	1	7	match	vert	5	1	y	0.46167
527.4395000000001	0.2	hckfxq	59	verb	list	1	8	match	vert	5	1	y	0.46167
527.6392000000001	0.0	+	59	verb	list	1	9	match	vert	5	1	y	0.46167
528.0391000000001	0.2	vert	59	verb	list	1	10	match	vert	5	1	y	0.46167
528.239	0.0	+	59	verb	list	1	11	match	vert	5	1	y	0.46167
528.6388000000001	0.0	+	59	verb	list	1	12	match	vert	5	1	y	0.46167
530.6379000000001	0.0	VERT	59	verb	list	1	13	match	vert	5	1	y	0.46167
531.1543	0.0	+	59	verb	list	1	14	match	vert	5	1	y	0.46167
531.0996	0.0	[response]	59	verb	list	1	15	match	vert	5	1	y	0.46167
533.0368000000001	0.0	+	60	verb	list	4	1	nomatch	moins	-1	1	p	0.61014
533.5872	0.2	mlvh	60	verb	list	4	2	nomatch	moins	-1	1	p	0.61014
533.7867	0.0	+	60	verb	list	4	3	nomatch	moins	-1	1	p	0.61014
534.1864	0.2	jade	60	verb	list	4	4	nomatch	moins	-1	1	p	0.61014
534.3869000000001	0.0	+	60	verb	list	4	5	nomatch	moins	-1	1	p	0.61014
534.7861	0.2	leur	60	verb	list	4	6	nomatch	moins	-1	1	p	0.61014
534.986	0.0	+	60	verb	list	4	7	nomatch	moins	-1	1	p	0.61014
535.3858	0.2	nager	60	verb	list	4	8	nomatch	moins	-1	1	p	0.61014
535.5857000000001	0.0	+	60	verb	list	4	9	nomatch	moins	-1	1	p	0.61014
535.9855	0.2	noir	60	verb	list	4	10	nomatch	moins	-1	1	p	0.61014
536.1854000000001	0.0	+	60	verb	list	4	11	nomatch	moins	-1	1	p	0.61014
536.5853000000001	0.0	+	60	verb	list	4	12	nomatch	moins	-1	1	p	0.61014
538.5844000000001	0.0	MOINS	60	verb	list	4	13	nomatch	moins	-1	1	p	0.61014
539.2508	0.0	+	60	verb	list	4	14	nomatch	moins	-1	1	p	0.61014
539.1945000000001	0.0	[response]	60	verb	list	4	15	nomatch	moins	-1	1	p	0.61014
541.0	0.0	+	61	verb	phrase	3	1	match	moins	4	1	y	0.74418
541.5497	0.2	ltfd	61	verb	phrase	3	2	match	moins	4	1	y	0.74418
541.7496	0.0	+	61	verb	phrase	3	3	match	moins	4	1	y	0.74418
542.1495	0.2	tqdg	61	verb	phrase	3	4	match	moins	4	1	y	0.74418
542.3494000000001	0.0	+	61	verb	phrase	3	5	match	moins	4	1	y	0.74418
542.7492000000001	0.2	va	61	verb	phrase	3	6	match	moins	4	1	y	0.74418
542.9498	0.0	+	61	verb	phrase	3	7	match	moins	4	1	y	0.74418
543.3493000000001	0.2	moins	61	verb	phrase	3	8	match	moins	4	1	y	0.74418
543.5659	0.0	+	61	verb	phrase	3	9	match	moins	4	1	y	0.74418
543.9487	0.2	rouler	61	verb	phrase	3	10	match	moins	4	1	y	0.74418
544.1486	0.0	+	61	verb	phrase	3	11	match	moins	4	1	y	0.74418
544.5486000000001	0.0	+	61	verb	phrase	3	12	match	moins	4	1	y	0.74418
546.5475	0.0	MOINS	61	verb	phrase	3	13	match	moins	4	1	y	0.74418
547.3472	0.0	+	61	verb	phrase	3	14	match	moins	4	1	y	0.74418
547.2917	0.0	[response]	61	verb	phrase	3	15	match	moins	4	1	y	0.74418
548.9464	0.0	+	62	verb	list	1	1	match	vieux	5	1	y	0.51097
549.4962	0.2	vrfgsp	62	verb	list	1	2	match	vieux	5	1	y	0.51097
549.6961	0.0	+	62	verb	list	1	3	match	vieux	5	1	y	0.51097
550.0959	0.2	zfs	62	verb	list	1	4	match	vieux	5	1	y	0.51097
550.2958	0.0	+	62	verb	list	1	5	match	vieux	5	1	y	0.51097
550.6962000000001	0.2	hdmf	62	verb	list	1	6	match	vieux	5	1	y	0.51097
550.9127000000001	0.0	+	62	verb	list	1	7	match	vieux	5	1	y	0.51097
551.2961	0.2	hckfxq	62	verb	list	1	8	match	vieux	5	1	y	0.51097
551.4953	0.0	+	62	verb	list	1	9	match	vieux	5	1	y	0.51097
551.8952	0.2	vieux	62	verb	list	1	10	match	vieux	5	1	y	0.51097
552.0951	0.0	+	62	verb	list	1	11	match	vieux	5	1	y	0.51097
552.4949	0.0	+	62	verb	list	1	12	match	vieux	5	1	y	0.51097
554.4946	0.0	VIEUX	62	verb	list	1	13	match	vieux	5	1	y	0.51097
555.0604000000001	0.0	+	62	verb	list	1	14	match	vieux	5	1	y	0.51097
555.0056000000002	0.0	[response]	62	verb	list	1	15	match	vieux	5	1	y	0.51097
556.8929	0.0	+	63	verb	list	3	1	match	doit	3	1	y	0.58872
557.4427000000001	0.2	hsd	63	verb	list	3	2	match	doit	3	1	y	0.58872
557.6426	0.0	+	63	verb	list	3	3	match	doit	3	1	y	0.58872
558.0424	0.2	dztj	63	verb	list	3	4	match	doit	3	1	y	0.58872
558.2423	0.0	+	63	verb	list	3	5	match	doit	3	1	y	0.58872
558.6424000000001	0.2	doit	63	verb	list	3	6	match	doit	3	1	y	0.58872
558.8427	0.0	+	63	verb	list	3	7	match	doit	3	1	y	0.58872
559.2425000000001	0.2	grand	63	verb	list	3	8	match	doit	3	1	y	0.58872
559.4424	0.0	+	63	verb	list	3	9	match	doit	3	1	y	0.58872
559.8416000000001	0.2	parader	63	verb	list	3	10	match	doit	3	1	y	0.58872
560.0416	0.0	+	63	verb	list	3	11	match	doit	3	1	y	0.58872
560.4414	0.0	+	63	verb	list	3	12	match	doit	3	1	y	0.58872
562.4405	0.0	DOIT	63	verb	list	3	13	match	doit	3	1	y	0.58872
563.0902	0.0	+	63	verb	list	3	14	match	doit	3	1	y	0.58872
563.0292000000002	0.0	[response]	63	verb	list	3	15	match	doit	3	1	y	0.58872
564.8394000000001	0.0	+	64	verb	list	1	1	match	nouveau	5	1	y	0.46327000000000007
565.3892000000001	0.2	lkps	64	verb	list	1	2	match	nouveau	5	1	y	0.46327000000000007
565.5891	0.0	+	64	verb	list	1	3	match	nouveau	5	1	y	0.46327000000000007
565.9889000000001	0.2	scgn	64	verb	list	1	4	match	nouveau	5	1	y	0.46327000000000007
566.2057	0.0	+	64	verb	list	1	5	match	nouveau	5	1	y	0.46327000000000007
566.606	0.2	xl	64	verb	list	1	6	match	nouveau	5	1	y	0.46327000000000007
566.789	0.0	+	64	verb	list	1	7	match	nouveau	5	1	y	0.46327000000000007
567.1887	0.2	jsthprc	64	verb	list	1	8	match	nouveau	5	1	y	0.46327000000000007
567.3884	0.0	+	64	verb	list	1	9	match	nouveau	5	1	y	0.46327000000000007
567.7881	0.2	nouveau	64	verb	list	1	10	match	nouveau	5	1	y	0.46327000000000007
567.988	0.0	+	64	verb	list	1	11	match	nouveau	5	1	y	0.46327000000000007
568.3878000000001	0.0	+	64	verb	list	1	12	match	nouveau	5	1	y	0.46327000000000007
570.3870000000001	0.0	NOUVEAU	64	verb	list	1	13	match	nouveau	5	1	y	0.46327000000000007
570.9034	0.0	+	64	verb	list	1	14	match	nouveau	5	1	y	0.46327000000000007
570.8502000000001	0.0	[response]	64	verb	list	1	15	match	nouveau	5	1	y	0.46327000000000007
572.7859000000001	0.0	+	65	verb	list	1	1	nomatch	plonger	-1	1	p	0.57965
573.3356	0.2	fcsrml	65	verb	list	1	2	nomatch	plonger	-1	1	p	0.57965
573.5356	0.0	+	65	verb	list	1	3	nomatch	plonger	-1	1	p	0.57965
573.9359000000001	0.2	zfs	65	verb	list	1	4	nomatch	plonger	-1	1	p	0.57965
574.1526	0.0	+	65	verb	list	1	5	nomatch	plonger	-1	1	p	0.57965
574.5354	0.2	hdmf	65	verb	list	1	6	nomatch	plonger	-1	1	p	0.57965
574.735	0.0	+	65	verb	list	1	7	nomatch	plonger	-1	1	p	0.57965
575.1349	0.2	jnzbl	65	verb	list	1	8	nomatch	plonger	-1	1	p	0.57965
575.3348000000001	0.0	+	65	verb	list	1	9	nomatch	plonger	-1	1	p	0.57965
575.7346	0.2	parader	65	verb	list	1	10	nomatch	plonger	-1	1	p	0.57965
575.9345000000001	0.0	+	65	verb	list	1	11	nomatch	plonger	-1	1	p	0.57965
576.3343	0.0	+	65	verb	list	1	12	nomatch	plonger	-1	1	p	0.57965
578.3501	0.0	PLONGER	65	verb	list	1	13	nomatch	plonger	-1	1	p	0.57965
578.9832	0.0	+	65	verb	list	1	14	nomatch	plonger	-1	1	p	0.57965
578.9298	0.0	[response]	65	verb	list	1	15	nomatch	plonger	-1	1	p	0.57965
588.7455	0.0	+	66	verb	phrase	1	1	nomatch	casier	-1	1	p	0.59376
589.2953	0.2	tmp	66	verb	phrase	1	2	nomatch	casier	-1	1	p	0.59376
589.5125	0.0	+	66	verb	phrase	1	3	nomatch	casier	-1	1	p	0.59376
589.8953	0.2	sndq	66	verb	phrase	1	4	nomatch	casier	-1	1	p	0.59376
590.095	0.0	+	66	verb	phrase	1	5	nomatch	casier	-1	1	p	0.59376
590.4953	0.2	xl	66	verb	phrase	1	6	nomatch	casier	-1	1	p	0.59376
590.6951	0.0	+	66	verb	phrase	1	7	nomatch	casier	-1	1	p	0.59376
591.0945	0.2	nhsjqxr	66	verb	phrase	1	8	nomatch	casier	-1	1	p	0.59376
591.2944	0.0	+	66	verb	phrase	1	9	nomatch	casier	-1	1	p	0.59376
591.6942	0.2	tard	66	verb	phrase	1	10	nomatch	casier	-1	1	p	0.59376
591.8941	0.0	+	66	verb	phrase	1	11	nomatch	casier	-1	1	p	0.59376
592.2939	0.0	+	66	verb	phrase	1	12	nomatch	casier	-1	1	p	0.59376
594.2937000000001	0.0	CASIER	66	verb	phrase	1	13	nomatch	casier	-1	1	p	0.59376
595.0097000000001	0.0	+	66	verb	phrase	1	14	nomatch	casier	-1	1	p	0.59376
594.8875	0.0	[response]	66	verb	phrase	1	15	nomatch	casier	-1	1	p	0.59376
596.6923	0.0	+	67	verb	phrase	1	1	nomatch	tard	-1	1	p	0.4572
597.2422	0.2	gdjp	67	verb	phrase	1	2	nomatch	tard	-1	1	p	0.4572
597.4419	0.0	+	67	verb	phrase	1	3	nomatch	tard	-1	1	p	0.4572
597.8415	0.2	xgsj	67	verb	phrase	1	4	nomatch	tard	-1	1	p	0.4572
598.0414000000001	0.0	+	67	verb	phrase	1	5	nomatch	tard	-1	1	p	0.4572
598.4415	0.2	hdmf	67	verb	phrase	1	6	nomatch	tard	-1	1	p	0.4572
598.6411	0.0	+	67	verb	phrase	1	7	nomatch	tard	-1	1	p	0.4572
599.041	0.2	hckfxq	67	verb	phrase	1	8	nomatch	tard	-1	1	p	0.4572
599.2409	0.0	+	67	verb	phrase	1	9	nomatch	tard	-1	1	p	0.4572
599.6407	0.2	vite	67	verb	phrase	1	10	nomatch	tard	-1	1	p	0.4572
599.8406	0.0	+	67	verb	phrase	1	11	nomatch	tard	-1	1	p	0.4572
600.2404	0.0	+	67	verb	phrase	1	12	nomatch	tard	-1	1	p	0.4572
602.2399	0.0	TARD	67	verb	phrase	1	13	nomatch	tard	-1	1	p	0.4572
602.7560000000001	0.0	+	67	verb	phrase	1	14	nomatch	tard	-1	1	p	0.4572
602.6971000000001	0.0	[response]	67	verb	phrase	1	15	nomatch	tard	-1	1	p	0.4572
612.6349	0.0	+	68	verb	phrase	4	1	nomatch	beaucoup	-1	1	p	0.8297600000000002
613.1847	0.2	mlk	68	verb	phrase	4	2	nomatch	beaucoup	-1	1	p	0.8297600000000002
613.3852	0.0	+	68	verb	phrase	4	3	nomatch	beaucoup	-1	1	p	0.8297600000000002
613.7844	0.2	jade	68	verb	phrase	4	4	nomatch	beaucoup	-1	1	p	0.8297600000000002
613.985	0.0	+	68	verb	phrase	4	5	nomatch	beaucoup	-1	1	p	0.8297600000000002
614.3848	0.2	peut	68	verb	phrase	4	6	nomatch	beaucoup	-1	1	p	0.8297600000000002
614.5847	0.0	+	68	verb	phrase	4	7	nomatch	beaucoup	-1	1	p	0.8297600000000002
614.9839000000001	0.2	parader	68	verb	phrase	4	8	nomatch	beaucoup	-1	1	p	0.8297600000000002
615.1838	0.0	+	68	verb	phrase	4	9	nomatch	beaucoup	-1	1	p	0.8297600000000002
615.5840000000001	0.2	tôt	68	verb	phrase	4	10	nomatch	beaucoup	-1	1	p	0.8297600000000002
615.7843	0.0	+	68	verb	phrase	4	11	nomatch	beaucoup	-1	1	p	0.8297600000000002
616.217	0.0	+	68	verb	phrase	4	12	nomatch	beaucoup	-1	1	p	0.8297600000000002
618.1991	0.0	BEAUCOUP	68	verb	phrase	4	13	nomatch	beaucoup	-1	1	p	0.8297600000000002
619.0821000000001	0.0	+	68	verb	phrase	4	14	nomatch	beaucoup	-1	1	p	0.8297600000000002
619.0289	0.0	[response]	68	verb	phrase	4	15	nomatch	beaucoup	-1	1	p	0.8297600000000002
620.5981	0.0	+	69	verb	phrase	4	1	nomatch	son	-1	1	p	0.79037
621.1478000000001	0.2	lndgr	69	verb	phrase	4	2	nomatch	son	-1	1	p	0.79037
621.3477	0.0	+	69	verb	phrase	4	3	nomatch	son	-1	1	p	0.79037
621.7476	0.2	paul	69	verb	phrase	4	4	nomatch	son	-1	1	p	0.79037
621.9475	0.0	+	69	verb	phrase	4	5	nomatch	son	-1	1	p	0.79037
622.3473	0.2	va	69	verb	phrase	4	6	nomatch	son	-1	1	p	0.79037
622.5472000000001	0.0	+	69	verb	phrase	4	7	nomatch	son	-1	1	p	0.79037
622.947	0.2	mieux	69	verb	phrase	4	8	nomatch	son	-1	1	p	0.79037
623.1473000000001	0.0	+	69	verb	phrase	4	9	nomatch	son	-1	1	p	0.79037
623.5468000000001	0.2	nager	69	verb	phrase	4	10	nomatch	son	-1	1	p	0.79037
623.7474000000001	0.0	+	69	verb	phrase	4	11	nomatch	son	-1	1	p	0.79037
624.1466	0.0	+	69	verb	phrase	4	12	nomatch	son	-1	1	p	0.79037
626.1456000000001	0.0	SON	69	verb	phrase	4	13	nomatch	son	-1	1	p	0.79037
627.0626000000001	0.0	+	69	verb	phrase	4	14	nomatch	son	-1	1	p	0.79037
626.936	0.0	[response]	69	verb	phrase	4	15	nomatch	son	-1	1	p	0.79037
628.5445000000001	0.0	+	70	verb	phrase	1	1	match	trop	5	1	y	0.48149
629.0943000000001	0.2	qmvr	70	verb	phrase	1	2	match	trop	5	1	y	0.48149
629.2942	0.0	+	70	verb	phrase	1	3	match	trop	5	1	y	0.48149
629.6940000000001	0.2	mqlx	70	verb	phrase	1	4	match	trop	5	1	y	0.48149
629.8939	0.0	+	70	verb	phrase	1	5	match	trop	5	1	y	0.48149
630.2945000000001	0.2	hdmf	70	verb	phrase	1	6	match	trop	5	1	y	0.48149
630.5110000000001	0.0	+	70	verb	phrase	1	7	match	trop	5	1	y	0.48149
630.8941	0.2	bhmgwtn	70	verb	phrase	1	8	match	trop	5	1	y	0.48149
631.0935000000001	0.0	+	70	verb	phrase	1	9	match	trop	5	1	y	0.48149
631.4938000000001	0.2	trop	70	verb	phrase	1	10	match	trop	5	1	y	0.48149
631.6932	0.0	+	70	verb	phrase	1	11	match	trop	5	1	y	0.48149
632.0930000000001	0.0	+	70	verb	phrase	1	12	match	trop	5	1	y	0.48149
634.0926000000001	0.0	TROP	70	verb	phrase	1	13	match	trop	5	1	y	0.48149
634.6418	0.0	+	70	verb	phrase	1	14	match	trop	5	1	y	0.48149
634.5741	0.0	[response]	70	verb	phrase	1	15	match	trop	5	1	y	0.48149
636.5082	0.0	+	71	verb	list	4	1	match	son	3	1	y	0.52925
637.0412	0.2	jqsd	71	verb	list	4	2	match	son	3	1	y	0.52925
637.2411000000001	0.0	+	71	verb	list	4	3	match	son	3	1	y	0.52925
637.6573000000001	0.2	jean	71	verb	list	4	4	match	son	3	1	y	0.52925
637.8404	0.0	+	71	verb	list	4	5	match	son	3	1	y	0.52925
638.2402000000001	0.2	son	71	verb	list	4	6	match	son	3	1	y	0.52925
638.4402	0.0	+	71	verb	list	4	7	match	son	3	1	y	0.52925
638.84	0.2	voyager	71	verb	list	4	8	match	son	3	1	y	0.52925
639.0399	0.0	+	71	verb	list	4	9	match	son	3	1	y	0.52925
639.4397	0.2	vert	71	verb	list	4	10	match	son	3	1	y	0.52925
639.6396000000001	0.0	+	71	verb	list	4	11	match	son	3	1	y	0.52925
640.0395000000001	0.0	+	71	verb	list	4	12	match	son	3	1	y	0.52925
642.039	0.0	SON	71	verb	list	4	13	match	son	3	1	y	0.52925
642.6884	0.0	+	71	verb	list	4	14	match	son	3	1	y	0.52925
642.5683	0.0	[response]	71	verb	list	4	15	match	son	3	1	y	0.52925
660.4471000000001	0.0	+	72	verb	list	1	1	match	noir	5	1	y	0.48317000000000004
660.9969	0.2	jtmp	72	verb	list	1	2	match	noir	5	1	y	0.48317000000000004
661.1968	0.0	+	72	verb	list	1	3	match	noir	5	1	y	0.48317000000000004
661.5966000000001	0.2	nqwz	72	verb	list	1	4	match	noir	5	1	y	0.48317000000000004
661.7965	0.0	+	72	verb	list	1	5	match	noir	5	1	y	0.48317000000000004
662.1963000000001	0.2	bxp	72	verb	list	1	6	match	noir	5	1	y	0.48317000000000004
662.3962	0.0	+	72	verb	list	1	7	match	noir	5	1	y	0.48317000000000004
662.7961	0.2	txfsck	72	verb	list	1	8	match	noir	5	1	y	0.48317000000000004
662.996	0.0	+	72	verb	list	1	9	match	noir	5	1	y	0.48317000000000004
663.3961	0.2	noir	72	verb	list	1	10	match	noir	5	1	y	0.48317000000000004
663.5959	0.0	+	72	verb	list	1	11	match	noir	5	1	y	0.48317000000000004
663.9962	0.0	+	72	verb	list	1	12	match	noir	5	1	y	0.48317000000000004
665.9946	0.0	NOIR	72	verb	list	1	13	match	noir	5	1	y	0.48317000000000004
666.5444	0.0	+	72	verb	list	1	14	match	noir	5	1	y	0.48317000000000004
666.4778	0.0	[response]	72	verb	list	1	15	match	noir	5	1	y	0.48317000000000004
668.3936	0.0	+	73	verb	list	2	1	match	jongler	5	1	y	0.45049
668.9433	0.2	dklph	73	verb	list	2	2	match	jongler	5	1	y	0.45049
669.1432	0.0	+	73	verb	list	2	3	match	jongler	5	1	y	0.45049
669.5431	0.2	zfs	73	verb	list	2	4	match	jongler	5	1	y	0.45049
669.7435	0.0	+	73	verb	list	2	5	match	jongler	5	1	y	0.45049
670.1431	0.2	hdmf	73	verb	list	2	6	match	jongler	5	1	y	0.45049
670.3430000000001	0.0	+	73	verb	list	2	7	match	jongler	5	1	y	0.45049
670.743	0.2	petit	73	verb	list	2	8	match	jongler	5	1	y	0.45049
670.9424	0.0	+	73	verb	list	2	9	match	jongler	5	1	y	0.45049
671.3423	0.2	jongler	73	verb	list	2	10	match	jongler	5	1	y	0.45049
671.5422	0.0	+	73	verb	list	2	11	match	jongler	5	1	y	0.45049
671.942	0.0	+	73	verb	list	2	12	match	jongler	5	1	y	0.45049
673.9411	0.0	JONGLER	73	verb	list	2	13	match	jongler	5	1	y	0.45049
674.4578	0.0	+	73	verb	list	2	14	match	jongler	5	1	y	0.45049
674.3916	0.0	[response]	73	verb	list	2	15	match	jongler	5	1	y	0.45049
676.34	0.0	+	74	verb	phrase	1	1	match	plonger	5	1	y	0.47032
676.8898	0.2	xdlwj	74	verb	phrase	1	2	match	plonger	5	1	y	0.47032
677.0897	0.0	+	74	verb	phrase	1	3	match	plonger	5	1	y	0.47032
677.4896	0.2	tgm	74	verb	phrase	1	4	match	plonger	5	1	y	0.47032
677.6895000000001	0.0	+	74	verb	phrase	1	5	match	plonger	5	1	y	0.47032
678.0893	0.2	xl	74	verb	phrase	1	6	match	plonger	5	1	y	0.47032
678.2892	0.0	+	74	verb	phrase	1	7	match	plonger	5	1	y	0.47032
678.6890000000001	0.2	jfpc	74	verb	phrase	1	8	match	plonger	5	1	y	0.47032
678.8889	0.0	+	74	verb	phrase	1	9	match	plonger	5	1	y	0.47032
679.2888	0.2	plonger	74	verb	phrase	1	10	match	plonger	5	1	y	0.47032
679.4892	0.0	+	74	verb	phrase	1	11	match	plonger	5	1	y	0.47032
679.8889	0.0	+	74	verb	phrase	1	12	match	plonger	5	1	y	0.47032
681.8876	0.0	PLONGER	74	verb	phrase	1	13	match	plonger	5	1	y	0.47032
682.4207	0.0	+	74	verb	phrase	1	14	match	plonger	5	1	y	0.47032
682.3579000000001	0.0	[response]	74	verb	phrase	1	15	match	plonger	5	1	y	0.47032
684.2869000000001	0.0	+	75	verb	list	4	1	nomatch	peut	-1	1	p	0.68001
684.8369	0.2	zkbc	75	verb	list	4	2	nomatch	peut	-1	1	p	0.68001
685.0366	0.0	+	75	verb	list	4	3	nomatch	peut	-1	1	p	0.68001
685.4365	0.2	sous	75	verb	list	4	4	nomatch	peut	-1	1	p	0.68001
685.6362	0.0	+	75	verb	list	4	5	nomatch	peut	-1	1	p	0.68001
686.0358	0.2	va	75	verb	list	4	6	nomatch	peut	-1	1	p	0.68001
686.2357000000001	0.0	+	75	verb	list	4	7	nomatch	peut	-1	1	p	0.68001
686.6528000000001	0.2	nouveau	75	verb	list	4	8	nomatch	peut	-1	1	p	0.68001
686.8358000000001	0.0	+	75	verb	list	4	9	nomatch	peut	-1	1	p	0.68001
687.2359	0.2	patiner	75	verb	list	4	10	nomatch	peut	-1	1	p	0.68001
687.4522000000001	0.0	+	75	verb	list	4	11	nomatch	peut	-1	1	p	0.68001
687.835	0.0	+	75	verb	list	4	12	nomatch	peut	-1	1	p	0.68001
689.8341	0.0	PEUT	75	verb	list	4	13	nomatch	peut	-1	1	p	0.68001
690.5671	0.0	+	75	verb	list	4	14	nomatch	peut	-1	1	p	0.68001
690.5141	0.0	[response]	75	verb	list	4	15	nomatch	peut	-1	1	p	0.68001
692.2497000000001	0.0	+	76	verb	phrase	4	1	nomatch	avec	-1	1	p	0.8579
692.7994	0.2	xgdtwvb	76	verb	phrase	4	2	nomatch	avec	-1	1	p	0.8579
692.9994	0.0	+	76	verb	phrase	4	3	nomatch	avec	-1	1	p	0.8579
693.3992000000001	0.2	adam	76	verb	phrase	4	4	nomatch	avec	-1	1	p	0.8579
693.5991	0.0	+	76	verb	phrase	4	5	nomatch	avec	-1	1	p	0.8579
693.9989	0.2	peut	76	verb	phrase	4	6	nomatch	avec	-1	1	p	0.8579
694.2161	0.0	+	76	verb	phrase	4	7	nomatch	avec	-1	1	p	0.8579
694.5989000000001	0.2	patiner	76	verb	phrase	4	8	nomatch	avec	-1	1	p	0.8579
694.7989	0.0	+	76	verb	phrase	4	9	nomatch	avec	-1	1	p	0.8579
695.1990000000001	0.2	ainsi	76	verb	phrase	4	10	nomatch	avec	-1	1	p	0.8579
695.3987000000001	0.0	+	76	verb	phrase	4	11	nomatch	avec	-1	1	p	0.8579
695.7981000000001	0.0	+	76	verb	phrase	4	12	nomatch	avec	-1	1	p	0.8579
697.7973000000001	0.0	AVEC	76	verb	phrase	4	13	nomatch	avec	-1	1	p	0.8579
698.7135000000001	0.0	+	76	verb	phrase	4	14	nomatch	avec	-1	1	p	0.8579
698.6552	0.0	[response]	76	verb	phrase	4	15	nomatch	avec	-1	1	p	0.8579
700.1963000000001	0.0	+	77	verb	list	4	1	match	danser	4	1	y	0.47337
700.7633000000001	0.2	hpsgwt	77	verb	list	4	2	match	danser	4	1	y	0.47337
700.9463000000001	0.0	+	77	verb	list	4	3	match	danser	4	1	y	0.47337
701.3457000000001	0.2	yves	77	verb	list	4	4	match	danser	4	1	y	0.47337
701.5461	0.0	+	77	verb	list	4	5	match	danser	4	1	y	0.47337
701.9454000000001	0.2	mon	77	verb	list	4	6	match	danser	4	1	y	0.47337
702.1453	0.0	+	77	verb	list	4	7	match	danser	4	1	y	0.47337
702.5451	0.2	danser	77	verb	list	4	8	match	danser	4	1	y	0.47337
702.745	0.0	+	77	verb	list	4	9	match	danser	4	1	y	0.47337
703.1449	0.2	noir	77	verb	list	4	10	match	danser	4	1	y	0.47337
703.3448000000001	0.0	+	77	verb	list	4	11	match	danser	4	1	y	0.47337
703.7446	0.0	+	77	verb	list	4	12	match	danser	4	1	y	0.47337
705.7441	0.0	DANSER	77	verb	list	4	13	match	danser	4	1	y	0.47337
706.3108000000001	0.0	+	77	verb	list	4	14	match	danser	4	1	y	0.47337
706.2174	0.0	[response]	77	verb	list	4	15	match	danser	4	1	y	0.47337
724.1356000000001	0.0	+	78	verb	list	2	1	nomatch	grenier	-1	1	p	0.68323
724.686	0.2	pnm	78	verb	list	2	2	nomatch	grenier	-1	1	p	0.68323
724.9025	0.0	+	78	verb	list	2	3	nomatch	grenier	-1	1	p	0.68323
725.2855000000001	0.2	tqdg	78	verb	list	2	4	nomatch	grenier	-1	1	p	0.68323
725.485	0.0	+	78	verb	list	2	5	nomatch	grenier	-1	1	p	0.68323
725.8848	0.2	jtp	78	verb	list	2	6	nomatch	grenier	-1	1	p	0.68323
726.0847	0.0	+	78	verb	list	2	7	nomatch	grenier	-1	1	p	0.68323
726.4845	0.2	parader	78	verb	list	2	8	nomatch	grenier	-1	1	p	0.68323
726.6844	0.0	+	78	verb	list	2	9	nomatch	grenier	-1	1	p	0.68323
727.0843	0.2	vert	78	verb	list	2	10	nomatch	grenier	-1	1	p	0.68323
727.2842	0.0	+	78	verb	list	2	11	nomatch	grenier	-1	1	p	0.68323
727.6840000000001	0.0	+	78	verb	list	2	12	nomatch	grenier	-1	1	p	0.68323
729.7004000000001	0.0	GRENIER	78	verb	list	2	13	nomatch	grenier	-1	1	p	0.68323
730.4835	0.0	+	78	verb	list	2	14	nomatch	grenier	-1	1	p	0.68323
730.3836	0.0	[response]	78	verb	list	2	15	nomatch	grenier	-1	1	p	0.68323
748.125	0.0	+	79	verb	list	2	1	nomatch	mon	-1	1	p	0.87251
748.6418	0.2	tsvp	79	verb	list	2	2	nomatch	mon	-1	1	p	0.87251
748.842	0.0	+	79	verb	list	2	3	nomatch	mon	-1	1	p	0.87251
749.2411000000001	0.2	tqdg	79	verb	list	2	4	nomatch	mon	-1	1	p	0.87251
749.441	0.0	+	79	verb	list	2	5	nomatch	mon	-1	1	p	0.87251
749.841	0.2	jtp	79	verb	list	2	6	nomatch	mon	-1	1	p	0.87251
750.0412	0.0	+	79	verb	list	2	7	nomatch	mon	-1	1	p	0.87251
750.4406	0.2	danser	79	verb	list	2	8	nomatch	mon	-1	1	p	0.87251
750.6405000000001	0.0	+	79	verb	list	2	9	nomatch	mon	-1	1	p	0.87251
751.0403	0.2	rouge	79	verb	list	2	10	nomatch	mon	-1	1	p	0.87251
751.2572	0.0	+	79	verb	list	2	11	nomatch	mon	-1	1	p	0.87251
751.6401000000001	0.0	+	79	verb	list	2	12	nomatch	mon	-1	1	p	0.87251
753.6392000000001	0.0	MON	79	verb	list	2	13	nomatch	mon	-1	1	p	0.87251
754.5721000000001	0.0	+	79	verb	list	2	14	nomatch	mon	-1	1	p	0.87251
754.5117	0.0	[response]	79	verb	list	2	15	nomatch	mon	-1	1	p	0.87251
756.0381	0.0	+	80	verb	list	2	1	match	jongler	4	1	y	0.51531
756.5879	0.2	wnjrt	80	verb	list	2	2	match	jongler	4	1	y	0.51531
756.7878000000001	0.0	+	80	verb	list	2	3	match	jongler	4	1	y	0.51531
757.1876000000001	0.2	fnth	80	verb	list	2	4	match	jongler	4	1	y	0.51531
757.3882	0.0	+	80	verb	list	2	5	match	jongler	4	1	y	0.51531
757.788	0.2	jtp	80	verb	list	2	6	match	jongler	4	1	y	0.51531
757.9873	0.0	+	80	verb	list	2	7	match	jongler	4	1	y	0.51531
758.4044	0.2	jongler	80	verb	list	2	8	match	jongler	4	1	y	0.51531
758.5875000000001	0.0	+	80	verb	list	2	9	match	jongler	4	1	y	0.51531
758.9868	0.2	noir	80	verb	list	2	10	match	jongler	4	1	y	0.51531
759.1867000000001	0.0	+	80	verb	list	2	11	match	jongler	4	1	y	0.51531
759.5865	0.0	+	80	verb	list	2	12	match	jongler	4	1	y	0.51531
761.5856	0.0	JONGLER	80	verb	list	2	13	match	jongler	4	1	y	0.51531
762.1687000000001	0.0	+	80	verb	list	2	14	match	jongler	4	1	y	0.51531
763.9846	0.0	+	80	verb	list	2	15	match	jongler	4	1	y	0.51531
765.0175	0.0	+	80	verb	list	2	16	match	jongler	4	1	y	0.51531
765.1174000000001	0.0	+	80	verb	list	2	17	match	jongler	4	1	y	0.51531
766.5168	0.0	+	80	verb	list	2	18	match	jongler	4	1	y	0.51531
766.6167	0.0	+	80	verb	list	2	19	match	jongler	4	1	y	0.51531
768.0161	0.0	+	80	verb	list	2	20	match	jongler	4	1	y	0.51531
768.1161000000001	0.0	+	80	verb	list	2	21	match	jongler	4	1	y	0.51531
769.5155000000001	0.0	+	80	verb	list	2	22	match	jongler	4	1	y	0.51531
769.6154	0.0	+	80	verb	list	2	23	match	jongler	4	1	y	0.51531
771.0148	0.0	+	80	verb	list	2	24	match	jongler	4	1	y	0.51531
771.1148000000001	0.0	+	80	verb	list	2	25	match	jongler	4	1	y	0.51531
772.5141	0.0	+	80	verb	list	2	26	match	jongler	4	1	y	0.51531
772.6141	0.0	+	80	verb	list	2	27	match	jongler	4	1	y	0.51531
774.0135	0.0	+	80	verb	list	2	28	match	jongler	4	1	y	0.51531
774.1134000000001	0.0	+	80	verb	list	2	29	match	jongler	4	1	y	0.51531
775.5128000000001	0.0	+	80	verb	list	2	30	match	jongler	4	1	y	0.51531
775.6128	0.0	+	80	verb	list	2	31	match	jongler	4	1	y	0.51531
777.0121	0.0	+	80	verb	list	2	32	match	jongler	4	1	y	0.51531
777.1121	0.0	+	80	verb	list	2	33	match	jongler	4	1	y	0.51531
778.5115000000001	0.0	+	80	verb	list	2	34	match	jongler	4	1	y	0.51531
778.6114	0.0	+	80	verb	list	2	35	match	jongler	4	1	y	0.51531
784.3422	0.0	+	80	verb	list	2	36	match	jongler	4	1	y	0.51531
762.1009	0.0	[response]	80	verb	list	2	37	match	jongler	4	1	y	0.51531
