onset	duration	stim	trial_number	trial_type	trial_structure	trial_length	sequential_position	probe_type	probe	probe_position	response_correct	response_key	response_time
0.05870000000000175	0.0	+	1	noun	phrase	1	1	nomatch	grenier	-1	1	p	0.54733
0.5418000000000021	0.2	fxlhc	1	noun	phrase	1	2	nomatch	grenier	-1	1	p	0.54733
0.7417000000000016	0.0	+	1	noun	phrase	1	3	nomatch	grenier	-1	1	p	0.54733
1.1415000000000006	0.2	zfs	1	noun	phrase	1	4	nomatch	grenier	-1	1	p	0.54733
1.3414000000000001	0.0	+	1	noun	phrase	1	5	nomatch	grenier	-1	1	p	0.54733
1.7412999999999954	0.2	bxp	1	noun	phrase	1	6	nomatch	grenier	-1	1	p	0.54733
1.941200000000002	0.0	+	1	noun	phrase	1	7	nomatch	grenier	-1	1	p	0.54733
2.341000000000001	0.2	xfps	1	noun	phrase	1	8	nomatch	grenier	-1	1	p	0.54733
2.5409000000000006	0.0	+	1	noun	phrase	1	9	nomatch	grenier	-1	1	p	0.54733
2.9406999999999996	0.2	casier	1	noun	phrase	1	10	nomatch	grenier	-1	1	p	0.54733
3.140599999999999	0.0	+	1	noun	phrase	1	11	nomatch	grenier	-1	1	p	0.54733
3.5405000000000015	0.0	+	1	noun	phrase	1	12	nomatch	grenier	-1	1	p	0.54733
5.5396	0.0	GRENIER	1	noun	phrase	1	13	nomatch	grenier	-1	1	p	0.54733
6.139300000000006	0.0	+	1	noun	phrase	1	14	nomatch	grenier	-1	1	p	0.54733
6.0869	0.0	[response]	1	noun	phrase	1	15	nomatch	grenier	-1	1	p	0.54733
7.938500000000005	0.0	+	2	noun	phrase	1	1	nomatch	voyager	-1	1	p	0.52759
8.488299999999995	0.2	wrnjf	2	noun	phrase	1	2	nomatch	voyager	-1	1	p	0.52759
8.688199999999995	0.0	+	2	noun	phrase	1	3	nomatch	voyager	-1	1	p	0.52759
9.105199999999996	0.2	scgn	2	noun	phrase	1	4	nomatch	voyager	-1	1	p	0.52759
9.288200000000003	0.0	+	2	noun	phrase	1	5	nomatch	voyager	-1	1	p	0.52759
9.688400000000001	0.2	bxp	2	noun	phrase	1	6	nomatch	voyager	-1	1	p	0.52759
9.888000000000005	0.0	+	2	noun	phrase	1	7	nomatch	voyager	-1	1	p	0.52759
10.287499999999994	0.2	pxsvhwg	2	noun	phrase	1	8	nomatch	voyager	-1	1	p	0.52759
10.487399999999994	0.0	+	2	noun	phrase	1	9	nomatch	voyager	-1	1	p	0.52759
10.887199999999993	0.2	voilier	2	noun	phrase	1	10	nomatch	voyager	-1	1	p	0.52759
11.087099999999992	0.0	+	2	noun	phrase	1	11	nomatch	voyager	-1	1	p	0.52759
11.486900000000006	0.0	+	2	noun	phrase	1	12	nomatch	voyager	-1	1	p	0.52759
13.486599999999996	0.0	VOYAGER	2	noun	phrase	1	13	nomatch	voyager	-1	1	p	0.52759
14.069100000000006	0.0	+	2	noun	phrase	1	14	nomatch	voyager	-1	1	p	0.52759
14.014200000000002	0.0	[response]	2	noun	phrase	1	15	nomatch	voyager	-1	1	p	0.52759
15.885000000000005	0.0	+	3	noun	list	1	1	nomatch	vert	-1	1	p	0.48698
16.451999999999998	0.2	xklvgh	3	noun	list	1	2	nomatch	vert	-1	1	p	0.48698
16.6353	0.0	+	3	noun	list	1	3	nomatch	vert	-1	1	p	0.48698
17.034499999999994	0.2	xgsj	3	noun	list	1	4	nomatch	vert	-1	1	p	0.48698
17.234899999999996	0.0	+	3	noun	list	1	5	nomatch	vert	-1	1	p	0.48698
17.634199999999993	0.2	fpzv	3	noun	list	1	6	nomatch	vert	-1	1	p	0.48698
17.834099999999992	0.0	+	3	noun	list	1	7	nomatch	vert	-1	1	p	0.48698
18.233900000000006	0.2	frqlpb	3	noun	list	1	8	nomatch	vert	-1	1	p	0.48698
18.433899999999994	0.0	+	3	noun	list	1	9	nomatch	vert	-1	1	p	0.48698
18.833699999999993	0.2	plus	3	noun	list	1	10	nomatch	vert	-1	1	p	0.48698
19.033599999999993	0.0	+	3	noun	list	1	11	nomatch	vert	-1	1	p	0.48698
19.450599999999994	0.0	+	3	noun	list	1	12	nomatch	vert	-1	1	p	0.48698
21.449200000000005	0.0	VERT	3	noun	list	1	13	nomatch	vert	-1	1	p	0.48698
21.998899999999992	0.0	+	3	noun	list	1	14	nomatch	vert	-1	1	p	0.48698
21.9362	0.0	[response]	3	noun	list	1	15	nomatch	vert	-1	1	p	0.48698
23.848100000000002	0.0	+	4	noun	phrase	2	1	nomatch	petit	-1	1	p	0.60682
24.397899999999993	0.2	tdpbgzr	4	noun	phrase	2	2	nomatch	petit	-1	1	p	0.60682
24.597799999999992	0.0	+	4	noun	phrase	2	3	nomatch	petit	-1	1	p	0.60682
24.997600000000006	0.2	dztj	4	noun	phrase	2	4	nomatch	petit	-1	1	p	0.60682
25.197500000000005	0.0	+	4	noun	phrase	2	5	nomatch	petit	-1	1	p	0.60682
25.597399999999993	0.2	jtp	4	noun	phrase	2	6	nomatch	petit	-1	1	p	0.60682
25.7979	0.0	+	4	noun	phrase	2	7	nomatch	petit	-1	1	p	0.60682
26.197500000000005	0.2	vieux	4	noun	phrase	2	8	nomatch	petit	-1	1	p	0.60682
26.397199999999998	0.0	+	4	noun	phrase	2	9	nomatch	petit	-1	1	p	0.60682
26.796800000000005	0.2	voilier	4	noun	phrase	2	10	nomatch	petit	-1	1	p	0.60682
26.996700000000004	0.0	+	4	noun	phrase	2	11	nomatch	petit	-1	1	p	0.60682
27.396599999999992	0.0	+	4	noun	phrase	2	12	nomatch	petit	-1	1	p	0.60682
29.395700000000005	0.0	PETIT	4	noun	phrase	2	13	nomatch	petit	-1	1	p	0.60682
30.061999999999998	0.0	+	4	noun	phrase	2	14	nomatch	petit	-1	1	p	0.60682
30.002499999999998	0.0	[response]	4	noun	phrase	2	15	nomatch	petit	-1	1	p	0.60682
31.794600000000003	0.0	+	5	noun	phrase	2	1	nomatch	beaucoup	-1	1	p	0.5757900000000001
32.34439999999999	0.2	vlwj	5	noun	phrase	2	2	nomatch	beaucoup	-1	1	p	0.5757900000000001
32.54429999999999	0.0	+	5	noun	phrase	2	3	nomatch	beaucoup	-1	1	p	0.5757900000000001
32.944599999999994	0.2	xwtz	5	noun	phrase	2	4	nomatch	beaucoup	-1	1	p	0.5757900000000001
33.144499999999994	0.0	+	5	noun	phrase	2	5	nomatch	beaucoup	-1	1	p	0.5757900000000001
33.543899999999994	0.2	bxp	5	noun	phrase	2	6	nomatch	beaucoup	-1	1	p	0.5757900000000001
33.74379999999999	0.0	+	5	noun	phrase	2	7	nomatch	beaucoup	-1	1	p	0.5757900000000001
34.14359999999999	0.2	tablier	5	noun	phrase	2	8	nomatch	beaucoup	-1	1	p	0.5757900000000001
34.343500000000006	0.0	+	5	noun	phrase	2	9	nomatch	beaucoup	-1	1	p	0.5757900000000001
34.743300000000005	0.2	rouge	5	noun	phrase	2	10	nomatch	beaucoup	-1	1	p	0.5757900000000001
34.943200000000004	0.0	+	5	noun	phrase	2	11	nomatch	beaucoup	-1	1	p	0.5757900000000001
35.343	0.0	+	5	noun	phrase	2	12	nomatch	beaucoup	-1	1	p	0.5757900000000001
37.3428	0.0	BEAUCOUP	5	noun	phrase	2	13	nomatch	beaucoup	-1	1	p	0.5757900000000001
37.99249999999999	0.0	+	5	noun	phrase	2	14	nomatch	beaucoup	-1	1	p	0.5757900000000001
37.91860000000001	0.0	[response]	5	noun	phrase	2	15	nomatch	beaucoup	-1	1	p	0.5757900000000001
39.7411	0.0	+	6	noun	list	1	1	nomatch	cendrier	-1	1	p	0.64322
40.29089999999999	0.2	rmxndt	6	noun	list	1	2	nomatch	cendrier	-1	1	p	0.64322
40.490899999999996	0.0	+	6	noun	list	1	3	nomatch	cendrier	-1	1	p	0.64322
40.8909	0.2	fnth	6	noun	list	1	4	nomatch	cendrier	-1	1	p	0.64322
41.090999999999994	0.0	+	6	noun	list	1	5	nomatch	cendrier	-1	1	p	0.64322
41.490300000000005	0.2	bxp	6	noun	list	1	6	nomatch	cendrier	-1	1	p	0.64322
41.690200000000004	0.0	+	6	noun	list	1	7	nomatch	cendrier	-1	1	p	0.64322
42.09	0.2	rnsjd	6	noun	list	1	8	nomatch	cendrier	-1	1	p	0.64322
42.28999999999999	0.0	+	6	noun	list	1	9	nomatch	cendrier	-1	1	p	0.64322
42.689800000000005	0.2	boîtier	6	noun	list	1	10	nomatch	cendrier	-1	1	p	0.64322
42.889700000000005	0.0	+	6	noun	list	1	11	nomatch	cendrier	-1	1	p	0.64322
43.289500000000004	0.0	+	6	noun	list	1	12	nomatch	cendrier	-1	1	p	0.64322
45.2886	0.0	CENDRIER	6	noun	list	1	13	nomatch	cendrier	-1	1	p	0.64322
45.988299999999995	0.0	+	6	noun	list	1	14	nomatch	cendrier	-1	1	p	0.64322
45.9319	0.0	[response]	6	noun	list	1	15	nomatch	cendrier	-1	1	p	0.64322
47.6876	0.0	+	7	noun	list	4	1	nomatch	vite	-1	1	p	0.59494
48.237300000000005	0.2	dmpqcb	7	noun	list	4	2	nomatch	vite	-1	1	p	0.59494
48.437200000000004	0.0	+	7	noun	list	4	3	nomatch	vite	-1	1	p	0.59494
48.83709999999999	0.2	jade	7	noun	list	4	4	nomatch	vite	-1	1	p	0.59494
49.03699999999999	0.0	+	7	noun	list	4	5	nomatch	vite	-1	1	p	0.59494
49.436800000000005	0.2	mon	7	noun	list	4	6	nomatch	vite	-1	1	p	0.59494
49.636700000000005	0.0	+	7	noun	list	4	7	nomatch	vite	-1	1	p	0.59494
50.036699999999996	0.2	beaucoup	7	noun	list	4	8	nomatch	vite	-1	1	p	0.59494
50.2538	0.0	+	7	noun	list	4	9	nomatch	vite	-1	1	p	0.59494
50.636300000000006	0.2	boîtier	7	noun	list	4	10	nomatch	vite	-1	1	p	0.59494
50.836200000000005	0.0	+	7	noun	list	4	11	nomatch	vite	-1	1	p	0.59494
51.236000000000004	0.0	+	7	noun	list	4	12	nomatch	vite	-1	1	p	0.59494
53.2358	0.0	VITE	7	noun	list	4	13	nomatch	vite	-1	1	p	0.59494
53.9015	0.0	+	7	noun	list	4	14	nomatch	vite	-1	1	p	0.59494
53.83080000000001	0.0	[response]	7	noun	list	4	15	nomatch	vite	-1	1	p	0.59494
55.634100000000004	0.0	+	8	noun	phrase	3	1	nomatch	mon	-1	1	p	0.5421
56.1846	0.2	rstkj	8	noun	phrase	3	2	nomatch	mon	-1	1	p	0.5421
56.38419999999999	0.0	+	8	noun	phrase	3	3	nomatch	mon	-1	1	p	0.5421
56.7839	0.2	jwhm	8	noun	phrase	3	4	nomatch	mon	-1	1	p	0.5421
56.983999999999995	0.0	+	8	noun	phrase	3	5	nomatch	mon	-1	1	p	0.5421
57.400000000000006	0.2	leur	8	noun	phrase	3	6	nomatch	mon	-1	1	p	0.5421
57.599900000000005	0.0	+	8	noun	phrase	3	7	nomatch	mon	-1	1	p	0.5421
57.999700000000004	0.2	tablier	8	noun	phrase	3	8	nomatch	mon	-1	1	p	0.5421
58.199600000000004	0.0	+	8	noun	phrase	3	9	nomatch	mon	-1	1	p	0.5421
58.5994	0.2	rouge	8	noun	phrase	3	10	nomatch	mon	-1	1	p	0.5421
58.7993	0.0	+	8	noun	phrase	3	11	nomatch	mon	-1	1	p	0.5421
59.1991	0.0	+	8	noun	phrase	3	12	nomatch	mon	-1	1	p	0.5421
61.1983	0.0	MON	8	noun	phrase	3	13	nomatch	mon	-1	1	p	0.5421
61.798	0.0	+	8	noun	phrase	3	14	nomatch	mon	-1	1	p	0.5421
61.740399999999994	0.0	[response]	8	noun	phrase	3	15	nomatch	mon	-1	1	p	0.5421
63.5972	0.0	+	9	noun	list	4	1	match	jade	2	0	p	0.55366
64.1469	0.2	dptx	9	noun	list	4	2	match	jade	2	0	p	0.55366
64.3469	0.0	+	9	noun	list	4	3	match	jade	2	0	p	0.55366
64.7467	0.2	jade	9	noun	list	4	4	match	jade	2	0	p	0.55366
64.9466	0.0	+	9	noun	list	4	5	match	jade	2	0	p	0.55366
65.3471	0.2	son	9	noun	list	4	6	match	jade	2	0	p	0.55366
65.5469	0.0	+	9	noun	list	4	7	match	jade	2	0	p	0.55366
65.9465	0.2	moins	9	noun	list	4	8	match	jade	2	0	p	0.55366
66.14659999999999	0.0	+	9	noun	list	4	9	match	jade	2	0	p	0.55366
66.5459	0.2	voilier	9	noun	list	4	10	match	jade	2	0	p	0.55366
66.7458	0.0	+	9	noun	list	4	11	match	jade	2	0	p	0.55366
67.1456	0.0	+	9	noun	list	4	12	match	jade	2	0	p	0.55366
69.1447	0.0	JADE	9	noun	list	4	13	match	jade	2	0	p	0.55366
69.7611	0.0	+	9	noun	list	4	14	match	jade	2	0	p	0.55366
69.69839999999999	0.0	[response]	9	noun	list	4	15	match	jade	2	0	p	0.55366
71.5437	0.0	+	10	noun	phrase	2	1	match	vert	5	1	y	0.5461
72.0934	0.2	vqndgk	10	noun	phrase	2	2	match	vert	5	1	y	0.5461
72.29339999999999	0.0	+	10	noun	phrase	2	3	match	vert	5	1	y	0.5461
72.69319999999999	0.2	xwtz	10	noun	phrase	2	4	match	vert	5	1	y	0.5461
72.8931	0.0	+	10	noun	phrase	2	5	match	vert	5	1	y	0.5461
73.2929	0.2	jtp	10	noun	phrase	2	6	match	vert	5	1	y	0.5461
73.49279999999999	0.0	+	10	noun	phrase	2	7	match	vert	5	1	y	0.5461
73.89259999999999	0.2	grenier	10	noun	phrase	2	8	match	vert	5	1	y	0.5461
74.0926	0.0	+	10	noun	phrase	2	9	match	vert	5	1	y	0.5461
74.4931	0.2	vert	10	noun	phrase	2	10	match	vert	5	1	y	0.5461
74.69290000000001	0.0	+	10	noun	phrase	2	11	match	vert	5	1	y	0.5461
75.0925	0.0	+	10	noun	phrase	2	12	match	vert	5	1	y	0.5461
77.09119999999999	0.0	VERT	10	noun	phrase	2	13	match	vert	5	1	y	0.5461
77.691	0.0	+	10	noun	phrase	2	14	match	vert	5	1	y	0.5461
77.63730000000001	0.0	[response]	10	noun	phrase	2	15	match	vert	5	1	y	0.5461
79.49029999999999	0.0	+	11	noun	list	1	1	nomatch	leur	-1	1	p	0.58042
80.03989999999999	0.2	zvk	11	noun	list	1	2	nomatch	leur	-1	1	p	0.58042
80.2398	0.0	+	11	noun	list	1	3	nomatch	leur	-1	1	p	0.58042
80.6403	0.2	sndq	11	noun	list	1	4	nomatch	leur	-1	1	p	0.58042
80.85679999999999	0.0	+	11	noun	list	1	5	nomatch	leur	-1	1	p	0.58042
81.23949999999999	0.2	bxp	11	noun	list	1	6	nomatch	leur	-1	1	p	0.58042
81.4393	0.0	+	11	noun	list	1	7	nomatch	leur	-1	1	p	0.58042
81.8391	0.2	mlvpckt	11	noun	list	1	8	nomatch	leur	-1	1	p	0.58042
82.03899999999999	0.0	+	11	noun	list	1	9	nomatch	leur	-1	1	p	0.58042
82.43889999999999	0.2	plus	11	noun	list	1	10	nomatch	leur	-1	1	p	0.58042
82.6388	0.0	+	11	noun	list	1	11	nomatch	leur	-1	1	p	0.58042
83.0386	0.0	+	11	noun	list	1	12	nomatch	leur	-1	1	p	0.58042
85.0377	0.0	LEUR	11	noun	list	1	13	nomatch	leur	-1	1	p	0.58042
85.67079999999999	0.0	+	11	noun	list	1	14	nomatch	leur	-1	1	p	0.58042
85.6181	0.0	[response]	11	noun	list	1	15	nomatch	leur	-1	1	p	0.58042
103.4462	0.0	+	12	noun	phrase	1	1	match	vert	5	1	y	0.43594
103.99600000000001	0.2	whxvspm	12	noun	phrase	1	2	match	vert	5	1	y	0.43594
104.1959	0.0	+	12	noun	phrase	1	3	match	vert	5	1	y	0.43594
104.5957	0.2	gbvz	12	noun	phrase	1	4	match	vert	5	1	y	0.43594
104.79560000000001	0.0	+	12	noun	phrase	1	5	match	vert	5	1	y	0.43594
105.19550000000001	0.2	jtp	12	noun	phrase	1	6	match	vert	5	1	y	0.43594
105.4127	0.0	+	12	noun	phrase	1	7	match	vert	5	1	y	0.43594
105.79560000000001	0.2	kpsfhmbj	12	noun	phrase	1	8	match	vert	5	1	y	0.43594
105.9956	0.0	+	12	noun	phrase	1	9	match	vert	5	1	y	0.43594
106.39509999999999	0.2	vert	12	noun	phrase	1	10	match	vert	5	1	y	0.43594
106.59549999999999	0.0	+	12	noun	phrase	1	11	match	vert	5	1	y	0.43594
106.9947	0.0	+	12	noun	phrase	1	12	match	vert	5	1	y	0.43594
108.9938	0.0	VERT	12	noun	phrase	1	13	match	vert	5	1	y	0.43594
109.49359999999999	0.0	+	12	noun	phrase	1	14	match	vert	5	1	y	0.43594
109.42970000000003	0.0	[response]	12	noun	phrase	1	15	match	vert	5	1	y	0.43594
119.38919999999999	0.0	+	13	noun	list	2	1	nomatch	moins	-1	1	p	0.50718
119.93889999999999	0.2	xpjvfm	13	noun	list	2	2	nomatch	moins	-1	1	p	0.50718
120.1394	0.0	+	13	noun	list	2	3	nomatch	moins	-1	1	p	0.50718
120.53890000000001	0.2	tgm	13	noun	list	2	4	nomatch	moins	-1	1	p	0.50718
120.73929999999999	0.0	+	13	noun	list	2	5	nomatch	moins	-1	1	p	0.50718
121.15559999999999	0.2	bxp	13	noun	list	2	6	nomatch	moins	-1	1	p	0.50718
121.3389	0.0	+	13	noun	list	2	7	nomatch	moins	-1	1	p	0.50718
121.7381	0.2	plus	13	noun	list	2	8	nomatch	moins	-1	1	p	0.50718
121.93799999999999	0.0	+	13	noun	list	2	9	nomatch	moins	-1	1	p	0.50718
122.33789999999999	0.2	casier	13	noun	list	2	10	nomatch	moins	-1	1	p	0.50718
122.5378	0.0	+	13	noun	list	2	11	nomatch	moins	-1	1	p	0.50718
122.9376	0.0	+	13	noun	list	2	12	nomatch	moins	-1	1	p	0.50718
124.9367	0.0	MOINS	13	noun	list	2	13	nomatch	moins	-1	1	p	0.50718
125.50309999999999	0.0	+	13	noun	list	2	14	nomatch	moins	-1	1	p	0.50718
125.44389999999999	0.0	[response]	13	noun	list	2	15	nomatch	moins	-1	1	p	0.50718
127.40289999999999	0.0	+	14	noun	phrase	3	1	match	boîtier	5	1	y	0.52081
127.8854	0.2	wxqlt	14	noun	phrase	3	2	match	boîtier	5	1	y	0.52081
128.0853	0.0	+	14	noun	phrase	3	3	match	boîtier	5	1	y	0.52081
128.4851	0.2	zfs	14	noun	phrase	3	4	match	boîtier	5	1	y	0.52081
128.685	0.0	+	14	noun	phrase	3	5	match	boîtier	5	1	y	0.52081
129.0849	0.2	mon	14	noun	phrase	3	6	match	boîtier	5	1	y	0.52081
129.2848	0.0	+	14	noun	phrase	3	7	match	boîtier	5	1	y	0.52081
129.6846	0.2	nouveau	14	noun	phrase	3	8	match	boîtier	5	1	y	0.52081
129.8845	0.0	+	14	noun	phrase	3	9	match	boîtier	5	1	y	0.52081
130.2844	0.2	boîtier	14	noun	phrase	3	10	match	boîtier	5	1	y	0.52081
130.4842	0.0	+	14	noun	phrase	3	11	match	boîtier	5	1	y	0.52081
130.8841	0.0	+	14	noun	phrase	3	12	match	boîtier	5	1	y	0.52081
132.8999	0.2	boîtier	14	noun	phrase	3	13	match	boîtier	5	1	y	0.52081
133.4829	0.0	+	14	noun	phrase	3	14	match	boîtier	5	1	y	0.52081
133.4207	0.0	[response]	14	noun	phrase	3	15	match	boîtier	5	1	y	0.52081
135.2988	0.0	+	15	noun	phrase	1	1	match	vert	5	1	y	0.41385000000000005
135.8485	0.2	dnmqkj	15	noun	phrase	1	2	match	vert	5	1	y	0.41385000000000005
136.0485	0.0	+	15	noun	phrase	1	3	match	vert	5	1	y	0.41385000000000005
136.4654	0.2	jwhm	15	noun	phrase	1	4	match	vert	5	1	y	0.41385000000000005
136.6484	0.0	+	15	noun	phrase	1	5	match	vert	5	1	y	0.41385000000000005
137.0487	0.2	jtp	15	noun	phrase	1	6	match	vert	5	1	y	0.41385000000000005
137.2652	0.0	+	15	noun	phrase	1	7	match	vert	5	1	y	0.41385000000000005
137.6477	0.2	jtwlzxs	15	noun	phrase	1	8	match	vert	5	1	y	0.41385000000000005
137.8477	0.0	+	15	noun	phrase	1	9	match	vert	5	1	y	0.41385000000000005
138.2475	0.2	vert	15	noun	phrase	1	10	match	vert	5	1	y	0.41385000000000005
138.4474	0.0	+	15	noun	phrase	1	11	match	vert	5	1	y	0.41385000000000005
138.8472	0.0	+	15	noun	phrase	1	12	match	vert	5	1	y	0.41385000000000005
140.84629999999999	0.0	VERT	15	noun	phrase	1	13	match	vert	5	1	y	0.41385000000000005
141.3795	0.0	+	15	noun	phrase	1	14	match	vert	5	1	y	0.41385000000000005
141.26020000000003	0.0	[response]	15	noun	phrase	1	15	match	vert	5	1	y	0.41385000000000005
143.2453	0.0	+	16	noun	phrase	1	1	match	sablier	5	1	y	0.41612
143.795	0.2	dfk	16	noun	phrase	1	2	match	sablier	5	1	y	0.41612
143.9949	0.0	+	16	noun	phrase	1	3	match	sablier	5	1	y	0.41612
144.3948	0.2	zfs	16	noun	phrase	1	4	match	sablier	5	1	y	0.41612
144.5947	0.0	+	16	noun	phrase	1	5	match	sablier	5	1	y	0.41612
144.9945	0.2	fpzv	16	noun	phrase	1	6	match	sablier	5	1	y	0.41612
145.1944	0.0	+	16	noun	phrase	1	7	match	sablier	5	1	y	0.41612
145.5949	0.2	glbkt	16	noun	phrase	1	8	match	sablier	5	1	y	0.41612
145.7946	0.0	+	16	noun	phrase	1	9	match	sablier	5	1	y	0.41612
146.1942	0.2	sablier	16	noun	phrase	1	10	match	sablier	5	1	y	0.41612
146.3946	0.0	+	16	noun	phrase	1	11	match	sablier	5	1	y	0.41612
146.7937	0.0	+	16	noun	phrase	1	12	match	sablier	5	1	y	0.41612
148.7928	0.0	SABLIER	16	noun	phrase	1	13	match	sablier	5	1	y	0.41612
149.2759	0.0	+	16	noun	phrase	1	14	match	sablier	5	1	y	0.41612
149.2089	0.0	[response]	16	noun	phrase	1	15	match	sablier	5	1	y	0.41612
151.1918	0.0	+	17	noun	list	2	1	match	beaucoup	4	1	y	0.51045
151.7586	0.2	ncw	17	noun	list	2	2	match	beaucoup	4	1	y	0.51045
151.942	0.0	+	17	noun	list	2	3	match	beaucoup	4	1	y	0.51045
152.3412	0.2	fnth	17	noun	list	2	4	match	beaucoup	4	1	y	0.51045
152.5411	0.0	+	17	noun	list	2	5	match	beaucoup	4	1	y	0.51045
152.941	0.2	bxp	17	noun	list	2	6	match	beaucoup	4	1	y	0.51045
153.1409	0.0	+	17	noun	list	2	7	match	beaucoup	4	1	y	0.51045
153.5407	0.2	beaucoup	17	noun	list	2	8	match	beaucoup	4	1	y	0.51045
153.7406	0.0	+	17	noun	list	2	9	match	beaucoup	4	1	y	0.51045
154.1404	0.2	tablier	17	noun	list	2	10	match	beaucoup	4	1	y	0.51045
154.3404	0.0	+	17	noun	list	2	11	match	beaucoup	4	1	y	0.51045
154.7406	0.0	+	17	noun	list	2	12	match	beaucoup	4	1	y	0.51045
156.7393	0.0	BEAUCOUP	17	noun	list	2	13	match	beaucoup	4	1	y	0.51045
157.3057	0.0	+	17	noun	list	2	14	match	beaucoup	4	1	y	0.51045
157.2498	0.0	[response]	17	noun	list	2	15	match	beaucoup	4	1	y	0.51045
167.1685	0.0	+	18	noun	list	1	1	match	sablier	5	1	y	0.46215
167.6849	0.2	dbhkzn	18	noun	list	1	2	match	sablier	5	1	y	0.46215
167.8844	0.0	+	18	noun	list	1	3	match	sablier	5	1	y	0.46215
168.2842	0.2	sndq	18	noun	list	1	4	match	sablier	5	1	y	0.46215
168.4841	0.0	+	18	noun	list	1	5	match	sablier	5	1	y	0.46215
168.8839	0.2	jtp	18	noun	list	1	6	match	sablier	5	1	y	0.46215
169.0838	0.0	+	18	noun	list	1	7	match	sablier	5	1	y	0.46215
169.4837	0.2	rnsjd	18	noun	list	1	8	match	sablier	5	1	y	0.46215
169.6836	0.0	+	18	noun	list	1	9	match	sablier	5	1	y	0.46215
170.1006	0.2	sablier	18	noun	list	1	10	match	sablier	5	1	y	0.46215
170.3007	0.0	+	18	noun	list	1	11	match	sablier	5	1	y	0.46215
170.7169	0.0	+	18	noun	list	1	12	match	sablier	5	1	y	0.46215
172.6989	0.0	SABLIER	18	noun	list	1	13	match	sablier	5	1	y	0.46215
173.21529999999998	0.0	+	18	noun	list	1	14	match	sablier	5	1	y	0.46215
173.161	0.0	[response]	18	noun	list	1	15	match	sablier	5	1	y	0.46215
183.0943	0.0	+	19	noun	list	4	1	match	tablier	5	1	y	0.59371
183.644	0.2	jktbd	19	noun	list	4	2	match	tablier	5	1	y	0.59371
183.844	0.0	+	19	noun	list	4	3	match	tablier	5	1	y	0.59371
184.2438	0.2	adam	19	noun	list	4	4	match	tablier	5	1	y	0.59371
184.4437	0.0	+	19	noun	list	4	5	match	tablier	5	1	y	0.59371
184.8435	0.2	mon	19	noun	list	4	6	match	tablier	5	1	y	0.59371
185.0434	0.0	+	19	noun	list	4	7	match	tablier	5	1	y	0.59371
185.4433	0.2	plus	19	noun	list	4	8	match	tablier	5	1	y	0.59371
185.6432	0.0	+	19	noun	list	4	9	match	tablier	5	1	y	0.59371
186.043	0.2	tablier	19	noun	list	4	10	match	tablier	5	1	y	0.59371
186.2602	0.0	+	19	noun	list	4	11	match	tablier	5	1	y	0.59371
186.6435	0.0	+	19	noun	list	4	12	match	tablier	5	1	y	0.59371
188.6418	0.0	TABLIER	19	noun	list	4	13	match	tablier	5	1	y	0.59371
189.2916	0.0	+	19	noun	list	4	14	match	tablier	5	1	y	0.59371
189.2356	0.0	[response]	19	noun	list	4	15	match	tablier	5	1	y	0.59371
191.0574	0.0	+	20	noun	phrase	1	1	nomatch	doit	-1	1	p	0.55153
191.5912	0.2	ltbgm	20	noun	phrase	1	2	nomatch	doit	-1	1	p	0.55153
191.7912	0.0	+	20	noun	phrase	1	3	nomatch	doit	-1	1	p	0.55153
192.1907	0.2	xwtz	20	noun	phrase	1	4	nomatch	doit	-1	1	p	0.55153
192.3902	0.0	+	20	noun	phrase	1	5	nomatch	doit	-1	1	p	0.55153
192.79	0.2	bxp	20	noun	phrase	1	6	nomatch	doit	-1	1	p	0.55153
192.9899	0.0	+	20	noun	phrase	1	7	nomatch	doit	-1	1	p	0.55153
193.3897	0.2	xlgbd	20	noun	phrase	1	8	nomatch	doit	-1	1	p	0.55153
193.5896	0.0	+	20	noun	phrase	1	9	nomatch	doit	-1	1	p	0.55153
193.9895	0.2	grenier	20	noun	phrase	1	10	nomatch	doit	-1	1	p	0.55153
194.1894	0.0	+	20	noun	phrase	1	11	nomatch	doit	-1	1	p	0.55153
194.6064	0.0	+	20	noun	phrase	1	12	nomatch	doit	-1	1	p	0.55153
196.5883	0.0	DOIT	20	noun	phrase	1	13	nomatch	doit	-1	1	p	0.55153
197.2047	0.0	+	20	noun	phrase	1	14	nomatch	doit	-1	1	p	0.55153
197.13990000000004	0.0	[response]	20	noun	phrase	1	15	nomatch	doit	-1	1	p	0.55153
198.98729999999998	0.0	+	21	noun	phrase	3	1	match	leur	3	1	y	0.49811
199.537	0.2	bgmp	21	noun	phrase	3	2	match	leur	3	1	y	0.49811
199.73690000000002	0.0	+	21	noun	phrase	3	3	match	leur	3	1	y	0.49811
200.13719999999998	0.2	scgn	21	noun	phrase	3	4	match	leur	3	1	y	0.49811
200.33700000000002	0.0	+	21	noun	phrase	3	5	match	leur	3	1	y	0.49811
200.7372	0.2	leur	21	noun	phrase	3	6	match	leur	3	1	y	0.49811
200.93699999999998	0.0	+	21	noun	phrase	3	7	match	leur	3	1	y	0.49811
201.3364	0.2	nouveau	21	noun	phrase	3	8	match	leur	3	1	y	0.49811
201.5361	0.0	+	21	noun	phrase	3	9	match	leur	3	1	y	0.49811
201.93589999999998	0.2	sablier	21	noun	phrase	3	10	match	leur	3	1	y	0.49811
202.13590000000002	0.0	+	21	noun	phrase	3	11	match	leur	3	1	y	0.49811
202.5357	0.0	+	21	noun	phrase	3	12	match	leur	3	1	y	0.49811
204.5348	0.0	LEUR	21	noun	phrase	3	13	match	leur	3	1	y	0.49811
205.08470000000003	0.0	+	21	noun	phrase	3	14	match	leur	3	1	y	0.49811
205.0329	0.0	[response]	21	noun	phrase	3	15	match	leur	3	1	y	0.49811
206.93370000000002	0.0	+	22	noun	phrase	1	1	match	tablier	5	1	y	0.4444
207.4838	0.2	wrlqpxg	22	noun	phrase	1	2	match	tablier	5	1	y	0.4444
207.7001	0.0	+	22	noun	phrase	1	3	match	tablier	5	1	y	0.4444
208.09990000000002	0.2	xwtz	22	noun	phrase	1	4	match	tablier	5	1	y	0.4444
208.29979999999998	0.0	+	22	noun	phrase	1	5	match	tablier	5	1	y	0.4444
208.6996	0.2	bxp	22	noun	phrase	1	6	match	tablier	5	1	y	0.4444
208.89950000000002	0.0	+	22	noun	phrase	1	7	match	tablier	5	1	y	0.4444
209.30010000000001	0.2	xfps	22	noun	phrase	1	8	match	tablier	5	1	y	0.4444
209.49980000000002	0.0	+	22	noun	phrase	1	9	match	tablier	5	1	y	0.4444
209.8998	0.2	tablier	22	noun	phrase	1	10	match	tablier	5	1	y	0.4444
210.0997	0.0	+	22	noun	phrase	1	11	match	tablier	5	1	y	0.4444
210.49960000000002	0.0	+	22	noun	phrase	1	12	match	tablier	5	1	y	0.4444
212.4979	0.0	TABLIER	22	noun	phrase	1	13	match	tablier	5	1	y	0.4444
212.99769999999998	0.0	+	22	noun	phrase	1	14	match	tablier	5	1	y	0.4444
212.94230000000007	0.0	[response]	22	noun	phrase	1	15	match	tablier	5	1	y	0.4444
214.8969	0.0	+	23	noun	list	1	1	match	beaucoup	5	1	y	0.3629
215.44660000000002	0.2	rxnjsdb	23	noun	list	1	2	match	beaucoup	5	1	y	0.3629
215.6468	0.0	+	23	noun	list	1	3	match	beaucoup	5	1	y	0.3629
216.04690000000002	0.2	sndq	23	noun	list	1	4	match	beaucoup	5	1	y	0.3629
216.2467	0.0	+	23	noun	list	1	5	match	beaucoup	5	1	y	0.3629
216.64610000000002	0.2	jtp	23	noun	list	1	6	match	beaucoup	5	1	y	0.3629
216.84599999999998	0.0	+	23	noun	list	1	7	match	beaucoup	5	1	y	0.3629
217.2458	0.2	dnjwxkhq	23	noun	list	1	8	match	beaucoup	5	1	y	0.3629
217.4458	0.0	+	23	noun	list	1	9	match	beaucoup	5	1	y	0.3629
217.84560000000002	0.2	beaucoup	23	noun	list	1	10	match	beaucoup	5	1	y	0.3629
218.04549999999998	0.0	+	23	noun	list	1	11	match	beaucoup	5	1	y	0.3629
218.4455	0.0	+	23	noun	list	1	12	match	beaucoup	5	1	y	0.3629
220.4444	0.0	BEAUCOUP	23	noun	list	1	13	match	beaucoup	5	1	y	0.3629
220.8609	0.0	+	23	noun	list	1	14	match	beaucoup	5	1	y	0.3629
220.80730000000003	0.0	[response]	23	noun	list	1	15	match	beaucoup	5	1	y	0.3629
222.8434	0.0	+	24	noun	list	4	1	nomatch	doit	-1	1	p	0.71674
223.39309999999998	0.2	vrlc	24	noun	list	4	2	nomatch	doit	-1	1	p	0.71674
223.593	0.0	+	24	noun	list	4	3	nomatch	doit	-1	1	p	0.71674
223.9929	0.2	adam	24	noun	list	4	4	nomatch	doit	-1	1	p	0.71674
224.1928	0.0	+	24	noun	list	4	5	nomatch	doit	-1	1	p	0.71674
224.59259999999998	0.2	son	24	noun	list	4	6	nomatch	doit	-1	1	p	0.71674
224.79319999999998	0.0	+	24	noun	list	4	7	nomatch	doit	-1	1	p	0.71674
225.193	0.2	trop	24	noun	list	4	8	nomatch	doit	-1	1	p	0.71674
225.39290000000003	0.0	+	24	noun	list	4	9	nomatch	doit	-1	1	p	0.71674
225.79209999999998	0.2	grenier	24	noun	list	4	10	nomatch	doit	-1	1	p	0.71674
225.992	0.0	+	24	noun	list	4	11	nomatch	doit	-1	1	p	0.71674
226.39180000000002	0.0	+	24	noun	list	4	12	nomatch	doit	-1	1	p	0.71674
228.39090000000002	0.0	DOIT	24	noun	list	4	13	nomatch	doit	-1	1	p	0.71674
229.17389999999997	0.0	+	24	noun	list	4	14	nomatch	doit	-1	1	p	0.71674
229.10760000000002	0.0	[response]	24	noun	list	4	15	nomatch	doit	-1	1	p	0.71674
238.80300000000003	0.0	+	25	noun	phrase	3	1	match	casier	4	1	y	0.5912
239.33610000000002	0.2	jtb	25	noun	phrase	3	2	match	casier	4	1	y	0.5912
239.53599999999997	0.0	+	25	noun	phrase	3	3	match	casier	4	1	y	0.5912
239.9358	0.2	xqsw	25	noun	phrase	3	4	match	casier	4	1	y	0.5912
240.1357	0.0	+	25	noun	phrase	3	5	match	casier	4	1	y	0.5912
240.53549999999998	0.2	mon	25	noun	phrase	3	6	match	casier	4	1	y	0.5912
240.7354	0.0	+	25	noun	phrase	3	7	match	casier	4	1	y	0.5912
241.13559999999998	0.2	casier	25	noun	phrase	3	8	match	casier	4	1	y	0.5912
241.3359	0.0	+	25	noun	phrase	3	9	match	casier	4	1	y	0.5912
241.7356	0.2	noir	25	noun	phrase	3	10	match	casier	4	1	y	0.5912
241.95219999999998	0.0	+	25	noun	phrase	3	11	match	casier	4	1	y	0.5912
242.33470000000003	0.0	+	25	noun	phrase	3	12	match	casier	4	1	y	0.5912
244.33380000000002	0.0	CASIER	25	noun	phrase	3	13	match	casier	4	1	y	0.5912
245.0175	0.0	+	25	noun	phrase	3	14	match	casier	4	1	y	0.5912
244.92510000000001	0.0	[response]	25	noun	phrase	3	15	match	casier	4	1	y	0.5912
254.74589999999998	0.0	+	26	noun	list	3	1	nomatch	leur	-1	1	p	0.5757300000000001
255.29619999999997	0.2	zvncsx	26	noun	list	3	2	nomatch	leur	-1	1	p	0.5757300000000001
255.49589999999998	0.0	+	26	noun	list	3	3	nomatch	leur	-1	1	p	0.5757300000000001
255.89540000000002	0.2	sndq	26	noun	list	3	4	nomatch	leur	-1	1	p	0.5757300000000001
256.096	0.0	+	26	noun	list	3	5	nomatch	leur	-1	1	p	0.5757300000000001
256.4951	0.2	son	26	noun	list	3	6	nomatch	leur	-1	1	p	0.5757300000000001
256.69500000000005	0.0	+	26	noun	list	3	7	nomatch	leur	-1	1	p	0.5757300000000001
257.09490000000005	0.2	plus	26	noun	list	3	8	nomatch	leur	-1	1	p	0.5757300000000001
257.2948	0.0	+	26	noun	list	3	9	nomatch	leur	-1	1	p	0.5757300000000001
257.69460000000004	0.2	grenier	26	noun	list	3	10	nomatch	leur	-1	1	p	0.5757300000000001
257.8945	0.0	+	26	noun	list	3	11	nomatch	leur	-1	1	p	0.5757300000000001
258.2943	0.0	+	26	noun	list	3	12	nomatch	leur	-1	1	p	0.5757300000000001
260.2934	0.0	LEUR	26	noun	list	3	13	nomatch	leur	-1	1	p	0.5757300000000001
260.92650000000003	0.0	+	26	noun	list	3	14	nomatch	leur	-1	1	p	0.5757300000000001
260.8692	0.0	[response]	26	noun	list	3	15	nomatch	leur	-1	1	p	0.5757300000000001
262.6924	0.0	+	27	noun	list	1	1	nomatch	petit	-1	1	p	0.60005
263.24210000000005	0.2	gnmdz	27	noun	list	1	2	nomatch	petit	-1	1	p	0.60005
263.442	0.0	+	27	noun	list	1	3	nomatch	petit	-1	1	p	0.60005
263.8419	0.2	zfs	27	noun	list	1	4	nomatch	petit	-1	1	p	0.60005
264.04179999999997	0.0	+	27	noun	list	1	5	nomatch	petit	-1	1	p	0.60005
264.4416	0.2	xl	27	noun	list	1	6	nomatch	petit	-1	1	p	0.60005
264.6589	0.0	+	27	noun	list	1	7	nomatch	petit	-1	1	p	0.60005
265.0417	0.2	kqlp	27	noun	list	1	8	nomatch	petit	-1	1	p	0.60005
265.24199999999996	0.0	+	27	noun	list	1	9	nomatch	petit	-1	1	p	0.60005
265.64110000000005	0.2	voilier	27	noun	list	1	10	nomatch	petit	-1	1	p	0.60005
265.841	0.0	+	27	noun	list	1	11	nomatch	petit	-1	1	p	0.60005
266.2415	0.0	+	27	noun	list	1	12	nomatch	petit	-1	1	p	0.60005
268.23990000000003	0.0	PETIT	27	noun	list	1	13	nomatch	petit	-1	1	p	0.60005
268.9063	0.0	+	27	noun	list	1	14	nomatch	petit	-1	1	p	0.60005
268.84000000000003	0.0	[response]	27	noun	list	1	15	nomatch	petit	-1	1	p	0.60005
270.63890000000004	0.0	+	28	noun	list	1	1	match	cendrier	5	1	y	0.51783
271.18859999999995	0.2	jkfvgm	28	noun	list	1	2	match	cendrier	5	1	y	0.51783
271.3885	0.0	+	28	noun	list	1	3	match	cendrier	5	1	y	0.51783
271.7884	0.2	tqdg	28	noun	list	1	4	match	cendrier	5	1	y	0.51783
271.9883	0.0	+	28	noun	list	1	5	match	cendrier	5	1	y	0.51783
272.3881	0.2	fpzv	28	noun	list	1	6	match	cendrier	5	1	y	0.51783
272.60540000000003	0.0	+	28	noun	list	1	7	match	cendrier	5	1	y	0.51783
272.9886	0.2	jfpc	28	noun	list	1	8	match	cendrier	5	1	y	0.51783
273.20500000000004	0.0	+	28	noun	list	1	9	match	cendrier	5	1	y	0.51783
273.58759999999995	0.2	cendrier	28	noun	list	1	10	match	cendrier	5	1	y	0.51783
273.7876	0.0	+	28	noun	list	1	11	match	cendrier	5	1	y	0.51783
274.18730000000005	0.0	+	28	noun	list	1	12	match	cendrier	5	1	y	0.51783
276.18690000000004	0.0	CENDRIER	28	noun	list	1	13	match	cendrier	5	1	y	0.51783
276.80280000000005	0.0	+	28	noun	list	1	14	match	cendrier	5	1	y	0.51783
276.7048	0.0	[response]	28	noun	list	1	15	match	cendrier	5	1	y	0.51783
278.58540000000005	0.0	+	29	verb	phrase	1	1	nomatch	danser	-1	1	p	0.55419
279.13509999999997	0.2	jxmqv	29	verb	phrase	1	2	nomatch	danser	-1	1	p	0.55419
279.33500000000004	0.0	+	29	verb	phrase	1	3	nomatch	danser	-1	1	p	0.55419
279.73479999999995	0.2	tgm	29	verb	phrase	1	4	nomatch	danser	-1	1	p	0.55419
279.9348	0.0	+	29	verb	phrase	1	5	nomatch	danser	-1	1	p	0.55419
280.3514	0.2	hdmf	29	verb	phrase	1	6	nomatch	danser	-1	1	p	0.55419
280.5345	0.0	+	29	verb	phrase	1	7	nomatch	danser	-1	1	p	0.55419
280.9347	0.2	bhmgwtn	29	verb	phrase	1	8	nomatch	danser	-1	1	p	0.55419
281.1509	0.0	+	29	verb	phrase	1	9	nomatch	danser	-1	1	p	0.55419
281.5348	0.2	tôt	29	verb	phrase	1	10	nomatch	danser	-1	1	p	0.55419
281.73400000000004	0.0	+	29	verb	phrase	1	11	nomatch	danser	-1	1	p	0.55419
282.13379999999995	0.0	+	29	verb	phrase	1	12	nomatch	danser	-1	1	p	0.55419
284.14959999999996	0.0	DANSER	29	verb	phrase	1	13	nomatch	danser	-1	1	p	0.55419
284.76599999999996	0.0	+	29	verb	phrase	1	14	nomatch	danser	-1	1	p	0.55419
284.7038	0.0	[response]	29	verb	phrase	1	15	nomatch	danser	-1	1	p	0.55419
286.5485	0.0	+	30	noun	list	2	1	nomatch	moins	-1	1	p	0.58969
287.0982	0.2	vcdkjmb	30	noun	list	2	2	nomatch	moins	-1	1	p	0.58969
287.29819999999995	0.0	+	30	noun	list	2	3	nomatch	moins	-1	1	p	0.58969
287.698	0.2	fnth	30	noun	list	2	4	nomatch	moins	-1	1	p	0.58969
287.89790000000005	0.0	+	30	noun	list	2	5	nomatch	moins	-1	1	p	0.58969
288.29830000000004	0.2	jtp	30	noun	list	2	6	nomatch	moins	-1	1	p	0.58969
288.49789999999996	0.0	+	30	noun	list	2	7	nomatch	moins	-1	1	p	0.58969
288.8976	0.2	mieux	30	noun	list	2	8	nomatch	moins	-1	1	p	0.58969
289.09810000000004	0.0	+	30	noun	list	2	9	nomatch	moins	-1	1	p	0.58969
289.4972	0.2	boîtier	30	noun	list	2	10	nomatch	moins	-1	1	p	0.58969
289.6971	0.0	+	30	noun	list	2	11	nomatch	moins	-1	1	p	0.58969
290.0969	0.0	+	30	noun	list	2	12	nomatch	moins	-1	1	p	0.58969
292.096	0.0	MOINS	30	noun	list	2	13	nomatch	moins	-1	1	p	0.58969
292.74580000000003	0.0	+	30	noun	list	2	14	nomatch	moins	-1	1	p	0.58969
292.6857	0.0	[response]	30	noun	list	2	15	nomatch	moins	-1	1	p	0.58969
302.49210000000005	0.0	+	31	noun	phrase	2	1	nomatch	avec	-1	1	p	0.72488
303.0412	0.2	sjzmhtl	31	noun	phrase	2	2	nomatch	avec	-1	1	p	0.72488
303.24109999999996	0.0	+	31	noun	phrase	2	3	nomatch	avec	-1	1	p	0.72488
303.6409	0.2	scgn	31	noun	phrase	2	4	nomatch	avec	-1	1	p	0.72488
303.84079999999994	0.0	+	31	noun	phrase	2	5	nomatch	avec	-1	1	p	0.72488
304.24069999999995	0.2	fpzv	31	noun	phrase	2	6	nomatch	avec	-1	1	p	0.72488
304.4406	0.0	+	31	noun	phrase	2	7	nomatch	avec	-1	1	p	0.72488
304.84040000000005	0.2	sablier	31	noun	phrase	2	8	nomatch	avec	-1	1	p	0.72488
305.04049999999995	0.0	+	31	noun	phrase	2	9	nomatch	avec	-1	1	p	0.72488
305.44010000000003	0.2	vert	31	noun	phrase	2	10	nomatch	avec	-1	1	p	0.72488
305.6405	0.0	+	31	noun	phrase	2	11	nomatch	avec	-1	1	p	0.72488
306.0399	0.0	+	31	noun	phrase	2	12	nomatch	avec	-1	1	p	0.72488
308.039	0.0	AVEC	31	noun	phrase	2	13	nomatch	avec	-1	1	p	0.72488
308.9225	0.0	+	31	noun	phrase	2	14	nomatch	avec	-1	1	p	0.72488
308.76390000000004	0.0	[response]	31	noun	phrase	2	15	nomatch	avec	-1	1	p	0.72488
318.4344	0.0	+	32	verb	list	4	1	match	nager	5	1	y	0.5174100000000001
318.9847	0.2	tfqbnkj	32	verb	list	4	2	match	nager	5	1	y	0.5174100000000001
319.1844	0.0	+	32	verb	list	4	3	match	nager	5	1	y	0.5174100000000001
319.58389999999997	0.2	vers	32	verb	list	4	4	match	nager	5	1	y	0.5174100000000001
319.8011	0.0	+	32	verb	list	4	5	match	nager	5	1	y	0.5174100000000001
320.18370000000004	0.2	doit	32	verb	list	4	6	match	nager	5	1	y	0.5174100000000001
320.3836	0.0	+	32	verb	list	4	7	match	nager	5	1	y	0.5174100000000001
320.79999999999995	0.2	beau	32	verb	list	4	8	match	nager	5	1	y	0.5174100000000001
320.9999	0.0	+	32	verb	list	4	9	match	nager	5	1	y	0.5174100000000001
321.39970000000005	0.2	nager	32	verb	list	4	10	match	nager	5	1	y	0.5174100000000001
321.5996	0.0	+	32	verb	list	4	11	match	nager	5	1	y	0.5174100000000001
321.9995	0.0	+	32	verb	list	4	12	match	nager	5	1	y	0.5174100000000001
323.9986	0.0	NAGER	32	verb	list	4	13	match	nager	5	1	y	0.5174100000000001
324.58169999999996	0.0	+	32	verb	list	4	14	match	nager	5	1	y	0.5174100000000001
324.51599999999996	0.0	[response]	32	verb	list	4	15	match	nager	5	1	y	0.5174100000000001
326.39750000000004	0.0	+	33	noun	phrase	1	1	nomatch	rocher	-1	1	p	0.6921500000000002
326.94730000000004	0.2	tfk	33	noun	phrase	1	2	nomatch	rocher	-1	1	p	0.6921500000000002
327.1472	0.0	+	33	noun	phrase	1	3	nomatch	rocher	-1	1	p	0.6921500000000002
327.547	0.2	scgn	33	noun	phrase	1	4	nomatch	rocher	-1	1	p	0.6921500000000002
327.7469	0.0	+	33	noun	phrase	1	5	nomatch	rocher	-1	1	p	0.6921500000000002
328.1467	0.2	jtp	33	noun	phrase	1	6	nomatch	rocher	-1	1	p	0.6921500000000002
328.34670000000006	0.0	+	33	noun	phrase	1	7	nomatch	rocher	-1	1	p	0.6921500000000002
328.74649999999997	0.2	mlvpckt	33	noun	phrase	1	8	nomatch	rocher	-1	1	p	0.6921500000000002
328.9471	0.0	+	33	noun	phrase	1	9	nomatch	rocher	-1	1	p	0.6921500000000002
329.3469	0.2	petit	33	noun	phrase	1	10	nomatch	rocher	-1	1	p	0.6921500000000002
329.5461	0.0	+	33	noun	phrase	1	11	nomatch	rocher	-1	1	p	0.6921500000000002
329.94590000000005	0.0	+	33	noun	phrase	1	12	nomatch	rocher	-1	1	p	0.6921500000000002
331.9451	0.0	ROCHER	33	noun	phrase	1	13	nomatch	rocher	-1	1	p	0.6921500000000002
332.6947	0.0	+	33	noun	phrase	1	14	nomatch	rocher	-1	1	p	0.6921500000000002
332.6372	0.0	[response]	33	noun	phrase	1	15	nomatch	rocher	-1	1	p	0.6921500000000002
334.34400000000005	0.0	+	34	noun	list	1	1	nomatch	tard	-1	1	p	0.4535
334.89369999999997	0.2	dznxgh	34	noun	list	1	2	nomatch	tard	-1	1	p	0.4535
335.0937	0.0	+	34	noun	list	1	3	nomatch	tard	-1	1	p	0.4535
335.49350000000004	0.2	zfs	34	noun	list	1	4	nomatch	tard	-1	1	p	0.4535
335.6934	0.0	+	34	noun	list	1	5	nomatch	tard	-1	1	p	0.4535
336.0932	0.2	ltfh	34	noun	list	1	6	nomatch	tard	-1	1	p	0.4535
336.2931	0.0	+	34	noun	list	1	7	nomatch	tard	-1	1	p	0.4535
336.693	0.2	kpsfhmbj	34	noun	list	1	8	nomatch	tard	-1	1	p	0.4535
336.89290000000005	0.0	+	34	noun	list	1	9	nomatch	tard	-1	1	p	0.4535
337.293	0.2	ainsi	34	noun	list	1	10	nomatch	tard	-1	1	p	0.4535
337.4932	0.0	+	34	noun	list	1	11	nomatch	tard	-1	1	p	0.4535
337.89239999999995	0.0	+	34	noun	list	1	12	nomatch	tard	-1	1	p	0.4535
339.89149999999995	0.0	TARD	34	noun	list	1	13	nomatch	tard	-1	1	p	0.4535
340.408	0.0	+	34	noun	list	1	14	nomatch	tard	-1	1	p	0.4535
340.345	0.0	[response]	34	noun	list	1	15	nomatch	tard	-1	1	p	0.4535
342.2908	0.0	+	35	noun	list	2	1	match	tard	5	1	y	0.53266
342.841	0.2	tvrl	35	noun	list	2	2	match	tard	5	1	y	0.53266
343.0407	0.0	+	35	noun	list	2	3	match	tard	5	1	y	0.53266
343.4406	0.2	zfs	35	noun	list	2	4	match	tard	5	1	y	0.53266
343.6399	0.0	+	35	noun	list	2	5	match	tard	5	1	y	0.53266
344.03970000000004	0.2	xl	35	noun	list	2	6	match	tard	5	1	y	0.53266
344.2396	0.0	+	35	noun	list	2	7	match	tard	5	1	y	0.53266
344.6394	0.2	voilier	35	noun	list	2	8	match	tard	5	1	y	0.53266
344.8393	0.0	+	35	noun	list	2	9	match	tard	5	1	y	0.53266
345.2392	0.2	tard	35	noun	list	2	10	match	tard	5	1	y	0.53266
345.43910000000005	0.0	+	35	noun	list	2	11	match	tard	5	1	y	0.53266
345.83889999999997	0.0	+	35	noun	list	2	12	match	tard	5	1	y	0.53266
347.83820000000003	0.0	TARD	35	noun	list	2	13	match	tard	5	1	y	0.53266
348.50440000000003	0.0	+	35	noun	list	2	14	match	tard	5	1	y	0.53266
348.3709	0.0	[response]	35	noun	list	2	15	match	tard	5	1	y	0.53266
350.23699999999997	0.0	+	36	verb	phrase	2	1	nomatch	noir	-1	1	p	0.6519000000000001
350.7867	0.2	mxfvd	36	verb	phrase	2	2	nomatch	noir	-1	1	p	0.6519000000000001
350.98659999999995	0.0	+	36	verb	phrase	2	3	nomatch	noir	-1	1	p	0.6519000000000001
351.3864	0.2	fnth	36	verb	phrase	2	4	nomatch	noir	-1	1	p	0.6519000000000001
351.5864	0.0	+	36	verb	phrase	2	5	nomatch	noir	-1	1	p	0.6519000000000001
351.98620000000005	0.2	xl	36	verb	phrase	2	6	nomatch	noir	-1	1	p	0.6519000000000001
352.2033	0.0	+	36	verb	phrase	2	7	nomatch	noir	-1	1	p	0.6519000000000001
352.5861	0.2	patiner	36	verb	phrase	2	8	nomatch	noir	-1	1	p	0.6519000000000001
352.7863	0.0	+	36	verb	phrase	2	9	nomatch	noir	-1	1	p	0.6519000000000001
353.2028	0.2	loin	36	verb	phrase	2	10	nomatch	noir	-1	1	p	0.6519000000000001
353.38559999999995	0.0	+	36	verb	phrase	2	11	nomatch	noir	-1	1	p	0.6519000000000001
353.7854	0.0	+	36	verb	phrase	2	12	nomatch	noir	-1	1	p	0.6519000000000001
355.78520000000003	0.0	NOIR	36	verb	phrase	2	13	nomatch	noir	-1	1	p	0.6519000000000001
356.5008	0.0	+	36	verb	phrase	2	14	nomatch	noir	-1	1	p	0.6519000000000001
356.4371	0.0	[response]	36	verb	phrase	2	15	nomatch	noir	-1	1	p	0.6519000000000001
358.1834	0.0	+	37	verb	phrase	1	1	match	plonger	5	1	y	0.55938
358.75019999999995	0.2	xpzbtr	37	verb	phrase	1	2	match	plonger	5	1	y	0.55938
358.96680000000003	0.0	+	37	verb	phrase	1	3	match	plonger	5	1	y	0.55938
359.3501	0.2	nqwz	37	verb	phrase	1	4	match	plonger	5	1	y	0.55938
359.54999999999995	0.0	+	37	verb	phrase	1	5	match	plonger	5	1	y	0.55938
359.9493	0.2	xl	37	verb	phrase	1	6	match	plonger	5	1	y	0.55938
360.14919999999995	0.0	+	37	verb	phrase	1	7	match	plonger	5	1	y	0.55938
360.54909999999995	0.2	xncl	37	verb	phrase	1	8	match	plonger	5	1	y	0.55938
360.749	0.0	+	37	verb	phrase	1	9	match	plonger	5	1	y	0.55938
361.14880000000005	0.2	plonger	37	verb	phrase	1	10	match	plonger	5	1	y	0.55938
361.3487	0.0	+	37	verb	phrase	1	11	match	plonger	5	1	y	0.55938
361.74850000000004	0.0	+	37	verb	phrase	1	12	match	plonger	5	1	y	0.55938
363.74800000000005	0.0	PLONGER	37	verb	phrase	1	13	match	plonger	5	1	y	0.55938
364.44759999999997	0.0	+	37	verb	phrase	1	14	match	plonger	5	1	y	0.55938
364.30740000000003	0.0	[response]	37	verb	phrase	1	15	match	plonger	5	1	y	0.55938
366.14660000000003	0.0	+	38	verb	list	4	1	nomatch	luc	-1	1	p	0.69783
366.69640000000004	0.2	gld	38	verb	list	4	2	nomatch	luc	-1	1	p	0.69783
366.8962	0.0	+	38	verb	list	4	3	nomatch	luc	-1	1	p	0.69783
367.2961	0.2	adam	38	verb	list	4	4	nomatch	luc	-1	1	p	0.69783
367.496	0.0	+	38	verb	list	4	5	nomatch	luc	-1	1	p	0.69783
367.8958	0.2	mon	38	verb	list	4	6	nomatch	luc	-1	1	p	0.69783
368.09569999999997	0.0	+	38	verb	list	4	7	nomatch	luc	-1	1	p	0.69783
368.49559999999997	0.2	parader	38	verb	list	4	8	nomatch	luc	-1	1	p	0.69783
368.6957	0.0	+	38	verb	list	4	9	nomatch	luc	-1	1	p	0.69783
369.0955	0.2	bleu	38	verb	list	4	10	nomatch	luc	-1	1	p	0.69783
369.29560000000004	0.0	+	38	verb	list	4	11	nomatch	luc	-1	1	p	0.69783
369.69500000000005	0.0	+	38	verb	list	4	12	nomatch	luc	-1	1	p	0.69783
371.69410000000005	0.0	LUC	38	verb	list	4	13	nomatch	luc	-1	1	p	0.69783
372.4438	0.0	+	38	verb	list	4	14	nomatch	luc	-1	1	p	0.69783
372.39200000000005	0.0	[response]	38	verb	list	4	15	nomatch	luc	-1	1	p	0.69783
374.09310000000005	0.0	+	39	verb	list	1	1	match	beau	5	1	y	0.50824
374.64279999999997	0.2	wmzdfkr	39	verb	list	1	2	match	beau	5	1	y	0.50824
374.84270000000004	0.0	+	39	verb	list	1	3	match	beau	5	1	y	0.50824
375.24260000000004	0.2	dztj	39	verb	list	1	4	match	beau	5	1	y	0.50824
375.4425	0.0	+	39	verb	list	1	5	match	beau	5	1	y	0.50824
375.8423	0.2	xl	39	verb	list	1	6	match	beau	5	1	y	0.50824
376.0425	0.0	+	39	verb	list	1	7	match	beau	5	1	y	0.50824
376.44280000000003	0.2	bhmgwtn	39	verb	list	1	8	match	beau	5	1	y	0.50824
376.64189999999996	0.0	+	39	verb	list	1	9	match	beau	5	1	y	0.50824
377.04179999999997	0.2	beau	39	verb	list	1	10	match	beau	5	1	y	0.50824
377.24170000000004	0.0	+	39	verb	list	1	11	match	beau	5	1	y	0.50824
377.64149999999995	0.0	+	39	verb	list	1	12	match	beau	5	1	y	0.50824
379.64059999999995	0.0	BEAU	39	verb	list	1	13	match	beau	5	1	y	0.50824
380.29049999999995	0.0	+	39	verb	list	1	14	match	beau	5	1	y	0.50824
380.14880000000005	0.0	[response]	39	verb	list	1	15	match	beau	5	1	y	0.50824
382.0395	0.0	+	40	verb	list	1	1	nomatch	loin	-1	1	p	0.62472
382.5893	0.2	jlvbdzp	40	verb	list	1	2	nomatch	loin	-1	1	p	0.62472
382.78920000000005	0.0	+	40	verb	list	1	3	nomatch	loin	-1	1	p	0.62472
383.18960000000004	0.2	nqwz	40	verb	list	1	4	nomatch	loin	-1	1	p	0.62472
383.3894	0.0	+	40	verb	list	1	5	nomatch	loin	-1	1	p	0.62472
383.7889	0.2	jtp	40	verb	list	1	6	nomatch	loin	-1	1	p	0.62472
383.98940000000005	0.0	+	40	verb	list	1	7	nomatch	loin	-1	1	p	0.62472
384.3885	0.2	zphb	40	verb	list	1	8	nomatch	loin	-1	1	p	0.62472
384.5884	0.0	+	40	verb	list	1	9	nomatch	loin	-1	1	p	0.62472
384.9882	0.2	voyager	40	verb	list	1	10	nomatch	loin	-1	1	p	0.62472
385.18820000000005	0.0	+	40	verb	list	1	11	nomatch	loin	-1	1	p	0.62472
385.58799999999997	0.0	+	40	verb	list	1	12	nomatch	loin	-1	1	p	0.62472
387.5873	0.0	LOIN	40	verb	list	1	13	nomatch	loin	-1	1	p	0.62472
388.27020000000005	0.0	+	40	verb	list	1	14	nomatch	loin	-1	1	p	0.62472
388.212	0.0	[response]	40	verb	list	1	15	nomatch	loin	-1	1	p	0.62472
397.9991	0.0	+	41	verb	phrase	1	1	nomatch	beaucoup	-1	1	p	0.6651
398.5489	0.2	pnd	41	verb	phrase	1	2	nomatch	beaucoup	-1	1	p	0.6651
398.74879999999996	0.0	+	41	verb	phrase	1	3	nomatch	beaucoup	-1	1	p	0.6651
399.1486	0.2	fnth	41	verb	phrase	1	4	nomatch	beaucoup	-1	1	p	0.6651
399.34849999999994	0.0	+	41	verb	phrase	1	5	nomatch	beaucoup	-1	1	p	0.6651
399.74839999999995	0.2	hdmf	41	verb	phrase	1	6	nomatch	beaucoup	-1	1	p	0.6651
399.9483	0.0	+	41	verb	phrase	1	7	nomatch	beaucoup	-1	1	p	0.6651
400.34810000000004	0.2	vjrmh	41	verb	phrase	1	8	nomatch	beaucoup	-1	1	p	0.6651
400.548	0.0	+	41	verb	phrase	1	9	nomatch	beaucoup	-1	1	p	0.6651
400.94780000000003	0.2	mieux	41	verb	phrase	1	10	nomatch	beaucoup	-1	1	p	0.6651
401.14779999999996	0.0	+	41	verb	phrase	1	11	nomatch	beaucoup	-1	1	p	0.6651
401.548	0.0	+	41	verb	phrase	1	12	nomatch	beaucoup	-1	1	p	0.6651
403.5467	0.0	BEAUCOUP	41	verb	phrase	1	13	nomatch	beaucoup	-1	1	p	0.6651
404.26300000000003	0.0	+	41	verb	phrase	1	14	nomatch	beaucoup	-1	1	p	0.6651
404.21180000000004	0.0	[response]	41	verb	phrase	1	15	nomatch	beaucoup	-1	1	p	0.6651
405.9456	0.0	+	42	verb	phrase	1	1	nomatch	luc	-1	1	p	0.71936
406.4954	0.2	qgkvw	42	verb	phrase	1	2	nomatch	luc	-1	1	p	0.71936
406.6953	0.0	+	42	verb	phrase	1	3	nomatch	luc	-1	1	p	0.71936
407.0951	0.2	tqdg	42	verb	phrase	1	4	nomatch	luc	-1	1	p	0.71936
407.29499999999996	0.0	+	42	verb	phrase	1	5	nomatch	luc	-1	1	p	0.71936
407.69550000000004	0.2	xl	42	verb	phrase	1	6	nomatch	luc	-1	1	p	0.71936
407.89549999999997	0.0	+	42	verb	phrase	1	7	nomatch	luc	-1	1	p	0.71936
408.29459999999995	0.2	txfsck	42	verb	phrase	1	8	nomatch	luc	-1	1	p	0.71936
408.4945	0.0	+	42	verb	phrase	1	9	nomatch	luc	-1	1	p	0.71936
408.89430000000004	0.2	moins	42	verb	phrase	1	10	nomatch	luc	-1	1	p	0.71936
409.0942	0.0	+	42	verb	phrase	1	11	nomatch	luc	-1	1	p	0.71936
409.4941	0.0	+	42	verb	phrase	1	12	nomatch	luc	-1	1	p	0.71936
411.49390000000005	0.0	LUC	42	verb	phrase	1	13	nomatch	luc	-1	1	p	0.71936
412.27639999999997	0.0	+	42	verb	phrase	1	14	nomatch	luc	-1	1	p	0.71936
412.2133	0.0	[response]	42	verb	phrase	1	15	nomatch	luc	-1	1	p	0.71936
421.8886	0.0	+	43	verb	list	1	1	nomatch	vieux	-1	1	p	0.52001
422.4383	0.2	xgrb	43	verb	list	1	2	nomatch	vieux	-1	1	p	0.52001
422.6382	0.0	+	43	verb	list	1	3	nomatch	vieux	-1	1	p	0.52001
423.0381	0.2	zfs	43	verb	list	1	4	nomatch	vieux	-1	1	p	0.52001
423.23799999999994	0.0	+	43	verb	list	1	5	nomatch	vieux	-1	1	p	0.52001
423.63779999999997	0.2	hdmf	43	verb	list	1	6	nomatch	vieux	-1	1	p	0.52001
423.83770000000004	0.0	+	43	verb	list	1	7	nomatch	vieux	-1	1	p	0.52001
424.23749999999995	0.2	rwsqltc	43	verb	list	1	8	nomatch	vieux	-1	1	p	0.52001
424.4374	0.0	+	43	verb	list	1	9	nomatch	vieux	-1	1	p	0.52001
424.8373	0.2	nouveau	43	verb	list	1	10	nomatch	vieux	-1	1	p	0.52001
425.0372	0.0	+	43	verb	list	1	11	nomatch	vieux	-1	1	p	0.52001
425.4375	0.0	+	43	verb	list	1	12	nomatch	vieux	-1	1	p	0.52001
427.4361	0.0	VIEUX	43	verb	list	1	13	nomatch	vieux	-1	1	p	0.52001
428.01919999999996	0.0	+	43	verb	list	1	14	nomatch	vieux	-1	1	p	0.52001
427.9561	0.0	[response]	43	verb	list	1	15	nomatch	vieux	-1	1	p	0.52001
429.83500000000004	0.0	+	44	verb	phrase	1	1	match	patiner	5	1	y	0.62034
430.38480000000004	0.2	tqhfl	44	verb	phrase	1	2	match	patiner	5	1	y	0.62034
430.5847	0.0	+	44	verb	phrase	1	3	match	patiner	5	1	y	0.62034
430.9845	0.2	tgm	44	verb	phrase	1	4	match	patiner	5	1	y	0.62034
431.18449999999996	0.0	+	44	verb	phrase	1	5	match	patiner	5	1	y	0.62034
431.5843	0.2	ltfh	44	verb	phrase	1	6	match	patiner	5	1	y	0.62034
431.80150000000003	0.0	+	44	verb	phrase	1	7	match	patiner	5	1	y	0.62034
432.1844	0.2	rzxj	44	verb	phrase	1	8	match	patiner	5	1	y	0.62034
432.4008	0.0	+	44	verb	phrase	1	9	match	patiner	5	1	y	0.62034
432.7844	0.2	patiner	44	verb	phrase	1	10	match	patiner	5	1	y	0.62034
432.9837	0.0	+	44	verb	phrase	1	11	match	patiner	5	1	y	0.62034
433.40009999999995	0.0	+	44	verb	phrase	1	12	match	patiner	5	1	y	0.62034
435.3994	0.0	PATINER	44	verb	phrase	1	13	match	patiner	5	1	y	0.62034
436.1658	0.0	+	44	verb	phrase	1	14	match	patiner	5	1	y	0.62034
436.01969999999994	0.0	[response]	44	verb	phrase	1	15	match	patiner	5	1	y	0.62034
437.79819999999995	0.0	+	45	noun	list	3	1	nomatch	plus	-1	1	p	0.67214
438.3479	0.2	tdnq	45	noun	list	3	2	nomatch	plus	-1	1	p	0.67214
438.54830000000004	0.0	+	45	noun	list	3	3	nomatch	plus	-1	1	p	0.67214
438.9647	0.2	xgsj	45	noun	list	3	4	nomatch	plus	-1	1	p	0.67214
439.16459999999995	0.0	+	45	noun	list	3	5	nomatch	plus	-1	1	p	0.67214
439.54740000000004	0.2	mon	45	noun	list	3	6	nomatch	plus	-1	1	p	0.67214
439.7473	0.0	+	45	noun	list	3	7	nomatch	plus	-1	1	p	0.67214
440.1471	0.2	trop	45	noun	list	3	8	nomatch	plus	-1	1	p	0.67214
440.34709999999995	0.0	+	45	noun	list	3	9	nomatch	plus	-1	1	p	0.67214
440.7469	0.2	boîtier	45	noun	list	3	10	nomatch	plus	-1	1	p	0.67214
440.94680000000005	0.0	+	45	noun	list	3	11	nomatch	plus	-1	1	p	0.67214
441.3469	0.0	+	45	noun	list	3	12	nomatch	plus	-1	1	p	0.67214
443.34569999999997	0.0	PLUS	45	noun	list	3	13	nomatch	plus	-1	1	p	0.67214
444.0787	0.0	+	45	noun	list	3	14	nomatch	plus	-1	1	p	0.67214
444.01790000000005	0.0	[response]	45	noun	list	3	15	nomatch	plus	-1	1	p	0.67214
445.74469999999997	0.0	+	46	verb	phrase	2	1	match	voyager	4	1	y	0.59004
446.2944	0.2	gfkld	46	verb	phrase	2	2	match	voyager	4	1	y	0.59004
446.49429999999995	0.0	+	46	verb	phrase	2	3	match	voyager	4	1	y	0.59004
446.89419999999996	0.2	tqdg	46	verb	phrase	2	4	match	voyager	4	1	y	0.59004
447.0941	0.0	+	46	verb	phrase	2	5	match	voyager	4	1	y	0.59004
447.49390000000005	0.2	hdmf	46	verb	phrase	2	6	match	voyager	4	1	y	0.59004
447.6938	0.0	+	46	verb	phrase	2	7	match	voyager	4	1	y	0.59004
448.0943	0.2	voyager	46	verb	phrase	2	8	match	voyager	4	1	y	0.59004
448.29420000000005	0.0	+	46	verb	phrase	2	9	match	voyager	4	1	y	0.59004
448.6934	0.2	tard	46	verb	phrase	2	10	match	voyager	4	1	y	0.59004
448.89329999999995	0.0	+	46	verb	phrase	2	11	match	voyager	4	1	y	0.59004
449.2931	0.0	+	46	verb	phrase	2	12	match	voyager	4	1	y	0.59004
451.2925	0.0	VOYAGER	46	verb	phrase	2	13	match	voyager	4	1	y	0.59004
451.94190000000003	0.0	+	46	verb	phrase	2	14	match	voyager	4	1	y	0.59004
451.88250000000005	0.0	[response]	46	verb	phrase	2	15	match	voyager	4	1	y	0.59004
453.6912	0.0	+	47	noun	list	3	1	match	doit	3	1	y	0.52207
454.24160000000006	0.2	drt	47	noun	list	3	2	match	doit	3	1	y	0.52207
454.4411	0.0	+	47	noun	list	3	3	match	doit	3	1	y	0.52207
454.8407000000001	0.2	xwtz	47	noun	list	3	4	match	doit	3	1	y	0.52207
455.0407	0.0	+	47	noun	list	3	5	match	doit	3	1	y	0.52207
455.44040000000007	0.2	doit	47	noun	list	3	6	match	doit	3	1	y	0.52207
455.6403	0.0	+	47	noun	list	3	7	match	doit	3	1	y	0.52207
456.04010000000005	0.2	cendrier	47	noun	list	3	8	match	doit	3	1	y	0.52207
456.24	0.0	+	47	noun	list	3	9	match	doit	3	1	y	0.52207
456.63980000000004	0.2	loin	47	noun	list	3	10	match	doit	3	1	y	0.52207
456.8398000000001	0.0	+	47	noun	list	3	11	match	doit	3	1	y	0.52207
457.2396	0.0	+	47	noun	list	3	12	match	doit	3	1	y	0.52207
459.2387	0.0	DOIT	47	noun	list	3	13	match	doit	3	1	y	0.52207
459.82180000000005	0.0	+	47	noun	list	3	14	match	doit	3	1	y	0.52207
459.7608	0.0	[response]	47	noun	list	3	15	match	doit	3	1	y	0.52207
461.6376	0.0	+	48	noun	list	3	1	nomatch	bleu	-1	1	p	0.73043
462.1874	0.2	wrgjx	48	noun	list	3	2	nomatch	bleu	-1	1	p	0.73043
462.3873	0.0	+	48	noun	list	3	3	nomatch	bleu	-1	1	p	0.73043
462.7871	0.2	gbvz	48	noun	list	3	4	nomatch	bleu	-1	1	p	0.73043
462.9870000000001	0.0	+	48	noun	list	3	5	nomatch	bleu	-1	1	p	0.73043
463.3869000000001	0.2	va	48	noun	list	3	6	nomatch	bleu	-1	1	p	0.73043
463.58680000000004	0.0	+	48	noun	list	3	7	nomatch	bleu	-1	1	p	0.73043
463.9873	0.2	voilier	48	noun	list	3	8	nomatch	bleu	-1	1	p	0.73043
464.1872000000001	0.0	+	48	noun	list	3	9	nomatch	bleu	-1	1	p	0.73043
464.58630000000005	0.2	vite	48	noun	list	3	10	nomatch	bleu	-1	1	p	0.73043
464.7863	0.0	+	48	noun	list	3	11	nomatch	bleu	-1	1	p	0.73043
465.1861	0.0	+	48	noun	list	3	12	nomatch	bleu	-1	1	p	0.73043
467.1852	0.0	BLEU	48	noun	list	3	13	nomatch	bleu	-1	1	p	0.73043
467.9682	0.0	+	48	noun	list	3	14	nomatch	bleu	-1	1	p	0.73043
467.91560000000004	0.0	[response]	48	noun	list	3	15	nomatch	bleu	-1	1	p	0.73043
469.58410000000003	0.0	+	49	verb	list	2	1	match	voyager	4	1	y	0.55554
470.13390000000004	0.2	mwvlk	49	verb	list	2	2	match	voyager	4	1	y	0.55554
470.3338	0.0	+	49	verb	list	2	3	match	voyager	4	1	y	0.55554
470.7336	0.2	mqlx	49	verb	list	2	4	match	voyager	4	1	y	0.55554
470.9335	0.0	+	49	verb	list	2	5	match	voyager	4	1	y	0.55554
471.35	0.2	bxp	49	verb	list	2	6	match	voyager	4	1	y	0.55554
471.5499	0.0	+	49	verb	list	2	7	match	voyager	4	1	y	0.55554
471.9497	0.2	voyager	49	verb	list	2	8	match	voyager	4	1	y	0.55554
472.1496000000001	0.0	+	49	verb	list	2	9	match	voyager	4	1	y	0.55554
472.5499	0.2	vert	49	verb	list	2	10	match	voyager	4	1	y	0.55554
472.76650000000006	0.0	+	49	verb	list	2	11	match	voyager	4	1	y	0.55554
473.1496000000001	0.0	+	49	verb	list	2	12	match	voyager	4	1	y	0.55554
475.14830000000006	0.0	VOYAGER	49	verb	list	2	13	match	voyager	4	1	y	0.55554
475.76470000000006	0.0	+	49	verb	list	2	14	match	voyager	4	1	y	0.55554
475.7039	0.0	[response]	49	verb	list	2	15	match	voyager	4	1	y	0.55554
477.54730000000006	0.0	+	50	verb	list	4	1	match	jongler	5	1	y	0.62566
478.097	0.2	frxc	50	verb	list	4	2	match	jongler	5	1	y	0.62566
478.29690000000005	0.0	+	50	verb	list	4	3	match	jongler	5	1	y	0.62566
478.69680000000005	0.2	avec	50	verb	list	4	4	match	jongler	5	1	y	0.62566
478.8967	0.0	+	50	verb	list	4	5	match	jongler	5	1	y	0.62566
479.29650000000004	0.2	va	50	verb	list	4	6	match	jongler	5	1	y	0.62566
479.4964	0.0	+	50	verb	list	4	7	match	jongler	5	1	y	0.62566
479.8962	0.2	petit	50	verb	list	4	8	match	jongler	5	1	y	0.62566
480.0965	0.0	+	50	verb	list	4	9	match	jongler	5	1	y	0.62566
480.49620000000004	0.2	jongler	50	verb	list	4	10	match	jongler	5	1	y	0.62566
480.696	0.0	+	50	verb	list	4	11	match	jongler	5	1	y	0.62566
481.09580000000005	0.0	+	50	verb	list	4	12	match	jongler	5	1	y	0.62566
483.0948000000001	0.0	JONGLER	50	verb	list	4	13	match	jongler	5	1	y	0.62566
483.89510000000007	0.0	+	50	verb	list	4	14	match	jongler	5	1	y	0.62566
483.7205	0.0	[response]	50	verb	list	4	15	match	jongler	5	1	y	0.62566
485.4937	0.0	+	51	noun	phrase	4	1	nomatch	rouler	-1	1	p	0.57427
486.0435	0.2	gfnmsx	51	noun	phrase	4	2	nomatch	rouler	-1	1	p	0.57427
486.24340000000007	0.0	+	51	noun	phrase	4	3	nomatch	rouler	-1	1	p	0.57427
486.6435	0.2	vers	51	noun	phrase	4	4	nomatch	rouler	-1	1	p	0.57427
486.84360000000004	0.0	+	51	noun	phrase	4	5	nomatch	rouler	-1	1	p	0.57427
487.2437	0.2	leur	51	noun	phrase	4	6	nomatch	rouler	-1	1	p	0.57427
487.4596	0.0	+	51	noun	phrase	4	7	nomatch	rouler	-1	1	p	0.57427
487.84270000000004	0.2	cendrier	51	noun	phrase	4	8	nomatch	rouler	-1	1	p	0.57427
488.0426	0.0	+	51	noun	phrase	4	9	nomatch	rouler	-1	1	p	0.57427
488.4424	0.2	vert	51	noun	phrase	4	10	nomatch	rouler	-1	1	p	0.57427
488.6423	0.0	+	51	noun	phrase	4	11	nomatch	rouler	-1	1	p	0.57427
489.0422	0.0	+	51	noun	phrase	4	12	nomatch	rouler	-1	1	p	0.57427
491.0413	0.0	ROULER	51	noun	phrase	4	13	nomatch	rouler	-1	1	p	0.57427
491.7083	0.0	+	51	noun	phrase	4	14	nomatch	rouler	-1	1	p	0.57427
491.6156	0.0	[response]	51	noun	phrase	4	15	nomatch	rouler	-1	1	p	0.57427
493.4402	0.0	+	52	verb	phrase	1	1	match	danser	5	1	y	0.46556
493.99	0.2	tdnlq	52	verb	phrase	1	2	match	danser	5	1	y	0.46556
494.1899000000001	0.0	+	52	verb	phrase	1	3	match	danser	5	1	y	0.46556
494.5897	0.2	tqdg	52	verb	phrase	1	4	match	danser	5	1	y	0.46556
494.78960000000006	0.0	+	52	verb	phrase	1	5	match	danser	5	1	y	0.46556
495.18950000000007	0.2	xl	52	verb	phrase	1	6	match	danser	5	1	y	0.46556
495.3894	0.0	+	52	verb	phrase	1	7	match	danser	5	1	y	0.46556
495.78920000000005	0.2	crkjbpvw	52	verb	phrase	1	8	match	danser	5	1	y	0.46556
495.9891	0.0	+	52	verb	phrase	1	9	match	danser	5	1	y	0.46556
496.3894	0.2	danser	52	verb	phrase	1	10	match	danser	5	1	y	0.46556
496.58910000000003	0.0	+	52	verb	phrase	1	11	match	danser	5	1	y	0.46556
496.98940000000005	0.0	+	52	verb	phrase	1	12	match	danser	5	1	y	0.46556
498.98840000000007	0.0	DANSER	52	verb	phrase	1	13	match	danser	5	1	y	0.46556
499.58770000000004	0.0	+	52	verb	phrase	1	14	match	danser	5	1	y	0.46556
499.45400000000006	0.0	[response]	52	verb	phrase	1	15	match	danser	5	1	y	0.46556
501.3867	0.0	+	53	verb	list	4	1	match	son	3	1	y	0.94286
501.9365	0.2	vfjcdgq	53	verb	list	4	2	match	son	3	1	y	0.94286
502.1364	0.0	+	53	verb	list	4	3	match	son	3	1	y	0.94286
502.5362	0.2	yves	53	verb	list	4	4	match	son	3	1	y	0.94286
502.7361000000001	0.0	+	53	verb	list	4	5	match	son	3	1	y	0.94286
503.1359	0.2	son	53	verb	list	4	6	match	son	3	1	y	0.94286
503.33630000000005	0.0	+	53	verb	list	4	7	match	son	3	1	y	0.94286
503.736	0.2	jongler	53	verb	list	4	8	match	son	3	1	y	0.94286
503.93590000000006	0.0	+	53	verb	list	4	9	match	son	3	1	y	0.94286
504.35220000000004	0.2	rouge	53	verb	list	4	10	match	son	3	1	y	0.94286
504.5527000000001	0.0	+	53	verb	list	4	11	match	son	3	1	y	0.94286
504.93510000000003	0.0	+	53	verb	list	4	12	match	son	3	1	y	0.94286
506.93420000000003	0.0	SON	53	verb	list	4	13	match	son	3	1	y	0.94286
507.9338	0.0	+	53	verb	list	4	14	match	son	3	1	y	0.94286
507.87710000000004	0.0	[response]	53	verb	list	4	15	match	son	3	1	y	0.94286
509.3498000000001	0.0	+	54	verb	list	2	1	nomatch	plus	-1	1	p	0.55431
509.8996000000001	0.2	cxtpv	54	verb	list	2	2	nomatch	plus	-1	1	p	0.55431
510.09950000000003	0.0	+	54	verb	list	2	3	nomatch	plus	-1	1	p	0.55431
510.49930000000006	0.2	scgn	54	verb	list	2	4	nomatch	plus	-1	1	p	0.55431
510.6992	0.0	+	54	verb	list	2	5	nomatch	plus	-1	1	p	0.55431
511.0997	0.2	ltfh	54	verb	list	2	6	nomatch	plus	-1	1	p	0.55431
511.29960000000005	0.0	+	54	verb	list	2	7	nomatch	plus	-1	1	p	0.55431
511.6994000000001	0.2	beau	54	verb	list	2	8	nomatch	plus	-1	1	p	0.55431
511.8994	0.0	+	54	verb	list	2	9	nomatch	plus	-1	1	p	0.55431
512.2991000000001	0.2	danser	54	verb	list	2	10	nomatch	plus	-1	1	p	0.55431
512.4985	0.0	+	54	verb	list	2	11	nomatch	plus	-1	1	p	0.55431
512.8983000000001	0.0	+	54	verb	list	2	12	nomatch	plus	-1	1	p	0.55431
514.9147	0.0	PLUS	54	verb	list	2	13	nomatch	plus	-1	1	p	0.55431
515.5475	0.0	+	54	verb	list	2	14	nomatch	plus	-1	1	p	0.55431
515.469	0.0	[response]	54	verb	list	2	15	nomatch	plus	-1	1	p	0.55431
517.2963	0.0	+	55	verb	list	3	1	nomatch	voyager	-1	1	p	0.95092
517.8461	0.2	gmtj	55	verb	list	3	2	nomatch	voyager	-1	1	p	0.95092
518.0464000000001	0.0	+	55	verb	list	3	3	nomatch	voyager	-1	1	p	0.95092
518.4459	0.2	zfs	55	verb	list	3	4	nomatch	voyager	-1	1	p	0.95092
518.663	0.0	+	55	verb	list	3	5	nomatch	voyager	-1	1	p	0.95092
519.0459000000001	0.2	va	55	verb	list	3	6	nomatch	voyager	-1	1	p	0.95092
519.2457	0.0	+	55	verb	list	3	7	nomatch	voyager	-1	1	p	0.95092
519.6453	0.2	beau	55	verb	list	3	8	nomatch	voyager	-1	1	p	0.95092
519.8452	0.0	+	55	verb	list	3	9	nomatch	voyager	-1	1	p	0.95092
520.245	0.2	nager	55	verb	list	3	10	nomatch	voyager	-1	1	p	0.95092
520.4449000000001	0.0	+	55	verb	list	3	11	nomatch	voyager	-1	1	p	0.95092
520.8448000000001	0.0	+	55	verb	list	3	12	nomatch	voyager	-1	1	p	0.95092
522.8441	0.0	VOYAGER	55	verb	list	3	13	nomatch	voyager	-1	1	p	0.95092
523.8601	0.0	+	55	verb	list	3	14	nomatch	voyager	-1	1	p	0.95092
523.7951	0.0	[response]	55	verb	list	3	15	nomatch	voyager	-1	1	p	0.95092
533.2393000000001	0.0	+	56	verb	list	1	1	nomatch	parader	-1	1	p	0.83013
533.789	0.2	wgdc	56	verb	list	1	2	nomatch	parader	-1	1	p	0.83013
533.9889000000001	0.0	+	56	verb	list	1	3	nomatch	parader	-1	1	p	0.83013
534.3888000000001	0.2	nqwz	56	verb	list	1	4	nomatch	parader	-1	1	p	0.83013
534.5887	0.0	+	56	verb	list	1	5	nomatch	parader	-1	1	p	0.83013
534.9885	0.2	jtp	56	verb	list	1	6	nomatch	parader	-1	1	p	0.83013
535.1884	0.0	+	56	verb	list	1	7	nomatch	parader	-1	1	p	0.83013
535.5882	0.2	zphb	56	verb	list	1	8	nomatch	parader	-1	1	p	0.83013
535.7881	0.0	+	56	verb	list	1	9	nomatch	parader	-1	1	p	0.83013
536.188	0.2	patiner	56	verb	list	1	10	nomatch	parader	-1	1	p	0.83013
536.3885	0.0	+	56	verb	list	1	11	nomatch	parader	-1	1	p	0.83013
536.7882000000001	0.0	+	56	verb	list	1	12	nomatch	parader	-1	1	p	0.83013
538.7871	0.0	PARADER	56	verb	list	1	13	nomatch	parader	-1	1	p	0.83013
539.6698	0.0	+	56	verb	list	1	14	nomatch	parader	-1	1	p	0.83013
539.6172	0.0	[response]	56	verb	list	1	15	nomatch	parader	-1	1	p	0.83013
541.1857	0.0	+	57	noun	phrase	4	1	nomatch	grenier	-1	1	p	0.86444
541.7355	0.2	zmq	57	noun	phrase	4	2	nomatch	grenier	-1	1	p	0.86444
541.9354000000001	0.0	+	57	noun	phrase	4	3	nomatch	grenier	-1	1	p	0.86444
542.3352	0.2	sous	57	noun	phrase	4	4	nomatch	grenier	-1	1	p	0.86444
542.5351	0.0	+	57	noun	phrase	4	5	nomatch	grenier	-1	1	p	0.86444
542.9350000000001	0.2	son	57	noun	phrase	4	6	nomatch	grenier	-1	1	p	0.86444
543.1349	0.0	+	57	noun	phrase	4	7	nomatch	grenier	-1	1	p	0.86444
543.5347	0.2	petit	57	noun	phrase	4	8	nomatch	grenier	-1	1	p	0.86444
543.7346	0.0	+	57	noun	phrase	4	9	nomatch	grenier	-1	1	p	0.86444
544.1351000000001	0.2	rocher	57	noun	phrase	4	10	nomatch	grenier	-1	1	p	0.86444
544.335	0.0	+	57	noun	phrase	4	11	nomatch	grenier	-1	1	p	0.86444
544.7347	0.0	+	57	noun	phrase	4	12	nomatch	grenier	-1	1	p	0.86444
546.75	0.0	GRENIER	57	noun	phrase	4	13	nomatch	grenier	-1	1	p	0.86444
547.6662	0.0	+	57	noun	phrase	4	14	nomatch	grenier	-1	1	p	0.86444
547.6144	0.0	[response]	57	noun	phrase	4	15	nomatch	grenier	-1	1	p	0.86444
565.1418	0.0	+	58	verb	list	3	1	match	jongler	5	1	y	0.69416
565.6916	0.2	jsnqz	58	verb	list	3	2	match	jongler	5	1	y	0.69416
565.8915000000001	0.0	+	58	verb	list	3	3	match	jongler	5	1	y	0.69416
566.2913	0.2	scgn	58	verb	list	3	4	match	jongler	5	1	y	0.69416
566.4912	0.0	+	58	verb	list	3	5	match	jongler	5	1	y	0.69416
566.8910000000001	0.2	va	58	verb	list	3	6	match	jongler	5	1	y	0.69416
567.091	0.0	+	58	verb	list	3	7	match	jongler	5	1	y	0.69416
567.4915	0.2	petit	58	verb	list	3	8	match	jongler	5	1	y	0.69416
567.6913000000001	0.0	+	58	verb	list	3	9	match	jongler	5	1	y	0.69416
568.0907000000001	0.2	jongler	58	verb	list	3	10	match	jongler	5	1	y	0.69416
568.2905000000001	0.0	+	58	verb	list	3	11	match	jongler	5	1	y	0.69416
568.6902	0.0	+	58	verb	list	3	12	match	jongler	5	1	y	0.69416
570.6893	0.0	JONGLER	58	verb	list	3	13	match	jongler	5	1	y	0.69416
571.4390000000001	0.0	+	58	verb	list	3	14	match	jongler	5	1	y	0.69416
571.3835	0.0	[response]	58	verb	list	3	15	match	jongler	5	1	y	0.69416
573.0883	0.0	+	59	verb	phrase	3	1	nomatch	paul	-1	1	p	0.64236
573.6381	0.2	kqprsxw	59	verb	phrase	3	2	nomatch	paul	-1	1	p	0.64236
573.8380000000001	0.0	+	59	verb	phrase	3	3	nomatch	paul	-1	1	p	0.64236
574.2378	0.2	fnth	59	verb	phrase	3	4	nomatch	paul	-1	1	p	0.64236
574.4377000000001	0.0	+	59	verb	phrase	3	5	nomatch	paul	-1	1	p	0.64236
574.8375	0.2	va	59	verb	phrase	3	6	nomatch	paul	-1	1	p	0.64236
575.0381	0.0	+	59	verb	phrase	3	7	nomatch	paul	-1	1	p	0.64236
575.4377000000001	0.2	mieux	59	verb	phrase	3	8	nomatch	paul	-1	1	p	0.64236
575.6374000000001	0.0	+	59	verb	phrase	3	9	nomatch	paul	-1	1	p	0.64236
576.0371	0.2	jongler	59	verb	phrase	3	10	nomatch	paul	-1	1	p	0.64236
576.2373	0.0	+	59	verb	phrase	3	11	nomatch	paul	-1	1	p	0.64236
576.6367	0.0	+	59	verb	phrase	3	12	nomatch	paul	-1	1	p	0.64236
578.6359	0.0	PAUL	59	verb	phrase	3	13	nomatch	paul	-1	1	p	0.64236
579.3696	0.0	+	59	verb	phrase	3	14	nomatch	paul	-1	1	p	0.64236
579.2783000000001	0.0	[response]	59	verb	phrase	3	15	nomatch	paul	-1	1	p	0.64236
589.0817000000001	0.0	+	60	verb	phrase	2	1	match	nager	5	1	y	0.57863
589.5983	0.2	qnhlgvc	60	verb	phrase	2	2	match	nager	5	1	y	0.57863
589.7979	0.0	+	60	verb	phrase	2	3	match	nager	5	1	y	0.57863
590.1981000000001	0.2	mqlx	60	verb	phrase	2	4	match	nager	5	1	y	0.57863
590.3973	0.0	+	60	verb	phrase	2	5	match	nager	5	1	y	0.57863
590.7971	0.2	ltfh	60	verb	phrase	2	6	match	nager	5	1	y	0.57863
590.9970000000001	0.0	+	60	verb	phrase	2	7	match	nager	5	1	y	0.57863
591.3969000000001	0.2	moins	60	verb	phrase	2	8	match	nager	5	1	y	0.57863
591.5968	0.0	+	60	verb	phrase	2	9	match	nager	5	1	y	0.57863
591.9966000000001	0.2	nager	60	verb	phrase	2	10	match	nager	5	1	y	0.57863
592.1965	0.0	+	60	verb	phrase	2	11	match	nager	5	1	y	0.57863
592.5969	0.0	+	60	verb	phrase	2	12	match	nager	5	1	y	0.57863
594.5954	0.0	NAGER	60	verb	phrase	2	13	match	nager	5	1	y	0.57863
595.2285	0.0	+	60	verb	phrase	2	14	match	nager	5	1	y	0.57863
595.1741000000002	0.0	[response]	60	verb	phrase	2	15	match	nager	5	1	y	0.57863
596.9944	0.0	+	61	verb	phrase	3	1	nomatch	nager	-1	1	p	0.6821500000000001
597.5441000000001	0.2	stv	61	verb	phrase	3	2	nomatch	nager	-1	1	p	0.6821500000000001
597.744	0.0	+	61	verb	phrase	3	3	nomatch	nager	-1	1	p	0.6821500000000001
598.1439	0.2	mqlx	61	verb	phrase	3	4	nomatch	nager	-1	1	p	0.6821500000000001
598.3438	0.0	+	61	verb	phrase	3	5	nomatch	nager	-1	1	p	0.6821500000000001
598.7436	0.2	va	61	verb	phrase	3	6	nomatch	nager	-1	1	p	0.6821500000000001
598.9436000000001	0.0	+	61	verb	phrase	3	7	nomatch	nager	-1	1	p	0.6821500000000001
599.3605	0.2	moins	61	verb	phrase	3	8	nomatch	nager	-1	1	p	0.6821500000000001
599.5433	0.0	+	61	verb	phrase	3	9	nomatch	nager	-1	1	p	0.6821500000000001
599.9431000000001	0.2	danser	61	verb	phrase	3	10	nomatch	nager	-1	1	p	0.6821500000000001
600.143	0.0	+	61	verb	phrase	3	11	nomatch	nager	-1	1	p	0.6821500000000001
600.5428	0.0	+	61	verb	phrase	3	12	nomatch	nager	-1	1	p	0.6821500000000001
602.5419	0.0	NAGER	61	verb	phrase	3	13	nomatch	nager	-1	1	p	0.6821500000000001
603.3086000000001	0.0	+	61	verb	phrase	3	14	nomatch	nager	-1	1	p	0.6821500000000001
603.2241	0.0	[response]	61	verb	phrase	3	15	nomatch	nager	-1	1	p	0.6821500000000001
604.9409	0.0	+	62	verb	list	1	1	match	vert	5	1	y	0.44976
605.4906	0.2	wdl	62	verb	list	1	2	match	vert	5	1	y	0.44976
605.6905	0.0	+	62	verb	list	1	3	match	vert	5	1	y	0.44976
606.0904	0.2	xgsj	62	verb	list	1	4	match	vert	5	1	y	0.44976
606.2903	0.0	+	62	verb	list	1	5	match	vert	5	1	y	0.44976
606.6901	0.2	fpzv	62	verb	list	1	6	match	vert	5	1	y	0.44976
606.89	0.0	+	62	verb	list	1	7	match	vert	5	1	y	0.44976
607.2899	0.2	rwsqltc	62	verb	list	1	8	match	vert	5	1	y	0.44976
607.4903	0.0	+	62	verb	list	1	9	match	vert	5	1	y	0.44976
607.9067	0.2	vert	62	verb	list	1	10	match	vert	5	1	y	0.44976
608.0896	0.0	+	62	verb	list	1	11	match	vert	5	1	y	0.44976
608.4899	0.0	+	62	verb	list	1	12	match	vert	5	1	y	0.44976
610.4884000000001	0.0	VERT	62	verb	list	1	13	match	vert	5	1	y	0.44976
611.0048	0.0	+	62	verb	list	1	14	match	vert	5	1	y	0.44976
610.9382000000002	0.0	[response]	62	verb	list	1	15	match	vert	5	1	y	0.44976
612.8873	0.0	+	63	verb	list	1	1	match	jongler	5	1	y	0.55692
613.4371	0.2	bptvlrh	63	verb	list	1	2	match	jongler	5	1	y	0.55692
613.6370000000001	0.0	+	63	verb	list	1	3	match	jongler	5	1	y	0.55692
614.0368	0.2	jwhm	63	verb	list	1	4	match	jongler	5	1	y	0.55692
614.2367	0.0	+	63	verb	list	1	5	match	jongler	5	1	y	0.55692
614.6366	0.2	hdmf	63	verb	list	1	6	match	jongler	5	1	y	0.55692
614.8365	0.0	+	63	verb	list	1	7	match	jongler	5	1	y	0.55692
615.2366000000001	0.2	pvns	63	verb	list	1	8	match	jongler	5	1	y	0.55692
615.4363000000001	0.0	+	63	verb	list	1	9	match	jongler	5	1	y	0.55692
615.8366	0.2	jongler	63	verb	list	1	10	match	jongler	5	1	y	0.55692
616.0362	0.0	+	63	verb	list	1	11	match	jongler	5	1	y	0.55692
616.4358	0.0	+	63	verb	list	1	12	match	jongler	5	1	y	0.55692
618.4349	0.0	JONGLER	63	verb	list	1	13	match	jongler	5	1	y	0.55692
619.1016000000001	0.0	+	63	verb	list	1	14	match	jongler	5	1	y	0.55692
618.9918	0.0	[response]	63	verb	list	1	15	match	jongler	5	1	y	0.55692
628.8469	0.0	+	64	noun	phrase	4	1	match	vert	5	1	y	0.5351
629.3967	0.2	wkzsqnh	64	noun	phrase	4	2	match	vert	5	1	y	0.5351
629.5966000000001	0.0	+	64	noun	phrase	4	3	match	vert	5	1	y	0.5351
629.9964	0.2	sans	64	noun	phrase	4	4	match	vert	5	1	y	0.5351
630.1963000000001	0.0	+	64	noun	phrase	4	5	match	vert	5	1	y	0.5351
630.5962000000001	0.2	leur	64	noun	phrase	4	6	match	vert	5	1	y	0.5351
630.7961	0.0	+	64	noun	phrase	4	7	match	vert	5	1	y	0.5351
631.1959	0.2	grenier	64	noun	phrase	4	8	match	vert	5	1	y	0.5351
631.3965000000001	0.0	+	64	noun	phrase	4	9	match	vert	5	1	y	0.5351
631.796	0.2	vert	64	noun	phrase	4	10	match	vert	5	1	y	0.5351
631.9957	0.0	+	64	noun	phrase	4	11	match	vert	5	1	y	0.5351
632.3961	0.0	+	64	noun	phrase	4	12	match	vert	5	1	y	0.5351
634.3951000000001	0.0	VERT	64	noun	phrase	4	13	match	vert	5	1	y	0.5351
634.9942	0.0	+	64	noun	phrase	4	14	match	vert	5	1	y	0.5351
634.9302	0.0	[response]	64	noun	phrase	4	15	match	vert	5	1	y	0.5351
636.7934	0.0	+	65	verb	list	2	1	match	parader	5	1	y	0.54032
637.3432	0.2	kqgpbwl	65	verb	list	2	2	match	parader	5	1	y	0.54032
637.5431	0.0	+	65	verb	list	2	3	match	parader	5	1	y	0.54032
637.9429	0.2	xwtz	65	verb	list	2	4	match	parader	5	1	y	0.54032
638.1428000000001	0.0	+	65	verb	list	2	5	match	parader	5	1	y	0.54032
638.5432000000001	0.2	xl	65	verb	list	2	6	match	parader	5	1	y	0.54032
638.7431	0.0	+	65	verb	list	2	7	match	parader	5	1	y	0.54032
639.1429	0.2	grand	65	verb	list	2	8	match	parader	5	1	y	0.54032
639.3430000000001	0.0	+	65	verb	list	2	9	match	parader	5	1	y	0.54032
639.7421	0.2	parader	65	verb	list	2	10	match	parader	5	1	y	0.54032
639.942	0.0	+	65	verb	list	2	11	match	parader	5	1	y	0.54032
640.3418	0.0	+	65	verb	list	2	12	match	parader	5	1	y	0.54032
642.341	0.0	PARADER	65	verb	list	2	13	match	parader	5	1	y	0.54032
642.9408000000001	0.0	+	65	verb	list	2	14	match	parader	5	1	y	0.54032
642.8813	0.0	[response]	65	verb	list	2	15	match	parader	5	1	y	0.54032
644.7399	0.0	+	66	verb	phrase	1	1	match	voyager	5	1	y	1.1112
645.2897	0.2	kfd	66	verb	phrase	1	2	match	voyager	5	1	y	1.1112
645.4896	0.0	+	66	verb	phrase	1	3	match	voyager	5	1	y	1.1112
645.8894	0.2	mqlx	66	verb	phrase	1	4	match	voyager	5	1	y	1.1112
646.0895	0.0	+	66	verb	phrase	1	5	match	voyager	5	1	y	1.1112
646.4897	0.2	ltfh	66	verb	phrase	1	6	match	voyager	5	1	y	1.1112
646.6895000000001	0.0	+	66	verb	phrase	1	7	match	voyager	5	1	y	1.1112
647.0892	0.2	jfpc	66	verb	phrase	1	8	match	voyager	5	1	y	1.1112
647.2894	0.0	+	66	verb	phrase	1	9	match	voyager	5	1	y	1.1112
647.6886000000001	0.2	voyager	66	verb	phrase	1	10	match	voyager	5	1	y	1.1112
647.8885	0.0	+	66	verb	phrase	1	11	match	voyager	5	1	y	1.1112
648.2884	0.0	+	66	verb	phrase	1	12	match	voyager	5	1	y	1.1112
650.2881	0.0	VOYAGER	66	verb	phrase	1	13	match	voyager	5	1	y	1.1112
651.4536	0.0	+	66	verb	phrase	1	14	match	voyager	5	1	y	1.1112
651.3993	0.0	[response]	66	verb	phrase	1	15	match	voyager	5	1	y	1.1112
652.6864	0.0	+	67	verb	list	3	1	match	parader	4	1	y	0.59032
653.2368	0.2	kwnmrg	67	verb	list	3	2	match	parader	4	1	y	0.59032
653.4368000000001	0.0	+	67	verb	list	3	3	match	parader	4	1	y	0.59032
653.8364	0.2	fnth	67	verb	list	3	4	match	parader	4	1	y	0.59032
654.0364000000001	0.0	+	67	verb	list	3	5	match	parader	4	1	y	0.59032
654.4356	0.2	mon	67	verb	list	3	6	match	parader	4	1	y	0.59032
654.6355	0.0	+	67	verb	list	3	7	match	parader	4	1	y	0.59032
655.0353	0.2	parader	67	verb	list	3	8	match	parader	4	1	y	0.59032
655.2353	0.0	+	67	verb	list	3	9	match	parader	4	1	y	0.59032
655.6351000000001	0.2	noir	67	verb	list	3	10	match	parader	4	1	y	0.59032
655.835	0.0	+	67	verb	list	3	11	match	parader	4	1	y	0.59032
656.2348000000001	0.0	+	67	verb	list	3	12	match	parader	4	1	y	0.59032
658.2339000000001	0.0	PARADER	67	verb	list	3	13	match	parader	4	1	y	0.59032
658.8836	0.0	+	67	verb	list	3	14	match	parader	4	1	y	0.59032
658.8243	0.0	[response]	67	verb	list	3	15	match	parader	4	1	y	0.59032
660.6495	0.0	+	68	verb	phrase	1	1	nomatch	vert	-1	1	p	0.49406
661.1993	0.2	xql	68	verb	phrase	1	2	nomatch	vert	-1	1	p	0.49406
661.3992000000001	0.0	+	68	verb	phrase	1	3	nomatch	vert	-1	1	p	0.49406
661.799	0.2	mqlx	68	verb	phrase	1	4	nomatch	vert	-1	1	p	0.49406
661.9989	0.0	+	68	verb	phrase	1	5	nomatch	vert	-1	1	p	0.49406
662.3987000000001	0.2	hdmf	68	verb	phrase	1	6	nomatch	vert	-1	1	p	0.49406
662.5987	0.0	+	68	verb	phrase	1	7	nomatch	vert	-1	1	p	0.49406
662.9989	0.2	rnsjd	68	verb	phrase	1	8	nomatch	vert	-1	1	p	0.49406
663.1991	0.0	+	68	verb	phrase	1	9	nomatch	vert	-1	1	p	0.49406
663.5982	0.2	parader	68	verb	phrase	1	10	nomatch	vert	-1	1	p	0.49406
663.7981	0.0	+	68	verb	phrase	1	11	nomatch	vert	-1	1	p	0.49406
664.1982	0.0	+	68	verb	phrase	1	12	nomatch	vert	-1	1	p	0.49406
666.1971	0.0	VERT	68	verb	phrase	1	13	nomatch	vert	-1	1	p	0.49406
666.7468	0.0	+	68	verb	phrase	1	14	nomatch	vert	-1	1	p	0.49406
666.6911	0.0	[response]	68	verb	phrase	1	15	nomatch	vert	-1	1	p	0.49406
668.596	0.0	+	69	verb	phrase	2	1	nomatch	nager	-1	1	p	0.7633200000000001
669.1458	0.2	rpv	69	verb	phrase	2	2	nomatch	nager	-1	1	p	0.7633200000000001
669.3457000000001	0.0	+	69	verb	phrase	2	3	nomatch	nager	-1	1	p	0.7633200000000001
669.7455	0.2	sndq	69	verb	phrase	2	4	nomatch	nager	-1	1	p	0.7633200000000001
669.9454000000001	0.0	+	69	verb	phrase	2	5	nomatch	nager	-1	1	p	0.7633200000000001
670.3452	0.2	hdmf	69	verb	phrase	2	6	nomatch	nager	-1	1	p	0.7633200000000001
670.5456	0.0	+	69	verb	phrase	2	7	nomatch	nager	-1	1	p	0.7633200000000001
670.9453	0.2	mieux	69	verb	phrase	2	8	nomatch	nager	-1	1	p	0.7633200000000001
671.1452	0.0	+	69	verb	phrase	2	9	nomatch	nager	-1	1	p	0.7633200000000001
671.5447	0.2	jongler	69	verb	phrase	2	10	nomatch	nager	-1	1	p	0.7633200000000001
671.7446	0.0	+	69	verb	phrase	2	11	nomatch	nager	-1	1	p	0.7633200000000001
672.1444	0.0	+	69	verb	phrase	2	12	nomatch	nager	-1	1	p	0.7633200000000001
674.144	0.0	NAGER	69	verb	phrase	2	13	nomatch	nager	-1	1	p	0.7633200000000001
674.9598	0.0	+	69	verb	phrase	2	14	nomatch	nager	-1	1	p	0.7633200000000001
674.9074	0.0	[response]	69	verb	phrase	2	15	nomatch	nager	-1	1	p	0.7633200000000001
676.5425	0.0	+	70	noun	phrase	4	1	match	son	3	1	y	0.72576
677.0922	0.2	lrzxc	70	noun	phrase	4	2	match	son	3	1	y	0.72576
677.2922	0.0	+	70	noun	phrase	4	3	match	son	3	1	y	0.72576
677.692	0.2	sur	70	noun	phrase	4	4	match	son	3	1	y	0.72576
677.8919000000001	0.0	+	70	noun	phrase	4	5	match	son	3	1	y	0.72576
678.2923000000001	0.2	son	70	noun	phrase	4	6	match	son	3	1	y	0.72576
678.4923	0.0	+	70	noun	phrase	4	7	match	son	3	1	y	0.72576
678.9085	0.2	boîtier	70	noun	phrase	4	8	match	son	3	1	y	0.72576
679.0916	0.0	+	70	noun	phrase	4	9	match	son	3	1	y	0.72576
679.4919	0.2	blanc	70	noun	phrase	4	10	match	son	3	1	y	0.72576
679.6911	0.0	+	70	noun	phrase	4	11	match	son	3	1	y	0.72576
680.0909	0.0	+	70	noun	phrase	4	12	match	son	3	1	y	0.72576
682.09	0.0	SON	70	noun	phrase	4	13	match	son	3	1	y	0.72576
682.873	0.0	+	70	noun	phrase	4	14	match	son	3	1	y	0.72576
682.8158000000001	0.0	[response]	70	noun	phrase	4	15	match	son	3	1	y	0.72576
684.489	0.0	+	71	verb	list	3	1	match	patiner	4	1	y	1.2629
685.0387000000001	0.2	tnkdg	71	verb	list	3	2	match	patiner	4	1	y	1.2629
685.2386	0.0	+	71	verb	list	3	3	match	patiner	4	1	y	1.2629
685.6385	0.2	nqwz	71	verb	list	3	4	match	patiner	4	1	y	1.2629
685.8384	0.0	+	71	verb	list	3	5	match	patiner	4	1	y	1.2629
686.2388000000001	0.2	son	71	verb	list	3	6	match	patiner	4	1	y	1.2629
686.4552	0.0	+	71	verb	list	3	7	match	patiner	4	1	y	1.2629
686.8380000000001	0.2	patiner	71	verb	list	3	8	match	patiner	4	1	y	1.2629
687.0385	0.0	+	71	verb	list	3	9	match	patiner	4	1	y	1.2629
687.4377000000001	0.2	bleu	71	verb	list	3	10	match	patiner	4	1	y	1.2629
687.6376	0.0	+	71	verb	list	3	11	match	patiner	4	1	y	1.2629
688.0374	0.0	+	71	verb	list	3	12	match	patiner	4	1	y	1.2629
690.0372	0.0	PATINER	71	verb	list	3	13	match	patiner	4	1	y	1.2629
691.3526	0.0	+	71	verb	list	3	14	match	patiner	4	1	y	1.2629
691.3001	0.0	[response]	71	verb	list	3	15	match	patiner	4	1	y	1.2629
692.4355	0.0	+	72	verb	phrase	4	1	nomatch	moins	-1	1	p	0.58912
692.9852000000001	0.2	tlbvk	72	verb	phrase	4	2	nomatch	moins	-1	1	p	0.58912
693.1851	0.0	+	72	verb	phrase	4	3	nomatch	moins	-1	1	p	0.58912
693.5849000000001	0.2	luc	72	verb	phrase	4	4	nomatch	moins	-1	1	p	0.58912
693.7854	0.0	+	72	verb	phrase	4	5	nomatch	moins	-1	1	p	0.58912
694.1852	0.2	peut	72	verb	phrase	4	6	nomatch	moins	-1	1	p	0.58912
694.3847000000001	0.0	+	72	verb	phrase	4	7	nomatch	moins	-1	1	p	0.58912
694.7844	0.2	plus	72	verb	phrase	4	8	nomatch	moins	-1	1	p	0.58912
694.9843000000001	0.0	+	72	verb	phrase	4	9	nomatch	moins	-1	1	p	0.58912
695.3841	0.2	rouler	72	verb	phrase	4	10	nomatch	moins	-1	1	p	0.58912
695.5840000000001	0.0	+	72	verb	phrase	4	11	nomatch	moins	-1	1	p	0.58912
695.9839000000001	0.0	+	72	verb	phrase	4	12	nomatch	moins	-1	1	p	0.58912
697.9997000000001	0.0	MOINS	72	verb	phrase	4	13	nomatch	moins	-1	1	p	0.58912
698.6494	0.0	+	72	verb	phrase	4	14	nomatch	moins	-1	1	p	0.58912
698.5888	0.0	[response]	72	verb	phrase	4	15	nomatch	moins	-1	1	p	0.58912
700.3986	0.0	+	73	verb	phrase	4	1	nomatch	sablier	-1	1	p	0.82026
700.9484	0.2	nmqsh	73	verb	phrase	4	2	nomatch	sablier	-1	1	p	0.82026
701.1483000000001	0.0	+	73	verb	phrase	4	3	nomatch	sablier	-1	1	p	0.82026
701.5481	0.2	luc	73	verb	phrase	4	4	nomatch	sablier	-1	1	p	0.82026
701.748	0.0	+	73	verb	phrase	4	5	nomatch	sablier	-1	1	p	0.82026
702.1649	0.2	doit	73	verb	phrase	4	6	nomatch	sablier	-1	1	p	0.82026
702.3483	0.0	+	73	verb	phrase	4	7	nomatch	sablier	-1	1	p	0.82026
702.7649	0.2	nager	73	verb	phrase	4	8	nomatch	sablier	-1	1	p	0.82026
702.9475	0.0	+	73	verb	phrase	4	9	nomatch	sablier	-1	1	p	0.82026
703.3645	0.2	loin	73	verb	phrase	4	10	nomatch	sablier	-1	1	p	0.82026
703.5472	0.0	+	73	verb	phrase	4	11	nomatch	sablier	-1	1	p	0.82026
703.947	0.0	+	73	verb	phrase	4	12	nomatch	sablier	-1	1	p	0.82026
705.9461	0.0	SABLIER	73	verb	phrase	4	13	nomatch	sablier	-1	1	p	0.82026
706.8291	0.0	+	73	verb	phrase	4	14	nomatch	sablier	-1	1	p	0.82026
706.7664	0.0	[response]	73	verb	phrase	4	15	nomatch	sablier	-1	1	p	0.82026
708.3451	0.0	+	74	verb	list	1	1	match	danser	5	1	y	0.43432
708.8948	0.2	vhkg	74	verb	list	1	2	match	danser	5	1	y	0.43432
709.0947	0.0	+	74	verb	list	1	3	match	danser	5	1	y	0.43432
709.495	0.2	xwtz	74	verb	list	1	4	match	danser	5	1	y	0.43432
709.6945000000001	0.0	+	74	verb	list	1	5	match	danser	5	1	y	0.43432
710.0947	0.2	xl	74	verb	list	1	6	match	danser	5	1	y	0.43432
710.2944	0.0	+	74	verb	list	1	7	match	danser	5	1	y	0.43432
710.6940000000001	0.2	pxsvhwg	74	verb	list	1	8	match	danser	5	1	y	0.43432
710.8939	0.0	+	74	verb	list	1	9	match	danser	5	1	y	0.43432
711.2938	0.2	danser	74	verb	list	1	10	match	danser	5	1	y	0.43432
711.4937	0.0	+	74	verb	list	1	11	match	danser	5	1	y	0.43432
711.8935	0.0	+	74	verb	list	1	12	match	danser	5	1	y	0.43432
713.8926	0.0	DANSER	74	verb	list	1	13	match	danser	5	1	y	0.43432
714.4262	0.0	+	74	verb	list	1	14	match	danser	5	1	y	0.43432
714.3269	0.0	[response]	74	verb	list	1	15	match	danser	5	1	y	0.43432
716.2916	0.0	+	75	verb	phrase	3	1	nomatch	doit	-1	1	p	0.77847
716.8413	0.2	ghsqxr	75	verb	phrase	3	2	nomatch	doit	-1	1	p	0.77847
717.0413	0.0	+	75	verb	phrase	3	3	nomatch	doit	-1	1	p	0.77847
717.4418000000001	0.2	xgsj	75	verb	phrase	3	4	nomatch	doit	-1	1	p	0.77847
717.658	0.0	+	75	verb	phrase	3	5	nomatch	doit	-1	1	p	0.77847
718.0408	0.2	va	75	verb	phrase	3	6	nomatch	doit	-1	1	p	0.77847
718.2413	0.0	+	75	verb	phrase	3	7	nomatch	doit	-1	1	p	0.77847
718.6405	0.2	rouler	75	verb	phrase	3	8	nomatch	doit	-1	1	p	0.77847
718.8404	0.0	+	75	verb	phrase	3	9	nomatch	doit	-1	1	p	0.77847
719.2403	0.2	tard	75	verb	phrase	3	10	nomatch	doit	-1	1	p	0.77847
719.4402	0.0	+	75	verb	phrase	3	11	nomatch	doit	-1	1	p	0.77847
719.84	0.0	+	75	verb	phrase	3	12	nomatch	doit	-1	1	p	0.77847
721.8395	0.0	DOIT	75	verb	phrase	3	13	nomatch	doit	-1	1	p	0.77847
722.6721	0.0	+	75	verb	phrase	3	14	nomatch	doit	-1	1	p	0.77847
722.6179000000001	0.0	[response]	75	verb	phrase	3	15	nomatch	doit	-1	1	p	0.77847
724.238	0.0	+	76	verb	list	2	1	match	patiner	4	1	y	0.49167000000000005
724.7878000000001	0.2	wdmr	76	verb	list	2	2	match	patiner	4	1	y	0.49167000000000005
724.9877	0.0	+	76	verb	list	2	3	match	patiner	4	1	y	0.49167000000000005
725.3875	0.2	fnth	76	verb	list	2	4	match	patiner	4	1	y	0.49167000000000005
725.5874	0.0	+	76	verb	list	2	5	match	patiner	4	1	y	0.49167000000000005
725.9873	0.2	fpzv	76	verb	list	2	6	match	patiner	4	1	y	0.49167000000000005
726.1872000000001	0.0	+	76	verb	list	2	7	match	patiner	4	1	y	0.49167000000000005
726.5871000000001	0.2	patiner	76	verb	list	2	8	match	patiner	4	1	y	0.49167000000000005
726.787	0.0	+	76	verb	list	2	9	match	patiner	4	1	y	0.49167000000000005
727.187	0.2	blanc	76	verb	list	2	10	match	patiner	4	1	y	0.49167000000000005
727.3869000000001	0.0	+	76	verb	list	2	11	match	patiner	4	1	y	0.49167000000000005
727.7865	0.0	+	76	verb	list	2	12	match	patiner	4	1	y	0.49167000000000005
729.8028	0.0	PATINER	76	verb	list	2	13	match	patiner	4	1	y	0.49167000000000005
730.352	0.0	+	76	verb	list	2	14	match	patiner	4	1	y	0.49167000000000005
730.2945000000001	0.0	[response]	76	verb	list	2	15	match	patiner	4	1	y	0.49167000000000005
732.1845000000001	0.0	+	77	verb	list	1	1	match	blanc	5	1	y	0.44644
732.7346	0.2	jwt	77	verb	list	1	2	match	blanc	5	1	y	0.44644
732.9344	0.0	+	77	verb	list	1	3	match	blanc	5	1	y	0.44644
733.3343	0.2	fnth	77	verb	list	1	4	match	blanc	5	1	y	0.44644
733.5344	0.0	+	77	verb	list	1	5	match	blanc	5	1	y	0.44644
733.9337	0.2	bxp	77	verb	list	1	6	match	blanc	5	1	y	0.44644
734.1337	0.0	+	77	verb	list	1	7	match	blanc	5	1	y	0.44644
734.5501	0.2	vjrmh	77	verb	list	1	8	match	blanc	5	1	y	0.44644
734.75	0.0	+	77	verb	list	1	9	match	blanc	5	1	y	0.44644
735.1499	0.2	blanc	77	verb	list	1	10	match	blanc	5	1	y	0.44644
735.3498000000001	0.0	+	77	verb	list	1	11	match	blanc	5	1	y	0.44644
735.7496	0.0	+	77	verb	list	1	12	match	blanc	5	1	y	0.44644
737.7487	0.0	BLANC	77	verb	list	1	13	match	blanc	5	1	y	0.44644
738.2485	0.0	+	77	verb	list	1	14	match	blanc	5	1	y	0.44644
738.1952	0.0	[response]	77	verb	list	1	15	match	blanc	5	1	y	0.44644
740.1477	0.0	+	78	verb	phrase	4	1	match	voyager	5	1	y	0.64979
740.6974	0.2	zcthnkg	78	verb	phrase	4	2	match	voyager	5	1	y	0.64979
740.898	0.0	+	78	verb	phrase	4	3	match	voyager	5	1	y	0.64979
741.2975	0.2	marc	78	verb	phrase	4	4	match	voyager	5	1	y	0.64979
741.4974	0.0	+	78	verb	phrase	4	5	match	voyager	5	1	y	0.64979
741.8969000000001	0.2	va	78	verb	phrase	4	6	match	voyager	5	1	y	0.64979
742.0968	0.0	+	78	verb	phrase	4	7	match	voyager	5	1	y	0.64979
742.4966000000001	0.2	beaucoup	78	verb	phrase	4	8	match	voyager	5	1	y	0.64979
742.6965	0.0	+	78	verb	phrase	4	9	match	voyager	5	1	y	0.64979
743.0963	0.2	voyager	78	verb	phrase	4	10	match	voyager	5	1	y	0.64979
743.2963	0.0	+	78	verb	phrase	4	11	match	voyager	5	1	y	0.64979
743.6961	0.0	+	78	verb	phrase	4	12	match	voyager	5	1	y	0.64979
745.6956	0.0	VOYAGER	78	verb	phrase	4	13	match	voyager	5	1	y	0.64979
746.4782	0.0	+	78	verb	phrase	4	14	match	voyager	5	1	y	0.64979
746.3454	0.0	[response]	78	verb	phrase	4	15	match	voyager	5	1	y	0.64979
748.0941	0.0	+	79	verb	phrase	3	1	match	voyager	5	1	y	0.42063
748.6439	0.2	fwngr	79	verb	phrase	3	2	match	voyager	5	1	y	0.42063
748.8438	0.0	+	79	verb	phrase	3	3	match	voyager	5	1	y	0.42063
749.2437	0.2	xgsj	79	verb	phrase	3	4	match	voyager	5	1	y	0.42063
749.4435	0.0	+	79	verb	phrase	3	5	match	voyager	5	1	y	0.42063
749.8434	0.2	peut	79	verb	phrase	3	6	match	voyager	5	1	y	0.42063
750.0434	0.0	+	79	verb	phrase	3	7	match	voyager	5	1	y	0.42063
750.4437	0.2	beaucoup	79	verb	phrase	3	8	match	voyager	5	1	y	0.42063
750.6431	0.0	+	79	verb	phrase	3	9	match	voyager	5	1	y	0.42063
751.0428	0.2	voyager	79	verb	phrase	3	10	match	voyager	5	1	y	0.42063
751.2427	0.0	+	79	verb	phrase	3	11	match	voyager	5	1	y	0.42063
751.6426	0.0	+	79	verb	phrase	3	12	match	voyager	5	1	y	0.42063
753.6417	0.0	VOYAGER	79	verb	phrase	3	13	match	voyager	5	1	y	0.42063
754.1248	0.0	+	79	verb	phrase	3	14	match	voyager	5	1	y	0.42063
754.0623	0.0	[response]	79	verb	phrase	3	15	match	voyager	5	1	y	0.42063
756.0412	0.0	+	80	verb	phrase	4	1	nomatch	luc	-1	1	p	0.62603
756.5904	0.2	qzdslt	80	verb	phrase	4	2	nomatch	luc	-1	1	p	0.62603
756.7903	0.0	+	80	verb	phrase	4	3	nomatch	luc	-1	1	p	0.62603
757.1907	0.2	marc	80	verb	phrase	4	4	nomatch	luc	-1	1	p	0.62603
757.3907	0.0	+	80	verb	phrase	4	5	nomatch	luc	-1	1	p	0.62603
757.7905000000001	0.2	doit	80	verb	phrase	4	6	nomatch	luc	-1	1	p	0.62603
757.9903	0.0	+	80	verb	phrase	4	7	nomatch	luc	-1	1	p	0.62603
758.3902	0.2	jongler	80	verb	phrase	4	8	nomatch	luc	-1	1	p	0.62603
758.5895	0.0	+	80	verb	phrase	4	9	nomatch	luc	-1	1	p	0.62603
758.9893000000001	0.2	tard	80	verb	phrase	4	10	nomatch	luc	-1	1	p	0.62603
759.1892	0.0	+	80	verb	phrase	4	11	nomatch	luc	-1	1	p	0.62603
759.589	0.0	+	80	verb	phrase	4	12	nomatch	luc	-1	1	p	0.62603
761.5882	0.0	LUC	80	verb	phrase	4	13	nomatch	luc	-1	1	p	0.62603
762.2712	0.0	+	80	verb	phrase	4	14	nomatch	luc	-1	1	p	0.62603
763.9871	0.0	+	80	verb	phrase	4	15	nomatch	luc	-1	1	p	0.62603
765.0372	0.0	+	80	verb	phrase	4	16	nomatch	luc	-1	1	p	0.62603
765.1372	0.0	+	80	verb	phrase	4	17	nomatch	luc	-1	1	p	0.62603
766.5193	0.0	+	80	verb	phrase	4	18	nomatch	luc	-1	1	p	0.62603
766.6193000000001	0.0	+	80	verb	phrase	4	19	nomatch	luc	-1	1	p	0.62603
768.0187000000001	0.0	+	80	verb	phrase	4	20	nomatch	luc	-1	1	p	0.62603
768.1186	0.0	+	80	verb	phrase	4	21	nomatch	luc	-1	1	p	0.62603
769.518	0.0	+	80	verb	phrase	4	22	nomatch	luc	-1	1	p	0.62603
769.618	0.0	+	80	verb	phrase	4	23	nomatch	luc	-1	1	p	0.62603
771.0173	0.0	+	80	verb	phrase	4	24	nomatch	luc	-1	1	p	0.62603
771.1173	0.0	+	80	verb	phrase	4	25	nomatch	luc	-1	1	p	0.62603
772.5167	0.0	+	80	verb	phrase	4	26	nomatch	luc	-1	1	p	0.62603
772.6166000000001	0.0	+	80	verb	phrase	4	27	nomatch	luc	-1	1	p	0.62603
774.0160000000001	0.0	+	80	verb	phrase	4	28	nomatch	luc	-1	1	p	0.62603
774.1159	0.0	+	80	verb	phrase	4	29	nomatch	luc	-1	1	p	0.62603
775.5153	0.0	+	80	verb	phrase	4	30	nomatch	luc	-1	1	p	0.62603
775.6153	0.0	+	80	verb	phrase	4	31	nomatch	luc	-1	1	p	0.62603
776.998	0.0	+	80	verb	phrase	4	32	nomatch	luc	-1	1	p	0.62603
777.0980000000001	0.0	+	80	verb	phrase	4	33	nomatch	luc	-1	1	p	0.62603
778.514	0.0	+	80	verb	phrase	4	34	nomatch	luc	-1	1	p	0.62603
778.614	0.0	+	80	verb	phrase	4	35	nomatch	luc	-1	1	p	0.62603
788.2764000000001	0.0	+	80	verb	phrase	4	36	nomatch	luc	-1	1	p	0.62603
762.2142	0.0	[response]	80	verb	phrase	4	37	nomatch	luc	-1	1	p	0.62603
