onset	duration	stim	trial_number	trial_type	trial_structure	trial_length	sequential_position	probe_type	probe	probe_position	response_correct	response_key	response_time
0.06560000000000343	0.0	+	1	verb	phrase	1	1	nomatch	plonger	-1	1	p	0.61505
0.5489000000000033	0.2	cpzmxlf	1	verb	phrase	1	2	nomatch	plonger	-1	1	p	0.61505
0.7488000000000028	0.0	+	1	verb	phrase	1	3	nomatch	plonger	-1	1	p	0.61505
1.1488000000000014	0.2	rmkt	1	verb	phrase	1	4	nomatch	plonger	-1	1	p	0.61505
1.3487999999999971	0.0	+	1	verb	phrase	1	5	nomatch	plonger	-1	1	p	0.61505
1.7486999999999995	0.2	svhw	1	verb	phrase	1	6	nomatch	plonger	-1	1	p	0.61505
1.9487000000000023	0.0	+	1	verb	phrase	1	7	nomatch	plonger	-1	1	p	0.61505
2.348700000000001	0.2	lsgz	1	verb	phrase	1	8	nomatch	plonger	-1	1	p	0.61505
2.5486999999999966	0.0	+	1	verb	phrase	1	9	nomatch	plonger	-1	1	p	0.61505
2.948599999999999	0.2	parader	1	verb	phrase	1	10	nomatch	plonger	-1	1	p	0.61505
3.148600000000002	0.0	+	1	verb	phrase	1	11	nomatch	plonger	-1	1	p	0.61505
3.5486000000000004	0.0	+	1	verb	phrase	1	12	nomatch	plonger	-1	1	p	0.61505
5.548400000000001	0.0	PLONGER	1	verb	phrase	1	13	nomatch	plonger	-1	1	p	0.61505
6.2316999999999965	0.0	+	1	verb	phrase	1	14	nomatch	plonger	-1	1	p	0.61505
6.163499999999999	0.0	[response]	1	verb	phrase	1	15	nomatch	plonger	-1	1	p	0.61505
7.9482	0.0	+	2	noun	phrase	4	1	nomatch	tôt	-1	1	p	0.8798600000000001
8.4981	0.2	hlskwz	2	noun	phrase	4	2	nomatch	tôt	-1	1	p	0.8798600000000001
8.698099999999997	0.0	+	2	noun	phrase	4	3	nomatch	tôt	-1	1	p	0.8798600000000001
9.098100000000002	0.2	dans	2	noun	phrase	4	4	nomatch	tôt	-1	1	p	0.8798600000000001
9.298100000000005	0.0	+	2	noun	phrase	4	5	nomatch	tôt	-1	1	p	0.8798600000000001
9.697999999999993	0.2	son	2	noun	phrase	4	6	nomatch	tôt	-1	1	p	0.8798600000000001
9.897999999999996	0.0	+	2	noun	phrase	4	7	nomatch	tôt	-1	1	p	0.8798600000000001
10.298000000000002	0.2	grand	2	noun	phrase	4	8	nomatch	tôt	-1	1	p	0.8798600000000001
10.498000000000005	0.0	+	2	noun	phrase	4	9	nomatch	tôt	-1	1	p	0.8798600000000001
10.897899999999993	0.2	casier	2	noun	phrase	4	10	nomatch	tôt	-1	1	p	0.8798600000000001
11.097899999999996	0.0	+	2	noun	phrase	4	11	nomatch	tôt	-1	1	p	0.8798600000000001
11.497900000000001	0.0	+	2	noun	phrase	4	12	nomatch	tôt	-1	1	p	0.8798600000000001
13.497699999999995	0.0	TÔT	2	noun	phrase	4	13	nomatch	tôt	-1	1	p	0.8798600000000001
14.447599999999994	0.0	+	2	noun	phrase	4	14	nomatch	tôt	-1	1	p	0.8798600000000001
14.377499999999998	0.0	[response]	2	noun	phrase	4	15	nomatch	tôt	-1	1	p	0.8798600000000001
23.896699999999996	0.0	+	3	noun	list	2	1	nomatch	trop	-1	0	y	0.96047
24.446700000000007	0.2	lbkm	3	noun	list	2	2	nomatch	trop	-1	0	y	0.96047
24.646699999999996	0.0	+	3	noun	list	2	3	nomatch	trop	-1	0	y	0.96047
25.046599999999998	0.2	rmkt	3	noun	list	2	4	nomatch	trop	-1	0	y	0.96047
25.2466	0.0	+	3	noun	list	2	5	nomatch	trop	-1	0	y	0.96047
25.646600000000007	0.2	rbh	3	noun	list	2	6	nomatch	trop	-1	0	y	0.96047
25.846599999999995	0.0	+	3	noun	list	2	7	nomatch	trop	-1	0	y	0.96047
26.246499999999997	0.2	moins	3	noun	list	2	8	nomatch	trop	-1	0	y	0.96047
26.4465	0.0	+	3	noun	list	2	9	nomatch	trop	-1	0	y	0.96047
26.846500000000006	0.2	rocher	3	noun	list	2	10	nomatch	trop	-1	0	y	0.96047
27.046499999999995	0.0	+	3	noun	list	2	11	nomatch	trop	-1	0	y	0.96047
27.446399999999997	0.0	+	3	noun	list	2	12	nomatch	trop	-1	0	y	0.96047
29.446299999999994	0.0	TROP	3	noun	list	2	13	nomatch	trop	-1	0	y	0.96047
30.4628	0.0	+	3	noun	list	2	14	nomatch	trop	-1	0	y	0.96047
30.4067	0.0	[response]	3	noun	list	2	15	nomatch	trop	-1	0	y	0.96047
31.846000000000004	0.0	+	4	noun	list	1	1	nomatch	nager	-1	1	p	1.4239
32.396	0.2	ckwslrz	4	noun	list	1	2	nomatch	nager	-1	1	p	1.4239
32.596000000000004	0.0	+	4	noun	list	1	3	nomatch	nager	-1	1	p	1.4239
32.995900000000006	0.2	cvq	4	noun	list	1	4	nomatch	nager	-1	1	p	1.4239
33.195899999999995	0.0	+	4	noun	list	1	5	nomatch	nager	-1	1	p	1.4239
33.5959	0.2	lgcv	4	noun	list	1	6	nomatch	nager	-1	1	p	1.4239
33.7959	0.0	+	4	noun	list	1	7	nomatch	nager	-1	1	p	1.4239
34.195800000000006	0.2	vwcgz	4	noun	list	1	8	nomatch	nager	-1	1	p	1.4239
34.395799999999994	0.0	+	4	noun	list	1	9	nomatch	nager	-1	1	p	1.4239
34.7958	0.2	cendrier	4	noun	list	1	10	nomatch	nager	-1	1	p	1.4239
34.9957	0.0	+	4	noun	list	1	11	nomatch	nager	-1	1	p	1.4239
35.395700000000005	0.0	+	4	noun	list	1	12	nomatch	nager	-1	1	p	1.4239
37.3955	0.0	NAGER	4	noun	list	1	13	nomatch	nager	-1	1	p	1.4239
38.878699999999995	0.0	+	4	noun	list	1	14	nomatch	nager	-1	1	p	1.4239
38.819500000000005	0.0	[response]	4	noun	list	1	15	nomatch	nager	-1	1	p	1.4239
47.7946	0.0	+	5	noun	list	1	1	nomatch	moins	-1	1	p	0.6046
48.3445	0.2	srh	5	noun	list	1	2	nomatch	moins	-1	1	p	0.6046
48.5445	0.0	+	5	noun	list	1	3	nomatch	moins	-1	1	p	0.6046
48.944500000000005	0.2	vtwj	5	noun	list	1	4	nomatch	moins	-1	1	p	0.6046
49.144499999999994	0.0	+	5	noun	list	1	5	nomatch	moins	-1	1	p	0.6046
49.544399999999996	0.2	rbh	5	noun	list	1	6	nomatch	moins	-1	1	p	0.6046
49.7444	0.0	+	5	noun	list	1	7	nomatch	moins	-1	1	p	0.6046
50.144400000000005	0.2	kpjtcgm	5	noun	list	1	8	nomatch	moins	-1	1	p	0.6046
50.34439999999999	0.0	+	5	noun	list	1	9	nomatch	moins	-1	1	p	0.6046
50.744299999999996	0.2	beaucoup	5	noun	list	1	10	nomatch	moins	-1	1	p	0.6046
50.9443	0.0	+	5	noun	list	1	11	nomatch	moins	-1	1	p	0.6046
51.344300000000004	0.0	+	5	noun	list	1	12	nomatch	moins	-1	1	p	0.6046
53.3441	0.0	MOINS	5	noun	list	1	13	nomatch	moins	-1	1	p	0.6046
54.0107	0.0	+	5	noun	list	1	14	nomatch	moins	-1	1	p	0.6046
53.9487	0.0	[response]	5	noun	list	1	15	nomatch	moins	-1	1	p	0.6046
55.7439	0.0	+	6	noun	list	1	1	match	tard	5	1	y	1.349
56.293800000000005	0.2	qlb	6	noun	list	1	2	match	tard	5	1	y	1.349
56.49379999999999	0.0	+	6	noun	list	1	3	match	tard	5	1	y	1.349
56.8938	0.2	xrfg	6	noun	list	1	4	match	tard	5	1	y	1.349
57.0938	0.0	+	6	noun	list	1	5	match	tard	5	1	y	1.349
57.493700000000004	0.2	tpgs	6	noun	list	1	6	match	tard	5	1	y	1.349
57.69370000000001	0.0	+	6	noun	list	1	7	match	tard	5	1	y	1.349
58.0937	0.2	kbwfhpvq	6	noun	list	1	8	match	tard	5	1	y	1.349
58.29430000000001	0.0	+	6	noun	list	1	9	match	tard	5	1	y	1.349
58.6936	0.2	tard	6	noun	list	1	10	match	tard	5	1	y	1.349
58.893600000000006	0.0	+	6	noun	list	1	11	match	tard	5	1	y	1.349
59.2936	0.0	+	6	noun	list	1	12	match	tard	5	1	y	1.349
61.293400000000005	0.0	TARD	6	noun	list	1	13	match	tard	5	1	y	1.349
62.709900000000005	0.0	+	6	noun	list	1	14	match	tard	5	1	y	1.349
62.642399999999995	0.0	[response]	6	noun	list	1	15	match	tard	5	1	y	1.349
63.693200000000004	0.0	+	7	noun	list	2	1	nomatch	mieux	-1	1	p	1.2994
64.2431	0.2	mnbz	7	noun	list	2	2	nomatch	mieux	-1	1	p	1.2994
64.4431	0.0	+	7	noun	list	2	3	nomatch	mieux	-1	1	p	1.2994
64.8431	0.2	cvq	7	noun	list	2	4	nomatch	mieux	-1	1	p	1.2994
65.043	0.0	+	7	noun	list	2	5	nomatch	mieux	-1	1	p	1.2994
65.443	0.2	lgcv	7	noun	list	2	6	nomatch	mieux	-1	1	p	1.2994
65.643	0.0	+	7	noun	list	2	7	nomatch	mieux	-1	1	p	1.2994
66.0429	0.2	plus	7	noun	list	2	8	nomatch	mieux	-1	1	p	1.2994
66.2429	0.0	+	7	noun	list	2	9	nomatch	mieux	-1	1	p	1.2994
66.6429	0.2	grenier	7	noun	list	2	10	nomatch	mieux	-1	1	p	1.2994
66.8429	0.0	+	7	noun	list	2	11	nomatch	mieux	-1	1	p	1.2994
67.2428	0.0	+	7	noun	list	2	12	nomatch	mieux	-1	1	p	1.2994
69.2427	0.0	MIEUX	7	noun	list	2	13	nomatch	mieux	-1	1	p	1.2994
70.6092	0.0	+	7	noun	list	2	14	nomatch	mieux	-1	1	p	1.2994
70.54200000000002	0.0	[response]	7	noun	list	2	15	nomatch	mieux	-1	1	p	1.2994
71.6424	0.0	+	8	verb	phrase	1	1	match	plonger	5	1	y	0.5640300000000001
72.1924	0.2	btv	8	verb	phrase	1	2	match	plonger	5	1	y	0.5640300000000001
72.3924	0.0	+	8	verb	phrase	1	3	match	plonger	5	1	y	0.5640300000000001
72.7923	0.2	pxbj	8	verb	phrase	1	4	match	plonger	5	1	y	0.5640300000000001
72.9923	0.0	+	8	verb	phrase	1	5	match	plonger	5	1	y	0.5640300000000001
73.3923	0.2	tpgs	8	verb	phrase	1	6	match	plonger	5	1	y	0.5640300000000001
73.5923	0.0	+	8	verb	phrase	1	7	match	plonger	5	1	y	0.5640300000000001
73.9922	0.2	mgqrh	8	verb	phrase	1	8	match	plonger	5	1	y	0.5640300000000001
74.19220000000001	0.0	+	8	verb	phrase	1	9	match	plonger	5	1	y	0.5640300000000001
74.59219999999999	0.2	plonger	8	verb	phrase	1	10	match	plonger	5	1	y	0.5640300000000001
74.79220000000001	0.0	+	8	verb	phrase	1	11	match	plonger	5	1	y	0.5640300000000001
75.19210000000001	0.0	+	8	verb	phrase	1	12	match	plonger	5	1	y	0.5640300000000001
77.1919	0.0	PLONGER	8	verb	phrase	1	13	match	plonger	5	1	y	0.5640300000000001
77.8252	0.0	+	8	verb	phrase	1	14	match	plonger	5	1	y	0.5640300000000001
77.756	0.0	[response]	8	verb	phrase	1	15	match	plonger	5	1	y	0.5640300000000001
79.5917	0.0	+	9	noun	phrase	1	1	match	panier	5	1	y	0.7144600000000001
80.14169999999999	0.2	wlsh	9	noun	phrase	1	2	match	panier	5	1	y	0.7144600000000001
80.3417	0.0	+	9	noun	phrase	1	3	match	panier	5	1	y	0.7144600000000001
80.7416	0.2	jkhs	9	noun	phrase	1	4	match	panier	5	1	y	0.7144600000000001
80.9416	0.0	+	9	noun	phrase	1	5	match	panier	5	1	y	0.7144600000000001
81.3416	0.2	rbh	9	noun	phrase	1	6	match	panier	5	1	y	0.7144600000000001
81.54159999999999	0.0	+	9	noun	phrase	1	7	match	panier	5	1	y	0.7144600000000001
81.94149999999999	0.2	wxnmf	9	noun	phrase	1	8	match	panier	5	1	y	0.7144600000000001
82.14150000000001	0.0	+	9	noun	phrase	1	9	match	panier	5	1	y	0.7144600000000001
82.54150000000001	0.2	panier	9	noun	phrase	1	10	match	panier	5	1	y	0.7144600000000001
82.7414	0.0	+	9	noun	phrase	1	11	match	panier	5	1	y	0.7144600000000001
83.1414	0.0	+	9	noun	phrase	1	12	match	panier	5	1	y	0.7144600000000001
85.1412	0.0	PANIER	9	noun	phrase	1	13	match	panier	5	1	y	0.7144600000000001
85.9245	0.0	+	9	noun	phrase	1	14	match	panier	5	1	y	0.7144600000000001
85.85570000000001	0.0	[response]	9	noun	phrase	1	15	match	panier	5	1	y	0.7144600000000001
87.541	0.0	+	10	noun	phrase	2	1	match	blanc	5	1	y	1.3733
88.09100000000001	0.2	dbxzqpk	10	noun	phrase	2	2	match	blanc	5	1	y	1.3733
88.2909	0.0	+	10	noun	phrase	2	3	match	blanc	5	1	y	1.3733
88.6909	0.2	xmv	10	noun	phrase	2	4	match	blanc	5	1	y	1.3733
88.89089999999999	0.0	+	10	noun	phrase	2	5	match	blanc	5	1	y	1.3733
89.2909	0.2	vft	10	noun	phrase	2	6	match	blanc	5	1	y	1.3733
89.49080000000001	0.0	+	10	noun	phrase	2	7	match	blanc	5	1	y	1.3733
89.89080000000001	0.2	tablier	10	noun	phrase	2	8	match	blanc	5	1	y	1.3733
90.0908	0.0	+	10	noun	phrase	2	9	match	blanc	5	1	y	1.3733
90.4907	0.2	blanc	10	noun	phrase	2	10	match	blanc	5	1	y	1.3733
90.69069999999999	0.0	+	10	noun	phrase	2	11	match	blanc	5	1	y	1.3733
91.0907	0.0	+	10	noun	phrase	2	12	match	blanc	5	1	y	1.3733
93.09049999999999	0.0	BLANC	10	noun	phrase	2	13	match	blanc	5	1	y	1.3733
94.52369999999999	0.0	+	10	noun	phrase	2	14	match	blanc	5	1	y	1.3733
94.46379999999999	0.0	[response]	10	noun	phrase	2	15	match	blanc	5	1	y	1.3733
95.49029999999999	0.0	+	11	verb	list	2	1	nomatch	vert	-1	1	p	1.0896
96.0402	0.2	clpkgdq	11	verb	list	2	2	nomatch	vert	-1	1	p	1.0896
96.24019999999999	0.0	+	11	verb	list	2	3	nomatch	vert	-1	1	p	1.0896
96.6402	0.2	wcbs	11	verb	list	2	4	nomatch	vert	-1	1	p	1.0896
96.84020000000001	0.0	+	11	verb	list	2	5	nomatch	vert	-1	1	p	1.0896
97.24010000000001	0.2	svhw	11	verb	list	2	6	nomatch	vert	-1	1	p	1.0896
97.4401	0.0	+	11	verb	list	2	7	nomatch	vert	-1	1	p	1.0896
97.8401	0.2	beau	11	verb	list	2	8	nomatch	vert	-1	1	p	1.0896
98.0401	0.0	+	11	verb	list	2	9	nomatch	vert	-1	1	p	1.0896
98.44	0.2	chasser	11	verb	list	2	10	nomatch	vert	-1	1	p	1.0896
98.63999999999999	0.0	+	11	verb	list	2	11	nomatch	vert	-1	1	p	1.0896
99.03999999999999	0.0	+	11	verb	list	2	12	nomatch	vert	-1	1	p	1.0896
101.03980000000001	0.0	VERT	11	verb	list	2	13	nomatch	vert	-1	1	p	1.0896
102.18969999999999	0.0	+	11	verb	list	2	14	nomatch	vert	-1	1	p	1.0896
102.12940000000003	0.0	[response]	11	verb	list	2	15	nomatch	vert	-1	1	p	1.0896
111.43879999999999	0.0	+	12	noun	phrase	1	1	nomatch	blanc	-1	1	p	1.4267
111.9888	0.2	njhlzxg	12	noun	phrase	1	2	nomatch	blanc	-1	1	p	1.4267
112.18879999999999	0.0	+	12	noun	phrase	1	3	nomatch	blanc	-1	1	p	1.4267
112.58879999999999	0.2	xmv	12	noun	phrase	1	4	nomatch	blanc	-1	1	p	1.4267
112.7887	0.0	+	12	noun	phrase	1	5	nomatch	blanc	-1	1	p	1.4267
113.18870000000001	0.2	vft	12	noun	phrase	1	6	nomatch	blanc	-1	1	p	1.4267
113.3887	0.0	+	12	noun	phrase	1	7	nomatch	blanc	-1	1	p	1.4267
113.7886	0.2	fdhrjzs	12	noun	phrase	1	8	nomatch	blanc	-1	1	p	1.4267
113.98859999999999	0.0	+	12	noun	phrase	1	9	nomatch	blanc	-1	1	p	1.4267
114.3886	0.2	noir	12	noun	phrase	1	10	nomatch	blanc	-1	1	p	1.4267
114.58860000000001	0.0	+	12	noun	phrase	1	11	nomatch	blanc	-1	1	p	1.4267
114.98849999999999	0.0	+	12	noun	phrase	1	12	nomatch	blanc	-1	1	p	1.4267
116.98840000000001	0.0	BLANC	12	noun	phrase	1	13	nomatch	blanc	-1	1	p	1.4267
118.47149999999999	0.0	+	12	noun	phrase	1	14	nomatch	blanc	-1	1	p	1.4267
118.41499999999999	0.0	[response]	12	noun	phrase	1	15	nomatch	blanc	-1	1	p	1.4267
119.38810000000001	0.0	+	13	noun	phrase	3	1	match	clavier	4	1	y	0.70741
119.93809999999999	0.2	bqdhnvx	13	noun	phrase	3	2	match	clavier	4	1	y	0.70741
120.13810000000001	0.0	+	13	noun	phrase	3	3	match	clavier	4	1	y	0.70741
120.53800000000001	0.2	kszh	13	noun	phrase	3	4	match	clavier	4	1	y	0.70741
120.738	0.0	+	13	noun	phrase	3	5	match	clavier	4	1	y	0.70741
121.138	0.2	son	13	noun	phrase	3	6	match	clavier	4	1	y	0.70741
121.338	0.0	+	13	noun	phrase	3	7	match	clavier	4	1	y	0.70741
121.7379	0.2	clavier	13	noun	phrase	3	8	match	clavier	4	1	y	0.70741
121.93790000000001	0.0	+	13	noun	phrase	3	9	match	clavier	4	1	y	0.70741
122.33789999999999	0.2	bleu	13	noun	phrase	3	10	match	clavier	4	1	y	0.70741
122.53790000000001	0.0	+	13	noun	phrase	3	11	match	clavier	4	1	y	0.70741
122.93780000000001	0.0	+	13	noun	phrase	3	12	match	clavier	4	1	y	0.70741
124.9376	0.0	CLAVIER	13	noun	phrase	3	13	match	clavier	4	1	y	0.70741
125.70419999999999	0.0	+	13	noun	phrase	3	14	match	clavier	4	1	y	0.70741
125.64510000000001	0.0	[response]	13	noun	phrase	3	15	match	clavier	4	1	y	0.70741
127.3374	0.0	+	14	noun	list	2	1	match	voilier	4	1	y	0.78149
127.88740000000001	0.2	kfsdw	14	noun	list	2	2	match	voilier	4	1	y	0.78149
128.0874	0.0	+	14	noun	list	2	3	match	voilier	4	1	y	0.78149
128.4873	0.2	scjw	14	noun	list	2	4	match	voilier	4	1	y	0.78149
128.6873	0.0	+	14	noun	list	2	5	match	voilier	4	1	y	0.78149
129.0873	0.2	cn	14	noun	list	2	6	match	voilier	4	1	y	0.78149
129.2872	0.0	+	14	noun	list	2	7	match	voilier	4	1	y	0.78149
129.6872	0.2	voilier	14	noun	list	2	8	match	voilier	4	1	y	0.78149
129.8872	0.0	+	14	noun	list	2	9	match	voilier	4	1	y	0.78149
130.2872	0.2	tard	14	noun	list	2	10	match	voilier	4	1	y	0.78149
130.4871	0.0	+	14	noun	list	2	11	match	voilier	4	1	y	0.78149
130.8871	0.0	+	14	noun	list	2	12	match	voilier	4	1	y	0.78149
132.8869	0.0	VOILIER	14	noun	list	2	13	match	voilier	4	1	y	0.78149
133.7368	0.0	+	14	noun	list	2	14	match	voilier	4	1	y	0.78149
133.6684	0.0	[response]	14	noun	list	2	15	match	voilier	4	1	y	0.78149
135.2867	0.0	+	15	verb	list	2	1	nomatch	rouge	-1	1	p	0.92264
135.8367	0.2	jxp	15	verb	list	2	2	nomatch	rouge	-1	1	p	0.92264
136.0366	0.0	+	15	verb	list	2	3	nomatch	rouge	-1	1	p	0.92264
136.4366	0.2	mpdb	15	verb	list	2	4	nomatch	rouge	-1	1	p	0.92264
136.6366	0.0	+	15	verb	list	2	5	nomatch	rouge	-1	1	p	0.92264
137.0365	0.2	lgcv	15	verb	list	2	6	nomatch	rouge	-1	1	p	0.92264
137.2365	0.0	+	15	verb	list	2	7	nomatch	rouge	-1	1	p	0.92264
137.6365	0.2	nager	15	verb	list	2	8	nomatch	rouge	-1	1	p	0.92264
137.8365	0.0	+	15	verb	list	2	9	nomatch	rouge	-1	1	p	0.92264
138.2364	0.2	blanc	15	verb	list	2	10	nomatch	rouge	-1	1	p	0.92264
138.4364	0.0	+	15	verb	list	2	11	nomatch	rouge	-1	1	p	0.92264
138.8364	0.0	+	15	verb	list	2	12	nomatch	rouge	-1	1	p	0.92264
140.8362	0.0	ROUGE	15	verb	list	2	13	nomatch	rouge	-1	1	p	0.92264
141.8194	0.0	+	15	verb	list	2	14	nomatch	rouge	-1	1	p	0.92264
141.7588	0.0	[response]	15	verb	list	2	15	nomatch	rouge	-1	1	p	0.92264
151.2353	0.0	+	16	verb	phrase	4	1	match	adam	2	0	TIMEOUT	-1.0
151.7852	0.2	hdkzw	16	verb	phrase	4	2	match	adam	2	0	TIMEOUT	-1.0
151.9852	0.0	+	16	verb	phrase	4	3	match	adam	2	0	TIMEOUT	-1.0
152.3852	0.2	adam	16	verb	phrase	4	4	match	adam	2	0	TIMEOUT	-1.0
152.5851	0.0	+	16	verb	phrase	4	5	match	adam	2	0	TIMEOUT	-1.0
152.9851	0.2	doit	16	verb	phrase	4	6	match	adam	2	0	TIMEOUT	-1.0
153.1851	0.0	+	16	verb	phrase	4	7	match	adam	2	0	TIMEOUT	-1.0
153.5851	0.2	trop	16	verb	phrase	4	8	match	adam	2	0	TIMEOUT	-1.0
153.785	0.0	+	16	verb	phrase	4	9	match	adam	2	0	TIMEOUT	-1.0
154.185	0.2	plonger	16	verb	phrase	4	10	match	adam	2	0	TIMEOUT	-1.0
154.385	0.0	+	16	verb	phrase	4	11	match	adam	2	0	TIMEOUT	-1.0
154.7849	0.0	+	16	verb	phrase	4	12	match	adam	2	0	TIMEOUT	-1.0
156.8014	0.0	ADAM	16	verb	phrase	4	13	match	adam	2	0	TIMEOUT	-1.0
159.2012	0.0	+	17	noun	phrase	1	1	nomatch	nouveau	-1	1	p	0.76127
159.8012	0.2	rbzs	17	noun	phrase	1	2	nomatch	nouveau	-1	1	p	0.76127
160.0011	0.0	+	17	noun	phrase	1	3	nomatch	nouveau	-1	1	p	0.76127
160.4011	0.2	scjw	17	noun	phrase	1	4	nomatch	nouveau	-1	1	p	0.76127
160.6011	0.0	+	17	noun	phrase	1	5	nomatch	nouveau	-1	1	p	0.76127
161.0011	0.2	vft	17	noun	phrase	1	6	nomatch	nouveau	-1	1	p	0.76127
161.201	0.0	+	17	noun	phrase	1	7	nomatch	nouveau	-1	1	p	0.76127
161.601	0.2	mzswnbq	17	noun	phrase	1	8	nomatch	nouveau	-1	1	p	0.76127
161.801	0.0	+	17	noun	phrase	1	9	nomatch	nouveau	-1	1	p	0.76127
162.2009	0.2	grand	17	noun	phrase	1	10	nomatch	nouveau	-1	1	p	0.76127
162.4009	0.0	+	17	noun	phrase	1	11	nomatch	nouveau	-1	1	p	0.76127
162.8009	0.0	+	17	noun	phrase	1	12	nomatch	nouveau	-1	1	p	0.76127
164.8007	0.0	NOUVEAU	17	noun	phrase	1	13	nomatch	nouveau	-1	1	p	0.76127
165.6173	0.0	+	17	noun	phrase	1	14	nomatch	nouveau	-1	1	p	0.76127
165.56200000000004	0.0	[response]	17	noun	phrase	1	15	nomatch	nouveau	-1	1	p	0.76127
167.2005	0.0	+	18	noun	list	1	1	match	panier	5	1	y	1.1959
167.7504	0.2	jtql	18	noun	list	1	2	match	panier	5	1	y	1.1959
167.9504	0.0	+	18	noun	list	1	3	match	panier	5	1	y	1.1959
168.3504	0.2	mpdb	18	noun	list	1	4	match	panier	5	1	y	1.1959
168.5504	0.0	+	18	noun	list	1	5	match	panier	5	1	y	1.1959
168.9503	0.2	lgcv	18	noun	list	1	6	match	panier	5	1	y	1.1959
169.1503	0.0	+	18	noun	list	1	7	match	panier	5	1	y	1.1959
169.5503	0.2	mgqrh	18	noun	list	1	8	match	panier	5	1	y	1.1959
169.7503	0.0	+	18	noun	list	1	9	match	panier	5	1	y	1.1959
170.1502	0.2	panier	18	noun	list	1	10	match	panier	5	1	y	1.1959
170.3502	0.0	+	18	noun	list	1	11	match	panier	5	1	y	1.1959
170.7502	0.0	+	18	noun	list	1	12	match	panier	5	1	y	1.1959
172.75	0.0	PANIER	18	noun	list	1	13	match	panier	5	1	y	1.1959
174.0165	0.0	+	18	noun	list	1	14	match	panier	5	1	y	1.1959
173.9459	0.0	[response]	18	noun	list	1	15	match	panier	5	1	y	1.1959
183.149	0.0	+	19	noun	list	1	1	nomatch	sur	-1	1	p	0.63317
183.699	0.2	lrm	19	noun	list	1	2	nomatch	sur	-1	1	p	0.63317
183.899	0.0	+	19	noun	list	1	3	nomatch	sur	-1	1	p	0.63317
184.299	0.2	xrfg	19	noun	list	1	4	nomatch	sur	-1	1	p	0.63317
184.4989	0.0	+	19	noun	list	1	5	nomatch	sur	-1	1	p	0.63317
184.8989	0.2	svhw	19	noun	list	1	6	nomatch	sur	-1	1	p	0.63317
185.0989	0.0	+	19	noun	list	1	7	nomatch	sur	-1	1	p	0.63317
185.4988	0.2	vgpdrm	19	noun	list	1	8	nomatch	sur	-1	1	p	0.63317
185.6988	0.0	+	19	noun	list	1	9	nomatch	sur	-1	1	p	0.63317
186.0988	0.2	tôt	19	noun	list	1	10	nomatch	sur	-1	1	p	0.63317
186.2988	0.0	+	19	noun	list	1	11	nomatch	sur	-1	1	p	0.63317
186.6987	0.0	+	19	noun	list	1	12	nomatch	sur	-1	1	p	0.63317
188.6985	0.0	SUR	19	noun	list	1	13	nomatch	sur	-1	1	p	0.63317
189.3985	0.0	+	19	noun	list	1	14	nomatch	sur	-1	1	p	0.63317
189.3317	0.0	[response]	19	noun	list	1	15	nomatch	sur	-1	1	p	0.63317
191.0983	0.0	+	20	verb	list	1	1	nomatch	beaucoup	-1	0	TIMEOUT	-1.0
191.6483	0.2	jrgbl	20	verb	list	1	2	nomatch	beaucoup	-1	0	TIMEOUT	-1.0
191.8483	0.0	+	20	verb	list	1	3	nomatch	beaucoup	-1	0	TIMEOUT	-1.0
192.2482	0.2	mpdb	20	verb	list	1	4	nomatch	beaucoup	-1	0	TIMEOUT	-1.0
192.44819999999999	0.0	+	20	verb	list	1	5	nomatch	beaucoup	-1	0	TIMEOUT	-1.0
192.8482	0.2	lgcv	20	verb	list	1	6	nomatch	beaucoup	-1	0	TIMEOUT	-1.0
193.0482	0.0	+	20	verb	list	1	7	nomatch	beaucoup	-1	0	TIMEOUT	-1.0
193.4481	0.2	jfqtwdc	20	verb	list	1	8	nomatch	beaucoup	-1	0	TIMEOUT	-1.0
193.6481	0.0	+	20	verb	list	1	9	nomatch	beaucoup	-1	0	TIMEOUT	-1.0
194.0481	0.2	rouge	20	verb	list	1	10	nomatch	beaucoup	-1	0	TIMEOUT	-1.0
194.248	0.0	+	20	verb	list	1	11	nomatch	beaucoup	-1	0	TIMEOUT	-1.0
194.648	0.0	+	20	verb	list	1	12	nomatch	beaucoup	-1	0	TIMEOUT	-1.0
196.6478	0.0	BEAUCOUP	20	verb	list	1	13	nomatch	beaucoup	-1	0	TIMEOUT	-1.0
199.0476	0.0	+	21	verb	phrase	2	1	match	trop	4	1	y	0.60571
199.6476	0.2	wqgrh	21	verb	phrase	2	2	match	trop	4	1	y	0.60571
199.8475	0.0	+	21	verb	phrase	2	3	match	trop	4	1	y	0.60571
200.2475	0.2	rmkt	21	verb	phrase	2	4	match	trop	4	1	y	0.60571
200.4475	0.0	+	21	verb	phrase	2	5	match	trop	4	1	y	0.60571
200.8475	0.2	tpgs	21	verb	phrase	2	6	match	trop	4	1	y	0.60571
201.04739999999998	0.0	+	21	verb	phrase	2	7	match	trop	4	1	y	0.60571
201.44740000000002	0.2	trop	21	verb	phrase	2	8	match	trop	4	1	y	0.60571
201.6474	0.0	+	21	verb	phrase	2	9	match	trop	4	1	y	0.60571
202.0473	0.2	nager	21	verb	phrase	2	10	match	trop	4	1	y	0.60571
202.2473	0.0	+	21	verb	phrase	2	11	match	trop	4	1	y	0.60571
202.64729999999997	0.0	+	21	verb	phrase	2	12	match	trop	4	1	y	0.60571
204.64710000000002	0.0	TROP	21	verb	phrase	2	13	match	trop	4	1	y	0.60571
205.31369999999998	0.0	+	21	verb	phrase	2	14	match	trop	4	1	y	0.60571
205.25279999999998	0.0	[response]	21	verb	phrase	2	15	match	trop	4	1	y	0.60571
207.0469	0.0	+	22	noun	phrase	4	1	nomatch	moins	-1	1	p	0.6726900000000001
207.59679999999997	0.2	ndzs	22	noun	phrase	4	2	nomatch	moins	-1	1	p	0.6726900000000001
207.79680000000002	0.0	+	22	noun	phrase	4	3	nomatch	moins	-1	1	p	0.6726900000000001
208.1968	0.2	sous	22	noun	phrase	4	4	nomatch	moins	-1	1	p	0.6726900000000001
208.39679999999998	0.0	+	22	noun	phrase	4	5	nomatch	moins	-1	1	p	0.6726900000000001
208.7967	0.2	son	22	noun	phrase	4	6	nomatch	moins	-1	1	p	0.6726900000000001
208.99669999999998	0.0	+	22	noun	phrase	4	7	nomatch	moins	-1	1	p	0.6726900000000001
209.3967	0.2	nouveau	22	noun	phrase	4	8	nomatch	moins	-1	1	p	0.6726900000000001
209.5967	0.0	+	22	noun	phrase	4	9	nomatch	moins	-1	1	p	0.6726900000000001
209.9966	0.2	cendrier	22	noun	phrase	4	10	nomatch	moins	-1	1	p	0.6726900000000001
210.1966	0.0	+	22	noun	phrase	4	11	nomatch	moins	-1	1	p	0.6726900000000001
210.59660000000002	0.0	+	22	noun	phrase	4	12	nomatch	moins	-1	1	p	0.6726900000000001
212.59640000000002	0.0	MOINS	22	noun	phrase	4	13	nomatch	moins	-1	1	p	0.6726900000000001
213.3297	0.0	+	22	noun	phrase	4	14	nomatch	moins	-1	1	p	0.6726900000000001
213.26909999999998	0.0	[response]	22	noun	phrase	4	15	nomatch	moins	-1	1	p	0.6726900000000001
230.99470000000002	0.0	+	23	verb	phrase	4	1	nomatch	peut	-1	1	p	0.88645
231.54469999999998	0.2	mnl	23	verb	phrase	4	2	nomatch	peut	-1	1	p	0.88645
231.74470000000002	0.0	+	23	verb	phrase	4	3	nomatch	peut	-1	1	p	0.88645
232.14460000000003	0.2	jean	23	verb	phrase	4	4	nomatch	peut	-1	1	p	0.88645
232.3446	0.0	+	23	verb	phrase	4	5	nomatch	peut	-1	1	p	0.88645
232.7446	0.2	va	23	verb	phrase	4	6	nomatch	peut	-1	1	p	0.88645
232.94459999999998	0.0	+	23	verb	phrase	4	7	nomatch	peut	-1	1	p	0.88645
233.34449999999998	0.2	mieux	23	verb	phrase	4	8	nomatch	peut	-1	1	p	0.88645
233.54450000000003	0.0	+	23	verb	phrase	4	9	nomatch	peut	-1	1	p	0.88645
233.9445	0.2	voyager	23	verb	phrase	4	10	nomatch	peut	-1	1	p	0.88645
234.1445	0.0	+	23	verb	phrase	4	11	nomatch	peut	-1	1	p	0.88645
234.5444	0.0	+	23	verb	phrase	4	12	nomatch	peut	-1	1	p	0.88645
236.5442	0.0	PEUT	23	verb	phrase	4	13	nomatch	peut	-1	1	p	0.88645
237.4941	0.0	+	23	verb	phrase	4	14	nomatch	peut	-1	1	p	0.88645
237.4307	0.0	[response]	23	verb	phrase	4	15	nomatch	peut	-1	1	p	0.88645
238.94400000000002	0.0	+	24	noun	list	3	1	match	leur	3	1	y	0.77649
239.49400000000003	0.2	qwrnh	24	noun	list	3	2	match	leur	3	1	y	0.77649
239.69389999999999	0.0	+	24	noun	list	3	3	match	leur	3	1	y	0.77649
240.09390000000002	0.2	cvq	24	noun	list	3	4	match	leur	3	1	y	0.77649
240.2939	0.0	+	24	noun	list	3	5	match	leur	3	1	y	0.77649
240.69389999999999	0.2	leur	24	noun	list	3	6	match	leur	3	1	y	0.77649
240.8938	0.0	+	24	noun	list	3	7	match	leur	3	1	y	0.77649
241.29379999999998	0.2	moins	24	noun	list	3	8	match	leur	3	1	y	0.77649
241.49380000000002	0.0	+	24	noun	list	3	9	match	leur	3	1	y	0.77649
241.89370000000002	0.2	panier	24	noun	list	3	10	match	leur	3	1	y	0.77649
242.0937	0.0	+	24	noun	list	3	11	match	leur	3	1	y	0.77649
242.4937	0.0	+	24	noun	list	3	12	match	leur	3	1	y	0.77649
244.49349999999998	0.0	LEUR	24	noun	list	3	13	match	leur	3	1	y	0.77649
245.3268	0.0	+	24	noun	list	3	14	match	leur	3	1	y	0.77649
245.26999999999998	0.0	[response]	24	noun	list	3	15	match	leur	3	1	y	0.77649
246.8933	0.0	+	25	noun	phrase	1	1	match	noir	5	1	y	0.58741
247.4432	0.2	mpxvh	25	noun	phrase	1	2	match	noir	5	1	y	0.58741
247.64319999999998	0.0	+	25	noun	phrase	1	3	match	noir	5	1	y	0.58741
248.0432	0.2	xmv	25	noun	phrase	1	4	match	noir	5	1	y	0.58741
248.2432	0.0	+	25	noun	phrase	1	5	match	noir	5	1	y	0.58741
248.6431	0.2	vft	25	noun	phrase	1	6	match	noir	5	1	y	0.58741
248.8431	0.0	+	25	noun	phrase	1	7	match	noir	5	1	y	0.58741
249.24310000000003	0.2	kpjtcgm	25	noun	phrase	1	8	match	noir	5	1	y	0.58741
249.44310000000002	0.0	+	25	noun	phrase	1	9	match	noir	5	1	y	0.58741
249.84300000000002	0.2	noir	25	noun	phrase	1	10	match	noir	5	1	y	0.58741
250.043	0.0	+	25	noun	phrase	1	11	match	noir	5	1	y	0.58741
250.44299999999998	0.0	+	25	noun	phrase	1	12	match	noir	5	1	y	0.58741
252.44279999999998	0.0	NOIR	25	noun	phrase	1	13	match	noir	5	1	y	0.58741
253.09269999999998	0.0	+	25	noun	phrase	1	14	match	noir	5	1	y	0.58741
253.03019999999998	0.0	[response]	25	noun	phrase	1	15	match	noir	5	1	y	0.58741
254.8426	0.0	+	26	noun	list	4	1	match	doit	3	1	y	0.63954
255.39249999999998	0.2	wdqbv	26	noun	list	4	2	match	doit	3	1	y	0.63954
255.59249999999997	0.0	+	26	noun	list	4	3	match	doit	3	1	y	0.63954
255.9925	0.2	sous	26	noun	list	4	4	match	doit	3	1	y	0.63954
256.1925	0.0	+	26	noun	list	4	5	match	doit	3	1	y	0.63954
256.5924	0.2	doit	26	noun	list	4	6	match	doit	3	1	y	0.63954
256.7924	0.0	+	26	noun	list	4	7	match	doit	3	1	y	0.63954
257.1924	0.2	voilier	26	noun	list	4	8	match	doit	3	1	y	0.63954
257.3924	0.0	+	26	noun	list	4	9	match	doit	3	1	y	0.63954
257.7923	0.2	tard	26	noun	list	4	10	match	doit	3	1	y	0.63954
257.9923	0.0	+	26	noun	list	4	11	match	doit	3	1	y	0.63954
258.3923	0.0	+	26	noun	list	4	12	match	doit	3	1	y	0.63954
260.3921	0.0	DOIT	26	noun	list	4	13	match	doit	3	1	y	0.63954
261.092	0.0	+	26	noun	list	4	14	match	doit	3	1	y	0.63954
261.0316	0.0	[response]	26	noun	list	4	15	match	doit	3	1	y	0.63954
262.7919	0.0	+	27	noun	phrase	1	1	match	rocher	5	0	p	0.98643
263.3418	0.2	chm	27	noun	phrase	1	2	match	rocher	5	0	p	0.98643
263.5418	0.0	+	27	noun	phrase	1	3	match	rocher	5	0	p	0.98643
263.9418	0.2	qpnm	27	noun	phrase	1	4	match	rocher	5	0	p	0.98643
264.1417	0.0	+	27	noun	phrase	1	5	match	rocher	5	0	p	0.98643
264.5417	0.2	lgcv	27	noun	phrase	1	6	match	rocher	5	0	p	0.98643
264.7417	0.0	+	27	noun	phrase	1	7	match	rocher	5	0	p	0.98643
265.1417	0.2	mpvhd	27	noun	phrase	1	8	match	rocher	5	0	p	0.98643
265.3416	0.0	+	27	noun	phrase	1	9	match	rocher	5	0	p	0.98643
265.7416	0.2	rocher	27	noun	phrase	1	10	match	rocher	5	0	p	0.98643
265.9416	0.0	+	27	noun	phrase	1	11	match	rocher	5	0	p	0.98643
266.3415	0.0	+	27	noun	phrase	1	12	match	rocher	5	0	p	0.98643
268.3414	0.0	ROCHER	27	noun	phrase	1	13	match	rocher	5	0	p	0.98643
269.3913	0.0	+	27	noun	phrase	1	14	match	rocher	5	0	p	0.98643
269.3278	0.0	[response]	27	noun	phrase	1	15	match	rocher	5	0	p	0.98643
270.7411	0.0	+	28	noun	list	1	1	nomatch	casier	-1	1	p	0.68913
271.2911	0.2	gmwv	28	noun	list	1	2	nomatch	casier	-1	1	p	0.68913
271.4911	0.0	+	28	noun	list	1	3	nomatch	casier	-1	1	p	0.68913
271.891	0.2	xrfg	28	noun	list	1	4	nomatch	casier	-1	1	p	0.68913
272.091	0.0	+	28	noun	list	1	5	nomatch	casier	-1	1	p	0.68913
272.491	0.2	cn	28	noun	list	1	6	nomatch	casier	-1	1	p	0.68913
272.691	0.0	+	28	noun	list	1	7	nomatch	casier	-1	1	p	0.68913
273.0909	0.2	kjtlc	28	noun	list	1	8	nomatch	casier	-1	1	p	0.68913
273.2909	0.0	+	28	noun	list	1	9	nomatch	casier	-1	1	p	0.68913
273.6909	0.2	clavier	28	noun	list	1	10	nomatch	casier	-1	1	p	0.68913
273.8909	0.0	+	28	noun	list	1	11	nomatch	casier	-1	1	p	0.68913
274.2908	0.0	+	28	noun	list	1	12	nomatch	casier	-1	1	p	0.68913
276.2906	0.0	CASIER	28	noun	list	1	13	nomatch	casier	-1	1	p	0.68913
277.0406	0.0	+	28	noun	list	1	14	nomatch	casier	-1	1	p	0.68913
276.9798	0.0	[response]	28	noun	list	1	15	nomatch	casier	-1	1	p	0.68913
286.6897	0.0	+	29	verb	list	2	1	match	bleu	5	1	y	1.1841
287.2397	0.2	drnhtp	29	verb	list	2	2	match	bleu	5	1	y	1.1841
287.4396	0.0	+	29	verb	list	2	3	match	bleu	5	1	y	1.1841
287.8396	0.2	rmkt	29	verb	list	2	4	match	bleu	5	1	y	1.1841
288.0396	0.0	+	29	verb	list	2	5	match	bleu	5	1	y	1.1841
288.4395	0.2	lgcv	29	verb	list	2	6	match	bleu	5	1	y	1.1841
288.6395	0.0	+	29	verb	list	2	7	match	bleu	5	1	y	1.1841
289.0395	0.2	chasser	29	verb	list	2	8	match	bleu	5	1	y	1.1841
289.2395	0.0	+	29	verb	list	2	9	match	bleu	5	1	y	1.1841
289.6394	0.2	bleu	29	verb	list	2	10	match	bleu	5	1	y	1.1841
289.8394	0.0	+	29	verb	list	2	11	match	bleu	5	1	y	1.1841
290.2394	0.0	+	29	verb	list	2	12	match	bleu	5	1	y	1.1841
292.2392	0.0	BLEU	29	verb	list	2	13	match	bleu	5	1	y	1.1841
293.4891	0.0	+	29	verb	list	2	14	match	bleu	5	1	y	1.1841
293.42330000000004	0.0	[response]	29	verb	list	2	15	match	bleu	5	1	y	1.1841
294.639	0.0	+	30	noun	list	3	1	match	tard	5	1	y	0.6704500000000001
295.1889	0.2	zcvgjh	30	noun	list	3	2	match	tard	5	1	y	0.6704500000000001
295.3889	0.0	+	30	noun	list	3	3	match	tard	5	1	y	0.6704500000000001
295.7889	0.2	scjw	30	noun	list	3	4	match	tard	5	1	y	0.6704500000000001
295.9889	0.0	+	30	noun	list	3	5	match	tard	5	1	y	0.6704500000000001
296.3888	0.2	va	30	noun	list	3	6	match	tard	5	1	y	0.6704500000000001
296.5888	0.0	+	30	noun	list	3	7	match	tard	5	1	y	0.6704500000000001
296.9888	0.2	voilier	30	noun	list	3	8	match	tard	5	1	y	0.6704500000000001
297.1888	0.0	+	30	noun	list	3	9	match	tard	5	1	y	0.6704500000000001
297.5887	0.2	tard	30	noun	list	3	10	match	tard	5	1	y	0.6704500000000001
297.7887	0.0	+	30	noun	list	3	11	match	tard	5	1	y	0.6704500000000001
298.1887	0.0	+	30	noun	list	3	12	match	tard	5	1	y	0.6704500000000001
300.1885	0.0	TARD	30	noun	list	3	13	match	tard	5	1	y	0.6704500000000001
300.9217	0.0	+	30	noun	list	3	14	match	tard	5	1	y	0.6704500000000001
300.8589	0.0	[response]	30	noun	list	3	15	match	tard	5	1	y	0.6704500000000001
302.5883	0.0	+	31	verb	list	4	1	match	danser	5	1	y	0.53333
303.1382	0.2	gjhn	31	verb	list	4	2	match	danser	5	1	y	0.53333
303.3382	0.0	+	31	verb	list	4	3	match	danser	5	1	y	0.53333
303.7382	0.2	dans	31	verb	list	4	4	match	danser	5	1	y	0.53333
303.9381	0.0	+	31	verb	list	4	5	match	danser	5	1	y	0.53333
304.3381	0.2	doit	31	verb	list	4	6	match	danser	5	1	y	0.53333
304.5381	0.0	+	31	verb	list	4	7	match	danser	5	1	y	0.53333
304.9381	0.2	vieux	31	verb	list	4	8	match	danser	5	1	y	0.53333
305.138	0.0	+	31	verb	list	4	9	match	danser	5	1	y	0.53333
305.538	0.2	danser	31	verb	list	4	10	match	danser	5	1	y	0.53333
305.738	0.0	+	31	verb	list	4	11	match	danser	5	1	y	0.53333
306.1379	0.0	+	31	verb	list	4	12	match	danser	5	1	y	0.53333
308.1378	0.0	DANSER	31	verb	list	4	13	match	danser	5	1	y	0.53333
308.7377	0.0	+	31	verb	list	4	14	match	danser	5	1	y	0.53333
308.6711	0.0	[response]	31	verb	list	4	15	match	danser	5	1	y	0.53333
310.5375	0.0	+	32	noun	list	3	1	match	va	3	1	y	0.56966
311.0875	0.2	mfhkzjs	32	noun	list	3	2	match	va	3	1	y	0.56966
311.2875	0.0	+	32	noun	list	3	3	match	va	3	1	y	0.56966
311.6874	0.2	jkhs	32	noun	list	3	4	match	va	3	1	y	0.56966
311.8874	0.0	+	32	noun	list	3	5	match	va	3	1	y	0.56966
312.2874	0.2	va	32	noun	list	3	6	match	va	3	1	y	0.56966
312.4874	0.0	+	32	noun	list	3	7	match	va	3	1	y	0.56966
312.8873	0.2	tablier	32	noun	list	3	8	match	va	3	1	y	0.56966
313.0873	0.0	+	32	noun	list	3	9	match	va	3	1	y	0.56966
313.4873	0.2	loin	32	noun	list	3	10	match	va	3	1	y	0.56966
313.6873	0.0	+	32	noun	list	3	11	match	va	3	1	y	0.56966
314.0872	0.0	+	32	noun	list	3	12	match	va	3	1	y	0.56966
316.087	0.0	VA	32	noun	list	3	13	match	va	3	1	y	0.56966
316.7203	0.0	+	32	noun	list	3	14	match	va	3	1	y	0.56966
316.6567	0.0	[response]	32	noun	list	3	15	match	va	3	1	y	0.56966
318.4868	0.0	+	33	noun	phrase	4	1	nomatch	dans	-1	1	p	0.70405
319.0368	0.2	scqxw	33	noun	phrase	4	2	nomatch	dans	-1	1	p	0.70405
319.2368	0.0	+	33	noun	phrase	4	3	nomatch	dans	-1	1	p	0.70405
319.6367	0.2	sur	33	noun	phrase	4	4	nomatch	dans	-1	1	p	0.70405
319.8367	0.0	+	33	noun	phrase	4	5	nomatch	dans	-1	1	p	0.70405
320.2367	0.2	leur	33	noun	phrase	4	6	nomatch	dans	-1	1	p	0.70405
320.4367	0.0	+	33	noun	phrase	4	7	nomatch	dans	-1	1	p	0.70405
320.8366	0.2	vieux	33	noun	phrase	4	8	nomatch	dans	-1	1	p	0.70405
321.0366	0.0	+	33	noun	phrase	4	9	nomatch	dans	-1	1	p	0.70405
321.4366	0.2	grenier	33	noun	phrase	4	10	nomatch	dans	-1	1	p	0.70405
321.6365	0.0	+	33	noun	phrase	4	11	nomatch	dans	-1	1	p	0.70405
322.0365	0.0	+	33	noun	phrase	4	12	nomatch	dans	-1	1	p	0.70405
324.0363	0.0	DANS	33	noun	phrase	4	13	nomatch	dans	-1	1	p	0.70405
324.8029	0.0	+	33	noun	phrase	4	14	nomatch	dans	-1	1	p	0.70405
324.7404000000001	0.0	[response]	33	noun	phrase	4	15	nomatch	dans	-1	1	p	0.70405
326.4361	0.0	+	34	noun	list	4	1	match	sous	2	1	y	0.5445100000000002
326.9861	0.2	ckqp	34	noun	list	4	2	match	sous	2	1	y	0.5445100000000002
327.186	0.0	+	34	noun	list	4	3	match	sous	2	1	y	0.5445100000000002
327.586	0.2	sous	34	noun	list	4	4	match	sous	2	1	y	0.5445100000000002
327.786	0.0	+	34	noun	list	4	5	match	sous	2	1	y	0.5445100000000002
328.186	0.2	va	34	noun	list	4	6	match	sous	2	1	y	0.5445100000000002
328.3859	0.0	+	34	noun	list	4	7	match	sous	2	1	y	0.5445100000000002
328.7859	0.2	cendrier	34	noun	list	4	8	match	sous	2	1	y	0.5445100000000002
328.9859	0.0	+	34	noun	list	4	9	match	sous	2	1	y	0.5445100000000002
329.3858	0.2	ainsi	34	noun	list	4	10	match	sous	2	1	y	0.5445100000000002
329.5858	0.0	+	34	noun	list	4	11	match	sous	2	1	y	0.5445100000000002
329.9858	0.0	+	34	noun	list	4	12	match	sous	2	1	y	0.5445100000000002
331.9856	0.0	SOUS	34	noun	list	4	13	match	sous	2	1	y	0.5445100000000002
332.5855	0.0	+	34	noun	list	4	14	match	sous	2	1	y	0.5445100000000002
332.5301	0.0	[response]	34	noun	list	4	15	match	sous	2	1	y	0.5445100000000002
334.3854	0.0	+	35	noun	list	1	1	nomatch	parader	-1	1	p	1.5295
334.9353	0.2	qkdjs	35	noun	list	1	2	nomatch	parader	-1	1	p	1.5295
335.1353	0.0	+	35	noun	list	1	3	nomatch	parader	-1	1	p	1.5295
335.5353	0.2	xmv	35	noun	list	1	4	nomatch	parader	-1	1	p	1.5295
335.7353	0.0	+	35	noun	list	1	5	nomatch	parader	-1	1	p	1.5295
336.1352	0.2	cn	35	noun	list	1	6	nomatch	parader	-1	1	p	1.5295
336.3352	0.0	+	35	noun	list	1	7	nomatch	parader	-1	1	p	1.5295
336.7352	0.2	lsgz	35	noun	list	1	8	nomatch	parader	-1	1	p	1.5295
336.9352	0.0	+	35	noun	list	1	9	nomatch	parader	-1	1	p	1.5295
337.3351	0.2	casier	35	noun	list	1	10	nomatch	parader	-1	1	p	1.5295
337.5351	0.0	+	35	noun	list	1	11	nomatch	parader	-1	1	p	1.5295
337.9351	0.0	+	35	noun	list	1	12	nomatch	parader	-1	1	p	1.5295
339.9349	0.0	PARADER	35	noun	list	1	13	nomatch	parader	-1	1	p	1.5295
341.5347	0.0	+	35	noun	list	1	14	nomatch	parader	-1	1	p	1.5295
341.4644	0.0	[response]	35	noun	list	1	15	nomatch	parader	-1	1	p	1.5295
342.3513	0.0	+	36	noun	phrase	4	1	match	clavier	4	1	y	0.78719
342.9013	0.2	nkfjr	36	noun	phrase	4	2	match	clavier	4	1	y	0.78719
343.1013	0.0	+	36	noun	phrase	4	3	match	clavier	4	1	y	0.78719
343.5012	0.2	vers	36	noun	phrase	4	4	match	clavier	4	1	y	0.78719
343.7012	0.0	+	36	noun	phrase	4	5	match	clavier	4	1	y	0.78719
344.1012	0.2	son	36	noun	phrase	4	6	match	clavier	4	1	y	0.78719
344.3012	0.0	+	36	noun	phrase	4	7	match	clavier	4	1	y	0.78719
344.7011	0.2	clavier	36	noun	phrase	4	8	match	clavier	4	1	y	0.78719
344.9011	0.0	+	36	noun	phrase	4	9	match	clavier	4	1	y	0.78719
345.3011	0.2	rouge	36	noun	phrase	4	10	match	clavier	4	1	y	0.78719
345.5011	0.0	+	36	noun	phrase	4	11	match	clavier	4	1	y	0.78719
345.9011	0.0	+	36	noun	phrase	4	12	match	clavier	4	1	y	0.78719
347.9008	0.0	CLAVIER	36	noun	phrase	4	13	match	clavier	4	1	y	0.78719
348.7508	0.0	+	36	noun	phrase	4	14	match	clavier	4	1	y	0.78719
348.688	0.0	[response]	36	noun	phrase	4	15	match	clavier	4	1	y	0.78719
350.3006	0.0	+	37	verb	list	2	1	match	jongler	4	1	y	1.1895
350.8506	0.2	jmn	37	verb	list	2	2	match	jongler	4	1	y	1.1895
351.0506	0.0	+	37	verb	list	2	3	match	jongler	4	1	y	1.1895
351.4505	0.2	pxbj	37	verb	list	2	4	match	jongler	4	1	y	1.1895
351.6505	0.0	+	37	verb	list	2	5	match	jongler	4	1	y	1.1895
352.0505	0.2	vft	37	verb	list	2	6	match	jongler	4	1	y	1.1895
352.2504	0.0	+	37	verb	list	2	7	match	jongler	4	1	y	1.1895
352.6504	0.2	jongler	37	verb	list	2	8	match	jongler	4	1	y	1.1895
352.8504	0.0	+	37	verb	list	2	9	match	jongler	4	1	y	1.1895
353.2504	0.2	vert	37	verb	list	2	10	match	jongler	4	1	y	1.1895
353.4503	0.0	+	37	verb	list	2	11	match	jongler	4	1	y	1.1895
353.8503	0.0	+	37	verb	list	2	12	match	jongler	4	1	y	1.1895
355.8501	0.0	JONGLER	37	verb	list	2	13	match	jongler	4	1	y	1.1895
357.1	0.0	+	37	verb	list	2	14	match	jongler	4	1	y	1.1895
357.0396	0.0	[response]	37	verb	list	2	15	match	jongler	4	1	y	1.1895
358.2499	0.0	+	38	noun	phrase	2	1	nomatch	blanc	-1	0	y	0.71576
358.7999	0.2	lrwtgh	38	noun	phrase	2	2	nomatch	blanc	-1	0	y	0.71576
358.9998	0.0	+	38	noun	phrase	2	3	nomatch	blanc	-1	0	y	0.71576
359.3998	0.2	xrfg	38	noun	phrase	2	4	nomatch	blanc	-1	0	y	0.71576
359.5998	0.0	+	38	noun	phrase	2	5	nomatch	blanc	-1	0	y	0.71576
359.9997	0.2	lgcv	38	noun	phrase	2	6	nomatch	blanc	-1	0	y	0.71576
360.1997	0.0	+	38	noun	phrase	2	7	nomatch	blanc	-1	0	y	0.71576
360.5997	0.2	clavier	38	noun	phrase	2	8	nomatch	blanc	-1	0	y	0.71576
360.7997	0.0	+	38	noun	phrase	2	9	nomatch	blanc	-1	0	y	0.71576
361.1996	0.2	rouge	38	noun	phrase	2	10	nomatch	blanc	-1	0	y	0.71576
361.3996	0.0	+	38	noun	phrase	2	11	nomatch	blanc	-1	0	y	0.71576
361.7996	0.0	+	38	noun	phrase	2	12	nomatch	blanc	-1	0	y	0.71576
363.7994	0.0	BLANC	38	noun	phrase	2	13	nomatch	blanc	-1	0	y	0.71576
364.5827	0.0	+	38	noun	phrase	2	14	nomatch	blanc	-1	0	y	0.71576
364.5152	0.0	[response]	38	noun	phrase	2	15	nomatch	blanc	-1	0	y	0.71576
366.1992	0.0	+	39	verb	phrase	3	1	nomatch	pour	-1	1	p	0.67883
366.7491	0.2	hvcxz	39	verb	phrase	3	2	nomatch	pour	-1	1	p	0.67883
366.9491	0.0	+	39	verb	phrase	3	3	nomatch	pour	-1	1	p	0.67883
367.3491	0.2	vtwj	39	verb	phrase	3	4	nomatch	pour	-1	1	p	0.67883
367.5491	0.0	+	39	verb	phrase	3	5	nomatch	pour	-1	1	p	0.67883
367.949	0.2	peut	39	verb	phrase	3	6	nomatch	pour	-1	1	p	0.67883
368.149	0.0	+	39	verb	phrase	3	7	nomatch	pour	-1	1	p	0.67883
368.549	0.2	moins	39	verb	phrase	3	8	nomatch	pour	-1	1	p	0.67883
368.749	0.0	+	39	verb	phrase	3	9	nomatch	pour	-1	1	p	0.67883
369.1489	0.2	nager	39	verb	phrase	3	10	nomatch	pour	-1	1	p	0.67883
369.3489	0.0	+	39	verb	phrase	3	11	nomatch	pour	-1	1	p	0.67883
369.7489	0.0	+	39	verb	phrase	3	12	nomatch	pour	-1	1	p	0.67883
371.7487	0.0	POUR	39	verb	phrase	3	13	nomatch	pour	-1	1	p	0.67883
372.4819	0.0	+	39	verb	phrase	3	14	nomatch	pour	-1	1	p	0.67883
372.4275	0.0	[response]	39	verb	phrase	3	15	nomatch	pour	-1	1	p	0.67883
374.1485	0.0	+	40	noun	phrase	1	1	match	petit	5	1	y	1.2295
374.6984	0.2	hpkxw	40	noun	phrase	1	2	match	petit	5	1	y	1.2295
374.8984	0.0	+	40	noun	phrase	1	3	match	petit	5	1	y	1.2295
375.2984	0.2	wcbs	40	noun	phrase	1	4	match	petit	5	1	y	1.2295
375.4983	0.0	+	40	noun	phrase	1	5	match	petit	5	1	y	1.2295
375.8983	0.2	vft	40	noun	phrase	1	6	match	petit	5	1	y	1.2295
376.0983	0.0	+	40	noun	phrase	1	7	match	petit	5	1	y	1.2295
376.4983	0.2	kpjtcgm	40	noun	phrase	1	8	match	petit	5	1	y	1.2295
376.6982	0.0	+	40	noun	phrase	1	9	match	petit	5	1	y	1.2295
377.0982	0.2	petit	40	noun	phrase	1	10	match	petit	5	1	y	1.2295
377.2982	0.0	+	40	noun	phrase	1	11	match	petit	5	1	y	1.2295
377.6982	0.0	+	40	noun	phrase	1	12	match	petit	5	1	y	1.2295
379.698	0.0	PETIT	40	noun	phrase	1	13	match	petit	5	1	y	1.2295
380.9978	0.0	+	40	noun	phrase	1	14	match	petit	5	1	y	1.2295
380.9274	0.0	[response]	40	noun	phrase	1	15	match	petit	5	1	y	1.2295
390.097	0.0	+	41	noun	list	1	1	match	tablier	5	0	TIMEOUT	-1.0
390.647	0.2	zcx	41	noun	list	1	2	match	tablier	5	0	TIMEOUT	-1.0
390.847	0.0	+	41	noun	list	1	3	match	tablier	5	0	TIMEOUT	-1.0
391.2469	0.2	jkhs	41	noun	list	1	4	match	tablier	5	0	TIMEOUT	-1.0
391.4469	0.0	+	41	noun	list	1	5	match	tablier	5	0	TIMEOUT	-1.0
391.8469	0.2	svhw	41	noun	list	1	6	match	tablier	5	0	TIMEOUT	-1.0
392.0469	0.0	+	41	noun	list	1	7	match	tablier	5	0	TIMEOUT	-1.0
392.4468	0.2	szdw	41	noun	list	1	8	match	tablier	5	0	TIMEOUT	-1.0
392.6468	0.0	+	41	noun	list	1	9	match	tablier	5	0	TIMEOUT	-1.0
393.0468	0.2	tablier	41	noun	list	1	10	match	tablier	5	0	TIMEOUT	-1.0
393.2467	0.0	+	41	noun	list	1	11	match	tablier	5	0	TIMEOUT	-1.0
393.6467	0.0	+	41	noun	list	1	12	match	tablier	5	0	TIMEOUT	-1.0
395.6465	0.0	TABLIER	41	noun	list	1	13	match	tablier	5	0	TIMEOUT	-1.0
398.0463	0.0	+	42	noun	list	3	1	nomatch	leur	-1	0	y	1.4408000000000003
398.6463	0.2	mpjnlvh	42	noun	list	3	2	nomatch	leur	-1	0	y	1.4408000000000003
398.8462	0.0	+	42	noun	list	3	3	nomatch	leur	-1	0	y	1.4408000000000003
399.2462	0.2	mpdb	42	noun	list	3	4	nomatch	leur	-1	0	y	1.4408000000000003
399.4462	0.0	+	42	noun	list	3	5	nomatch	leur	-1	0	y	1.4408000000000003
399.8461	0.2	son	42	noun	list	3	6	nomatch	leur	-1	0	y	1.4408000000000003
400.0461	0.0	+	42	noun	list	3	7	nomatch	leur	-1	0	y	1.4408000000000003
400.4461	0.2	plus	42	noun	list	3	8	nomatch	leur	-1	0	y	1.4408000000000003
400.6461	0.0	+	42	noun	list	3	9	nomatch	leur	-1	0	y	1.4408000000000003
401.046	0.2	rocher	42	noun	list	3	10	nomatch	leur	-1	0	y	1.4408000000000003
401.246	0.0	+	42	noun	list	3	11	nomatch	leur	-1	0	y	1.4408000000000003
401.646	0.0	+	42	noun	list	3	12	nomatch	leur	-1	0	y	1.4408000000000003
403.6458	0.0	LEUR	42	noun	list	3	13	nomatch	leur	-1	0	y	1.4408000000000003
405.1457	0.0	+	42	noun	list	3	14	nomatch	leur	-1	0	y	1.4408000000000003
405.08660000000003	0.0	[response]	42	noun	list	3	15	nomatch	leur	-1	0	y	1.4408000000000003
414.0449	0.0	+	43	noun	phrase	2	1	match	noir	5	1	y	0.89679
414.5948	0.2	ncjhr	43	noun	phrase	2	2	match	noir	5	1	y	0.89679
414.7948	0.0	+	43	noun	phrase	2	3	match	noir	5	1	y	0.89679
415.1948	0.2	qpnm	43	noun	phrase	2	4	match	noir	5	1	y	0.89679
415.3947	0.0	+	43	noun	phrase	2	5	match	noir	5	1	y	0.89679
415.7947	0.2	rbh	43	noun	phrase	2	6	match	noir	5	1	y	0.89679
415.9947	0.0	+	43	noun	phrase	2	7	match	noir	5	1	y	0.89679
416.3947	0.2	casier	43	noun	phrase	2	8	match	noir	5	1	y	0.89679
416.5946	0.0	+	43	noun	phrase	2	9	match	noir	5	1	y	0.89679
416.9946	0.2	noir	43	noun	phrase	2	10	match	noir	5	1	y	0.89679
417.1946	0.0	+	43	noun	phrase	2	11	match	noir	5	1	y	0.89679
417.5945	0.0	+	43	noun	phrase	2	12	match	noir	5	1	y	0.89679
419.5944	0.0	NOIR	43	noun	phrase	2	13	match	noir	5	1	y	0.89679
420.5609	0.0	+	43	noun	phrase	2	14	match	noir	5	1	y	0.89679
420.4912	0.0	[response]	43	noun	phrase	2	15	match	noir	5	1	y	0.89679
429.9934	0.0	+	44	verb	list	1	1	match	parader	5	1	y	0.54923
430.5434	0.2	cgnjtq	44	verb	list	1	2	match	parader	5	1	y	0.54923
430.7434	0.0	+	44	verb	list	1	3	match	parader	5	1	y	0.54923
431.1433	0.2	scjw	44	verb	list	1	4	match	parader	5	1	y	0.54923
431.3433	0.0	+	44	verb	list	1	5	match	parader	5	1	y	0.54923
431.7433	0.2	svhw	44	verb	list	1	6	match	parader	5	1	y	0.54923
431.9432	0.0	+	44	verb	list	1	7	match	parader	5	1	y	0.54923
432.3432	0.2	hkngm	44	verb	list	1	8	match	parader	5	1	y	0.54923
432.5432	0.0	+	44	verb	list	1	9	match	parader	5	1	y	0.54923
432.9432	0.2	parader	44	verb	list	1	10	match	parader	5	1	y	0.54923
433.1431	0.0	+	44	verb	list	1	11	match	parader	5	1	y	0.54923
433.5431	0.0	+	44	verb	list	1	12	match	parader	5	1	y	0.54923
435.5429	0.0	PARADER	44	verb	list	1	13	match	parader	5	1	y	0.54923
436.1595	0.0	+	44	verb	list	1	14	match	parader	5	1	y	0.54923
436.0922	0.0	[response]	44	verb	list	1	15	match	parader	5	1	y	0.54923
437.9427	0.0	+	45	noun	phrase	1	1	nomatch	petit	-1	1	p	3.6575
438.4927	0.2	mcj	45	noun	phrase	1	2	nomatch	petit	-1	1	p	3.6575
438.6926	0.0	+	45	noun	phrase	1	3	nomatch	petit	-1	1	p	3.6575
439.0926	0.2	qpnm	45	noun	phrase	1	4	nomatch	petit	-1	1	p	3.6575
439.2926	0.0	+	45	noun	phrase	1	5	nomatch	petit	-1	1	p	3.6575
439.6926	0.2	rbh	45	noun	phrase	1	6	nomatch	petit	-1	1	p	3.6575
439.8925	0.0	+	45	noun	phrase	1	7	nomatch	petit	-1	1	p	3.6575
440.2925	0.2	kbwfhpvq	45	noun	phrase	1	8	nomatch	petit	-1	1	p	3.6575
440.4925	0.0	+	45	noun	phrase	1	9	nomatch	petit	-1	1	p	3.6575
440.8924	0.2	grand	45	noun	phrase	1	10	nomatch	petit	-1	1	p	3.6575
441.0924	0.0	+	45	noun	phrase	1	11	nomatch	petit	-1	1	p	3.6575
441.4924	0.0	+	45	noun	phrase	1	12	nomatch	petit	-1	1	p	3.6575
443.4922	0.0	PETIT	45	noun	phrase	1	13	nomatch	petit	-1	1	p	3.6575
447.2085	0.0	+	45	noun	phrase	1	14	nomatch	petit	-1	1	p	3.6575
447.1497	0.0	[response]	45	noun	phrase	1	15	nomatch	petit	-1	1	p	3.6575
453.8913	0.0	+	46	verb	phrase	1	1	nomatch	vite	-1	1	p	1.6291
454.4412	0.2	nrjwl	46	verb	phrase	1	2	nomatch	vite	-1	1	p	1.6291
454.6412	0.0	+	46	verb	phrase	1	3	nomatch	vite	-1	1	p	1.6291
455.0412	0.2	wvln	46	verb	phrase	1	4	nomatch	vite	-1	1	p	1.6291
455.2411	0.0	+	46	verb	phrase	1	5	nomatch	vite	-1	1	p	1.6291
455.6411	0.2	svhw	46	verb	phrase	1	6	nomatch	vite	-1	1	p	1.6291
455.8411	0.0	+	46	verb	phrase	1	7	nomatch	vite	-1	1	p	1.6291
456.2411	0.2	mdbkqwz	46	verb	phrase	1	8	nomatch	vite	-1	1	p	1.6291
456.441	0.0	+	46	verb	phrase	1	9	nomatch	vite	-1	1	p	1.6291
456.841	0.2	mieux	46	verb	phrase	1	10	nomatch	vite	-1	1	p	1.6291
457.041	0.0	+	46	verb	phrase	1	11	nomatch	vite	-1	1	p	1.6291
457.441	0.0	+	46	verb	phrase	1	12	nomatch	vite	-1	1	p	1.6291
459.4408	0.0	VITE	46	verb	phrase	1	13	nomatch	vite	-1	1	p	1.6291
461.1239	0.0	+	46	verb	phrase	1	14	nomatch	vite	-1	1	p	1.6291
461.0699	0.0	[response]	46	verb	phrase	1	15	nomatch	vite	-1	1	p	1.6291
461.84049999999996	0.0	+	47	verb	phrase	1	1	nomatch	beaucoup	-1	1	p	0.5377800000000001
462.39050000000003	0.2	psbmcr	47	verb	phrase	1	2	nomatch	beaucoup	-1	1	p	0.5377800000000001
462.59049999999996	0.0	+	47	verb	phrase	1	3	nomatch	beaucoup	-1	1	p	0.5377800000000001
462.99039999999997	0.2	mpdb	47	verb	phrase	1	4	nomatch	beaucoup	-1	1	p	0.5377800000000001
463.1904	0.0	+	47	verb	phrase	1	5	nomatch	beaucoup	-1	1	p	0.5377800000000001
463.5904	0.2	cn	47	verb	phrase	1	6	nomatch	beaucoup	-1	1	p	0.5377800000000001
463.79040000000003	0.0	+	47	verb	phrase	1	7	nomatch	beaucoup	-1	1	p	0.5377800000000001
464.19030000000004	0.2	jfqtwdc	47	verb	phrase	1	8	nomatch	beaucoup	-1	1	p	0.5377800000000001
464.39029999999997	0.0	+	47	verb	phrase	1	9	nomatch	beaucoup	-1	1	p	0.5377800000000001
464.79029999999995	0.2	moins	47	verb	phrase	1	10	nomatch	beaucoup	-1	1	p	0.5377800000000001
464.9903	0.0	+	47	verb	phrase	1	11	nomatch	beaucoup	-1	1	p	0.5377800000000001
465.3902	0.0	+	47	verb	phrase	1	12	nomatch	beaucoup	-1	1	p	0.5377800000000001
467.39000000000004	0.0	BEAUCOUP	47	verb	phrase	1	13	nomatch	beaucoup	-1	1	p	0.5377800000000001
467.98999999999995	0.0	+	47	verb	phrase	1	14	nomatch	beaucoup	-1	1	p	0.5377800000000001
467.9278	0.0	[response]	47	verb	phrase	1	15	nomatch	beaucoup	-1	1	p	0.5377800000000001
469.78979999999996	0.0	+	48	noun	list	4	1	nomatch	ainsi	-1	1	p	0.83819
470.3398	0.2	nrvzf	48	noun	list	4	2	nomatch	ainsi	-1	1	p	0.83819
470.53979999999996	0.0	+	48	noun	list	4	3	nomatch	ainsi	-1	1	p	0.83819
470.93969999999996	0.2	luc	48	noun	list	4	4	nomatch	ainsi	-1	1	p	0.83819
471.1397	0.0	+	48	noun	list	4	5	nomatch	ainsi	-1	1	p	0.83819
471.5397	0.2	leur	48	noun	list	4	6	nomatch	ainsi	-1	1	p	0.83819
471.7397	0.0	+	48	noun	list	4	7	nomatch	ainsi	-1	1	p	0.83819
472.13960000000003	0.2	trop	48	noun	list	4	8	nomatch	ainsi	-1	1	p	0.83819
472.33959999999996	0.0	+	48	noun	list	4	9	nomatch	ainsi	-1	1	p	0.83819
472.73960000000005	0.2	panier	48	noun	list	4	10	nomatch	ainsi	-1	1	p	0.83819
472.9395	0.0	+	48	noun	list	4	11	nomatch	ainsi	-1	1	p	0.83819
473.3395	0.0	+	48	noun	list	4	12	nomatch	ainsi	-1	1	p	0.83819
475.33930000000004	0.0	AINSI	48	noun	list	4	13	nomatch	ainsi	-1	1	p	0.83819
476.23920000000004	0.0	+	48	noun	list	4	14	nomatch	ainsi	-1	1	p	0.83819
476.17749999999995	0.0	[response]	48	noun	list	4	15	nomatch	ainsi	-1	1	p	0.83819
477.73909999999995	0.0	+	49	verb	phrase	2	1	match	tard	5	1	y	1.2028000000000003
478.2891	0.2	mls	49	verb	phrase	2	2	match	tard	5	1	y	1.2028000000000003
478.489	0.0	+	49	verb	phrase	2	3	match	tard	5	1	y	1.2028000000000003
478.88899999999995	0.2	mpdb	49	verb	phrase	2	4	match	tard	5	1	y	1.2028000000000003
479.089	0.0	+	49	verb	phrase	2	5	match	tard	5	1	y	1.2028000000000003
479.489	0.2	tpgs	49	verb	phrase	2	6	match	tard	5	1	y	1.2028000000000003
479.68890000000005	0.0	+	49	verb	phrase	2	7	match	tard	5	1	y	1.2028000000000003
480.0889	0.2	plonger	49	verb	phrase	2	8	match	tard	5	1	y	1.2028000000000003
480.28889999999996	0.0	+	49	verb	phrase	2	9	match	tard	5	1	y	1.2028000000000003
480.68879999999996	0.2	tard	49	verb	phrase	2	10	match	tard	5	1	y	1.2028000000000003
480.8888	0.0	+	49	verb	phrase	2	11	match	tard	5	1	y	1.2028000000000003
481.2888	0.0	+	49	verb	phrase	2	12	match	tard	5	1	y	1.2028000000000003
483.28860000000003	0.0	TARD	49	verb	phrase	2	13	match	tard	5	1	y	1.2028000000000003
484.55519999999996	0.0	+	49	verb	phrase	2	14	match	tard	5	1	y	1.2028000000000003
484.49140000000006	0.0	[response]	49	verb	phrase	2	15	match	tard	5	1	y	1.2028000000000003
485.68839999999994	0.0	+	50	verb	list	1	1	nomatch	rouge	-1	0	TIMEOUT	-1.0
486.23830000000004	0.2	fkmgq	50	verb	list	1	2	nomatch	rouge	-1	0	TIMEOUT	-1.0
486.43829999999997	0.0	+	50	verb	list	1	3	nomatch	rouge	-1	0	TIMEOUT	-1.0
486.83829999999995	0.2	pxbj	50	verb	list	1	4	nomatch	rouge	-1	0	TIMEOUT	-1.0
487.0383	0.0	+	50	verb	list	1	5	nomatch	rouge	-1	0	TIMEOUT	-1.0
487.4382	0.2	vft	50	verb	list	1	6	nomatch	rouge	-1	0	TIMEOUT	-1.0
487.63820000000004	0.0	+	50	verb	list	1	7	nomatch	rouge	-1	0	TIMEOUT	-1.0
488.0382	0.2	fxtjzkv	50	verb	list	1	8	nomatch	rouge	-1	0	TIMEOUT	-1.0
488.23819999999995	0.0	+	50	verb	list	1	9	nomatch	rouge	-1	0	TIMEOUT	-1.0
488.63809999999995	0.2	noir	50	verb	list	1	10	nomatch	rouge	-1	0	TIMEOUT	-1.0
488.8381	0.0	+	50	verb	list	1	11	nomatch	rouge	-1	0	TIMEOUT	-1.0
489.2381	0.0	+	50	verb	list	1	12	nomatch	rouge	-1	0	TIMEOUT	-1.0
491.2379	0.0	ROUGE	50	verb	list	1	13	nomatch	rouge	-1	0	TIMEOUT	-1.0
493.6543	0.0	+	51	verb	phrase	4	1	nomatch	sous	-1	0	y	2.2855
494.2376	0.2	tgbfrzc	51	verb	phrase	4	2	nomatch	sous	-1	0	y	2.2855
494.43760000000003	0.0	+	51	verb	phrase	4	3	nomatch	sous	-1	0	y	2.2855
494.8376	0.2	adam	51	verb	phrase	4	4	nomatch	sous	-1	0	y	2.2855
495.03760000000005	0.0	+	51	verb	phrase	4	5	nomatch	sous	-1	0	y	2.2855
495.43749999999994	0.2	doit	51	verb	phrase	4	6	nomatch	sous	-1	0	y	2.2855
495.6375	0.0	+	51	verb	phrase	4	7	nomatch	sous	-1	0	y	2.2855
496.03749999999997	0.2	voyager	51	verb	phrase	4	8	nomatch	sous	-1	0	y	2.2855
496.23740000000004	0.0	+	51	verb	phrase	4	9	nomatch	sous	-1	0	y	2.2855
496.6374	0.2	ainsi	51	verb	phrase	4	10	nomatch	sous	-1	0	y	2.2855
496.83739999999995	0.0	+	51	verb	phrase	4	11	nomatch	sous	-1	0	y	2.2855
497.23740000000004	0.0	+	51	verb	phrase	4	12	nomatch	sous	-1	0	y	2.2855
499.2372	0.0	SOUS	51	verb	phrase	4	13	nomatch	sous	-1	0	y	2.2855
501.58700000000005	0.0	+	51	verb	phrase	4	14	nomatch	sous	-1	0	y	2.2855
501.52270000000016	0.0	[response]	51	verb	phrase	4	15	nomatch	sous	-1	0	y	2.2855
501.65360000000004	0.0	+	52	verb	phrase	4	1	match	loin	5	1	y	0.97644
502.1869	0.2	wclxdp	52	verb	phrase	4	2	match	loin	5	1	y	0.97644
502.3869	0.0	+	52	verb	phrase	4	3	match	loin	5	1	y	0.97644
502.7869	0.2	jade	52	verb	phrase	4	4	match	loin	5	1	y	0.97644
502.98679999999996	0.0	+	52	verb	phrase	4	5	match	loin	5	1	y	0.97644
503.38680000000005	0.2	va	52	verb	phrase	4	6	match	loin	5	1	y	0.97644
503.5868	0.0	+	52	verb	phrase	4	7	match	loin	5	1	y	0.97644
503.9867	0.2	chasser	52	verb	phrase	4	8	match	loin	5	1	y	0.97644
504.18670000000003	0.0	+	52	verb	phrase	4	9	match	loin	5	1	y	0.97644
504.5867	0.2	loin	52	verb	phrase	4	10	match	loin	5	1	y	0.97644
504.78670000000005	0.0	+	52	verb	phrase	4	11	match	loin	5	1	y	0.97644
505.18660000000006	0.0	+	52	verb	phrase	4	12	match	loin	5	1	y	0.97644
507.18649999999997	0.0	LOIN	52	verb	phrase	4	13	match	loin	5	1	y	0.97644
508.21970000000005	0.0	+	52	verb	phrase	4	14	match	loin	5	1	y	0.97644
508.1629	0.0	[response]	52	verb	phrase	4	15	match	loin	5	1	y	0.97644
509.5862	0.0	+	53	noun	phrase	3	1	match	petit	4	1	y	0.93268
510.1362	0.2	bqvw	53	noun	phrase	3	2	match	petit	4	1	y	0.93268
510.3362	0.0	+	53	noun	phrase	3	3	match	petit	4	1	y	0.93268
510.7361	0.2	jkhs	53	noun	phrase	3	4	match	petit	4	1	y	0.93268
510.93609999999995	0.0	+	53	noun	phrase	3	5	match	petit	4	1	y	0.93268
511.33610000000004	0.2	son	53	noun	phrase	3	6	match	petit	4	1	y	0.93268
511.5361	0.0	+	53	noun	phrase	3	7	match	petit	4	1	y	0.93268
511.936	0.2	petit	53	noun	phrase	3	8	match	petit	4	1	y	0.93268
512.136	0.0	+	53	noun	phrase	3	9	match	petit	4	1	y	0.93268
512.5360000000001	0.2	cendrier	53	noun	phrase	3	10	match	petit	4	1	y	0.93268
512.7360000000001	0.0	+	53	noun	phrase	3	11	match	petit	4	1	y	0.93268
513.1359	0.0	+	53	noun	phrase	3	12	match	petit	4	1	y	0.93268
515.1357	0.0	PETIT	53	noun	phrase	3	13	match	petit	4	1	y	0.93268
516.1356000000001	0.0	+	53	noun	phrase	3	14	match	petit	4	1	y	0.93268
516.0684000000001	0.0	[response]	53	noun	phrase	3	15	match	petit	4	1	y	0.93268
517.5355	0.0	+	54	verb	list	3	1	nomatch	chasser	-1	1	p	0.82334
518.0854999999999	0.2	kxf	54	verb	list	3	2	nomatch	chasser	-1	1	p	0.82334
518.2855	0.0	+	54	verb	list	3	3	nomatch	chasser	-1	1	p	0.82334
518.6854000000001	0.2	qpnm	54	verb	list	3	4	nomatch	chasser	-1	1	p	0.82334
518.8853999999999	0.0	+	54	verb	list	3	5	nomatch	chasser	-1	1	p	0.82334
519.2854	0.2	doit	54	verb	list	3	6	nomatch	chasser	-1	1	p	0.82334
519.4853	0.0	+	54	verb	list	3	7	nomatch	chasser	-1	1	p	0.82334
519.8852999999999	0.2	vieux	54	verb	list	3	8	nomatch	chasser	-1	1	p	0.82334
520.0853	0.0	+	54	verb	list	3	9	nomatch	chasser	-1	1	p	0.82334
520.4853	0.2	plonger	54	verb	list	3	10	nomatch	chasser	-1	1	p	0.82334
520.6851999999999	0.0	+	54	verb	list	3	11	nomatch	chasser	-1	1	p	0.82334
521.0852	0.0	+	54	verb	list	3	12	nomatch	chasser	-1	1	p	0.82334
523.085	0.0	CHASSER	54	verb	list	3	13	nomatch	chasser	-1	1	p	0.82334
523.9683	0.0	+	54	verb	list	3	14	nomatch	chasser	-1	1	p	0.82334
523.9084	0.0	[response]	54	verb	list	3	15	nomatch	chasser	-1	1	p	0.82334
525.4848	0.0	+	55	noun	list	2	1	nomatch	son	-1	0	y	0.77898
526.0514000000001	0.2	kjlbg	55	noun	list	2	2	nomatch	son	-1	0	y	0.77898
526.2514000000001	0.0	+	55	noun	list	2	3	nomatch	son	-1	0	y	0.77898
526.6514	0.2	xmv	55	noun	list	2	4	nomatch	son	-1	0	y	0.77898
526.8513	0.0	+	55	noun	list	2	5	nomatch	son	-1	0	y	0.77898
527.2512999999999	0.2	cn	55	noun	list	2	6	nomatch	son	-1	0	y	0.77898
527.4513	0.0	+	55	noun	list	2	7	nomatch	son	-1	0	y	0.77898
527.8513	0.2	panier	55	noun	list	2	8	nomatch	son	-1	0	y	0.77898
528.0512000000001	0.0	+	55	noun	list	2	9	nomatch	son	-1	0	y	0.77898
528.4512	0.2	ainsi	55	noun	list	2	10	nomatch	son	-1	0	y	0.77898
528.6512	0.0	+	55	noun	list	2	11	nomatch	son	-1	0	y	0.77898
529.0510999999999	0.0	+	55	noun	list	2	12	nomatch	son	-1	0	y	0.77898
531.0509999999999	0.0	SON	55	noun	list	2	13	nomatch	son	-1	0	y	0.77898
531.8842	0.0	+	55	noun	list	2	14	nomatch	son	-1	0	y	0.77898
531.8299	0.0	[response]	55	noun	list	2	15	nomatch	son	-1	0	y	0.77898
533.4507000000001	0.0	+	56	noun	phrase	3	1	nomatch	bleu	-1	1	p	0.69604
534.0007	0.2	nkltqfr	56	noun	phrase	3	2	nomatch	bleu	-1	1	p	0.69604
534.2007000000001	0.0	+	56	noun	phrase	3	3	nomatch	bleu	-1	1	p	0.69604
534.6006	0.2	xrfg	56	noun	phrase	3	4	nomatch	bleu	-1	1	p	0.69604
534.8006	0.0	+	56	noun	phrase	3	5	nomatch	bleu	-1	1	p	0.69604
535.2005999999999	0.2	mon	56	noun	phrase	3	6	nomatch	bleu	-1	1	p	0.69604
535.4005999999999	0.0	+	56	noun	phrase	3	7	nomatch	bleu	-1	1	p	0.69604
535.8005	0.2	grenier	56	noun	phrase	3	8	nomatch	bleu	-1	1	p	0.69604
536.0005000000001	0.0	+	56	noun	phrase	3	9	nomatch	bleu	-1	1	p	0.69604
536.4005	0.2	vert	56	noun	phrase	3	10	nomatch	bleu	-1	1	p	0.69604
536.6005	0.0	+	56	noun	phrase	3	11	nomatch	bleu	-1	1	p	0.69604
537.0003999999999	0.0	+	56	noun	phrase	3	12	nomatch	bleu	-1	1	p	0.69604
539.0002	0.0	BLEU	56	noun	phrase	3	13	nomatch	bleu	-1	1	p	0.69604
539.7668000000001	0.0	+	56	noun	phrase	3	14	nomatch	bleu	-1	1	p	0.69604
539.6963000000001	0.0	[response]	56	noun	phrase	3	15	nomatch	bleu	-1	1	p	0.69604
549.3993	0.0	+	57	verb	phrase	3	1	nomatch	plonger	-1	1	p	0.80603
549.9493	0.2	tbsz	57	verb	phrase	3	2	nomatch	plonger	-1	1	p	0.80603
550.1492000000001	0.0	+	57	verb	phrase	3	3	nomatch	plonger	-1	1	p	0.80603
550.5491999999999	0.2	wvln	57	verb	phrase	3	4	nomatch	plonger	-1	1	p	0.80603
550.7492	0.0	+	57	verb	phrase	3	5	nomatch	plonger	-1	1	p	0.80603
551.1492000000001	0.2	va	57	verb	phrase	3	6	nomatch	plonger	-1	1	p	0.80603
551.3490999999999	0.0	+	57	verb	phrase	3	7	nomatch	plonger	-1	1	p	0.80603
551.7491	0.2	plus	57	verb	phrase	3	8	nomatch	plonger	-1	1	p	0.80603
551.9491	0.0	+	57	verb	phrase	3	9	nomatch	plonger	-1	1	p	0.80603
552.3489999999999	0.2	danser	57	verb	phrase	3	10	nomatch	plonger	-1	1	p	0.80603
552.549	0.0	+	57	verb	phrase	3	11	nomatch	plonger	-1	1	p	0.80603
552.9490000000001	0.0	+	57	verb	phrase	3	12	nomatch	plonger	-1	1	p	0.80603
554.9487999999999	0.0	PLONGER	57	verb	phrase	3	13	nomatch	plonger	-1	1	p	0.80603
555.8154	0.0	+	57	verb	phrase	3	14	nomatch	plonger	-1	1	p	0.80603
555.7547999999999	0.0	[response]	57	verb	phrase	3	15	nomatch	plonger	-1	1	p	0.80603
557.3486	0.0	+	58	noun	list	4	1	match	son	3	1	y	0.60941
557.8985	0.2	psw	58	noun	list	4	2	match	son	3	1	y	0.60941
558.0985000000001	0.0	+	58	noun	list	4	3	match	son	3	1	y	0.60941
558.4984999999999	0.2	yves	58	noun	list	4	4	match	son	3	1	y	0.60941
558.6985	0.0	+	58	noun	list	4	5	match	son	3	1	y	0.60941
559.0984000000001	0.2	son	58	noun	list	4	6	match	son	3	1	y	0.60941
559.2983999999999	0.0	+	58	noun	list	4	7	match	son	3	1	y	0.60941
559.6984	0.2	moins	58	noun	list	4	8	match	son	3	1	y	0.60941
559.8984	0.0	+	58	noun	list	4	9	match	son	3	1	y	0.60941
560.2982999999999	0.2	tablier	58	noun	list	4	10	match	son	3	1	y	0.60941
560.4983	0.0	+	58	noun	list	4	11	match	son	3	1	y	0.60941
560.8983000000001	0.0	+	58	noun	list	4	12	match	son	3	1	y	0.60941
562.8981000000001	0.0	SON	58	noun	list	4	13	match	son	3	1	y	0.60941
563.5646999999999	0.0	+	58	noun	list	4	14	match	son	3	1	y	0.60941
563.5074999999999	0.0	[response]	58	noun	list	4	15	match	son	3	1	y	0.60941
565.2979	0.0	+	59	verb	list	1	1	nomatch	doit	-1	1	p	1.274
565.8478	0.2	hmx	59	verb	list	1	2	nomatch	doit	-1	1	p	1.274
566.0478	0.0	+	59	verb	list	1	3	nomatch	doit	-1	1	p	1.274
566.4477999999999	0.2	dmgj	59	verb	list	1	4	nomatch	doit	-1	1	p	1.274
566.6478	0.0	+	59	verb	list	1	5	nomatch	doit	-1	1	p	1.274
567.0477000000001	0.2	vft	59	verb	list	1	6	nomatch	doit	-1	1	p	1.274
567.2476999999999	0.0	+	59	verb	list	1	7	nomatch	doit	-1	1	p	1.274
567.6477	0.2	rcvhxtm	59	verb	list	1	8	nomatch	doit	-1	1	p	1.274
567.8476	0.0	+	59	verb	list	1	9	nomatch	doit	-1	1	p	1.274
568.2475999999999	0.2	vert	59	verb	list	1	10	nomatch	doit	-1	1	p	1.274
568.4476	0.0	+	59	verb	list	1	11	nomatch	doit	-1	1	p	1.274
568.8476	0.0	+	59	verb	list	1	12	nomatch	doit	-1	1	p	1.274
570.8474000000001	0.0	DOIT	59	verb	list	1	13	nomatch	doit	-1	1	p	1.274
572.1805999999999	0.0	+	59	verb	list	1	14	nomatch	doit	-1	1	p	1.274
572.1213	0.0	[response]	59	verb	list	1	15	nomatch	doit	-1	1	p	1.274
573.2472	0.0	+	60	verb	phrase	1	1	nomatch	vers	-1	1	p	1.1847
573.7971	0.2	pjnhlt	60	verb	phrase	1	2	nomatch	vers	-1	1	p	1.1847
573.9971	0.0	+	60	verb	phrase	1	3	nomatch	vers	-1	1	p	1.1847
574.3970999999999	0.2	vtwj	60	verb	phrase	1	4	nomatch	vers	-1	1	p	1.1847
574.597	0.0	+	60	verb	phrase	1	5	nomatch	vers	-1	1	p	1.1847
574.9970000000001	0.2	tpgs	60	verb	phrase	1	6	nomatch	vers	-1	1	p	1.1847
575.1969999999999	0.0	+	60	verb	phrase	1	7	nomatch	vers	-1	1	p	1.1847
575.5969	0.2	cghrq	60	verb	phrase	1	8	nomatch	vers	-1	1	p	1.1847
575.7969	0.0	+	60	verb	phrase	1	9	nomatch	vers	-1	1	p	1.1847
576.1968999999999	0.2	ainsi	60	verb	phrase	1	10	nomatch	vers	-1	1	p	1.1847
576.3969	0.0	+	60	verb	phrase	1	11	nomatch	vers	-1	1	p	1.1847
576.7968000000001	0.0	+	60	verb	phrase	1	12	nomatch	vers	-1	1	p	1.1847
578.7967000000001	0.0	VERS	60	verb	phrase	1	13	nomatch	vers	-1	1	p	1.1847
580.0464999999999	0.0	+	60	verb	phrase	1	14	nomatch	vers	-1	1	p	1.1847
579.9812999999999	0.0	[response]	60	verb	phrase	1	15	nomatch	vers	-1	1	p	1.1847
589.1957	0.0	+	61	verb	list	4	1	nomatch	mon	-1	1	p	0.69958
589.7456999999999	0.2	trlz	61	verb	list	4	2	nomatch	mon	-1	1	p	0.69958
589.9456	0.0	+	61	verb	list	4	3	nomatch	mon	-1	1	p	0.69958
590.3456000000001	0.2	yves	61	verb	list	4	4	nomatch	mon	-1	1	p	0.69958
590.5455999999999	0.0	+	61	verb	list	4	5	nomatch	mon	-1	1	p	0.69958
590.9456	0.2	leur	61	verb	list	4	6	nomatch	mon	-1	1	p	0.69958
591.1455000000001	0.0	+	61	verb	list	4	7	nomatch	mon	-1	1	p	0.69958
591.5455	0.2	jongler	61	verb	list	4	8	nomatch	mon	-1	1	p	0.69958
591.7455	0.0	+	61	verb	list	4	9	nomatch	mon	-1	1	p	0.69958
592.1454000000001	0.2	blanc	61	verb	list	4	10	nomatch	mon	-1	1	p	0.69958
592.3453999999999	0.0	+	61	verb	list	4	11	nomatch	mon	-1	1	p	0.69958
592.7454	0.0	+	61	verb	list	4	12	nomatch	mon	-1	1	p	0.69958
594.7452000000001	0.0	MON	61	verb	list	4	13	nomatch	mon	-1	1	p	0.69958
595.5118	0.0	+	61	verb	list	4	14	nomatch	mon	-1	1	p	0.69958
595.4448	0.0	[response]	61	verb	list	4	15	nomatch	mon	-1	1	p	0.69958
613.1434999999999	0.0	+	62	verb	list	3	1	match	petit	4	0	TIMEOUT	-1.0
613.6935000000001	0.2	vstjx	62	verb	list	3	2	match	petit	4	0	TIMEOUT	-1.0
613.8934999999999	0.0	+	62	verb	list	3	3	match	petit	4	0	TIMEOUT	-1.0
614.2934	0.2	kszh	62	verb	list	3	4	match	petit	4	0	TIMEOUT	-1.0
614.4934000000001	0.0	+	62	verb	list	3	5	match	petit	4	0	TIMEOUT	-1.0
614.8933999999999	0.2	peut	62	verb	list	3	6	match	petit	4	0	TIMEOUT	-1.0
615.0934	0.0	+	62	verb	list	3	7	match	petit	4	0	TIMEOUT	-1.0
615.4933000000001	0.2	petit	62	verb	list	3	8	match	petit	4	0	TIMEOUT	-1.0
615.6932999999999	0.0	+	62	verb	list	3	9	match	petit	4	0	TIMEOUT	-1.0
616.0933	0.2	parader	62	verb	list	3	10	match	petit	4	0	TIMEOUT	-1.0
616.2933	0.0	+	62	verb	list	3	11	match	petit	4	0	TIMEOUT	-1.0
616.6931999999999	0.0	+	62	verb	list	3	12	match	petit	4	0	TIMEOUT	-1.0
618.6931	0.0	PETIT	62	verb	list	3	13	match	petit	4	0	TIMEOUT	-1.0
621.0927999999999	0.0	+	63	verb	phrase	3	1	nomatch	nager	-1	1	p	0.68188
621.6928	0.2	kcmjsx	63	verb	phrase	3	2	nomatch	nager	-1	1	p	0.68188
621.8928000000001	0.0	+	63	verb	phrase	3	3	nomatch	nager	-1	1	p	0.68188
622.2927	0.2	dmgj	63	verb	phrase	3	4	nomatch	nager	-1	1	p	0.68188
622.4927	0.0	+	63	verb	phrase	3	5	nomatch	nager	-1	1	p	0.68188
622.8927000000001	0.2	doit	63	verb	phrase	3	6	nomatch	nager	-1	1	p	0.68188
623.0926999999999	0.0	+	63	verb	phrase	3	7	nomatch	nager	-1	1	p	0.68188
623.4926	0.2	galoper	63	verb	phrase	3	8	nomatch	nager	-1	1	p	0.68188
623.6926000000001	0.0	+	63	verb	phrase	3	9	nomatch	nager	-1	1	p	0.68188
624.0926	0.2	vite	63	verb	phrase	3	10	nomatch	nager	-1	1	p	0.68188
624.2925	0.0	+	63	verb	phrase	3	11	nomatch	nager	-1	1	p	0.68188
624.6925000000001	0.0	+	63	verb	phrase	3	12	nomatch	nager	-1	1	p	0.68188
626.6922999999999	0.0	NAGER	63	verb	phrase	3	13	nomatch	nager	-1	1	p	0.68188
627.4422999999999	0.0	+	63	verb	phrase	3	14	nomatch	nager	-1	1	p	0.68188
627.3742	0.0	[response]	63	verb	phrase	3	15	nomatch	nager	-1	1	p	0.68188
629.0921000000001	0.0	+	64	noun	phrase	3	1	nomatch	vieux	-1	1	p	0.88511
629.6421	0.2	fphq	64	noun	phrase	3	2	nomatch	vieux	-1	1	p	0.88511
629.8420000000001	0.0	+	64	noun	phrase	3	3	nomatch	vieux	-1	1	p	0.88511
630.242	0.2	kszh	64	noun	phrase	3	4	nomatch	vieux	-1	1	p	0.88511
630.442	0.0	+	64	noun	phrase	3	5	nomatch	vieux	-1	1	p	0.88511
630.8420000000001	0.2	leur	64	noun	phrase	3	6	nomatch	vieux	-1	1	p	0.88511
631.0418999999999	0.0	+	64	noun	phrase	3	7	nomatch	vieux	-1	1	p	0.88511
631.4419	0.2	tablier	64	noun	phrase	3	8	nomatch	vieux	-1	1	p	0.88511
631.6419000000001	0.0	+	64	noun	phrase	3	9	nomatch	vieux	-1	1	p	0.88511
632.0418	0.2	noir	64	noun	phrase	3	10	nomatch	vieux	-1	1	p	0.88511
632.2418	0.0	+	64	noun	phrase	3	11	nomatch	vieux	-1	1	p	0.88511
632.6418000000001	0.0	+	64	noun	phrase	3	12	nomatch	vieux	-1	1	p	0.88511
634.6415999999999	0.0	VIEUX	64	noun	phrase	3	13	nomatch	vieux	-1	1	p	0.88511
635.5915	0.0	+	64	noun	phrase	3	14	nomatch	vieux	-1	1	p	0.88511
635.5266999999999	0.0	[response]	64	noun	phrase	3	15	nomatch	vieux	-1	1	p	0.88511
637.0414000000001	0.0	+	65	verb	list	1	1	match	danser	5	1	y	0.64869
637.5913	0.2	fcmbj	65	verb	list	1	2	match	danser	5	1	y	0.64869
637.7913000000001	0.0	+	65	verb	list	1	3	match	danser	5	1	y	0.64869
638.1913	0.2	rmkt	65	verb	list	1	4	match	danser	5	1	y	0.64869
638.3913	0.0	+	65	verb	list	1	5	match	danser	5	1	y	0.64869
638.7911999999999	0.2	lgcv	65	verb	list	1	6	match	danser	5	1	y	0.64869
638.9911999999999	0.0	+	65	verb	list	1	7	match	danser	5	1	y	0.64869
639.3912	0.2	mpvhd	65	verb	list	1	8	match	danser	5	1	y	0.64869
639.5912000000001	0.0	+	65	verb	list	1	9	match	danser	5	1	y	0.64869
639.9911	0.2	danser	65	verb	list	1	10	match	danser	5	1	y	0.64869
640.1911	0.0	+	65	verb	list	1	11	match	danser	5	1	y	0.64869
640.5911000000001	0.0	+	65	verb	list	1	12	match	danser	5	1	y	0.64869
642.5908999999999	0.0	DANSER	65	verb	list	1	13	match	danser	5	1	y	0.64869
643.3074999999999	0.0	+	65	verb	list	1	14	match	danser	5	1	y	0.64869
643.2396000000001	0.0	[response]	65	verb	list	1	15	match	danser	5	1	y	0.64869
644.9907000000001	0.0	+	66	verb	phrase	1	1	match	tôt	5	1	y	0.54526
645.5406	0.2	bqm	66	verb	phrase	1	2	match	tôt	5	1	y	0.54526
645.7406000000001	0.0	+	66	verb	phrase	1	3	match	tôt	5	1	y	0.54526
646.1406	0.2	wvln	66	verb	phrase	1	4	match	tôt	5	1	y	0.54526
646.3406	0.0	+	66	verb	phrase	1	5	match	tôt	5	1	y	0.54526
646.7405000000001	0.2	svhw	66	verb	phrase	1	6	match	tôt	5	1	y	0.54526
646.9404999999999	0.0	+	66	verb	phrase	1	7	match	tôt	5	1	y	0.54526
647.3405	0.2	fbgdnrv	66	verb	phrase	1	8	match	tôt	5	1	y	0.54526
647.5404000000001	0.0	+	66	verb	phrase	1	9	match	tôt	5	1	y	0.54526
647.9404	0.2	tôt	66	verb	phrase	1	10	match	tôt	5	1	y	0.54526
648.1404	0.0	+	66	verb	phrase	1	11	match	tôt	5	1	y	0.54526
648.5404000000001	0.0	+	66	verb	phrase	1	12	match	tôt	5	1	y	0.54526
650.5401999999999	0.0	TÔT	66	verb	phrase	1	13	match	tôt	5	1	y	0.54526
651.1401000000001	0.0	+	66	verb	phrase	1	14	match	tôt	5	1	y	0.54526
651.0854000000002	0.0	[response]	66	verb	phrase	1	15	match	tôt	5	1	y	0.54526
652.9399000000001	0.0	+	67	verb	list	1	1	nomatch	plonger	-1	1	p	0.61413
653.4899	0.2	xmnsjgr	67	verb	list	1	2	nomatch	plonger	-1	1	p	0.61413
653.6899000000001	0.0	+	67	verb	list	1	3	nomatch	plonger	-1	1	p	0.61413
654.0899	0.2	pxbj	67	verb	list	1	4	nomatch	plonger	-1	1	p	0.61413
654.2898	0.0	+	67	verb	list	1	5	nomatch	plonger	-1	1	p	0.61413
654.6898000000001	0.2	vft	67	verb	list	1	6	nomatch	plonger	-1	1	p	0.61413
654.8897999999999	0.0	+	67	verb	list	1	7	nomatch	plonger	-1	1	p	0.61413
655.2897	0.2	fhrs	67	verb	list	1	8	nomatch	plonger	-1	1	p	0.61413
655.4897000000001	0.0	+	67	verb	list	1	9	nomatch	plonger	-1	1	p	0.61413
655.8897	0.2	nager	67	verb	list	1	10	nomatch	plonger	-1	1	p	0.61413
656.0897	0.0	+	67	verb	list	1	11	nomatch	plonger	-1	1	p	0.61413
656.4896000000001	0.0	+	67	verb	list	1	12	nomatch	plonger	-1	1	p	0.61413
658.4894999999999	0.0	PLONGER	67	verb	list	1	13	nomatch	plonger	-1	1	p	0.61413
659.1727000000001	0.0	+	67	verb	list	1	14	nomatch	plonger	-1	1	p	0.61413
659.1035999999999	0.0	[response]	67	verb	list	1	15	nomatch	plonger	-1	1	p	0.61413
660.8892000000001	0.0	+	68	verb	list	4	1	nomatch	sans	-1	1	p	1.0048
661.4392	0.2	cqdth	68	verb	list	4	2	nomatch	sans	-1	1	p	1.0048
661.6392000000001	0.0	+	68	verb	list	4	3	nomatch	sans	-1	1	p	1.0048
662.0391	0.2	marc	68	verb	list	4	4	nomatch	sans	-1	1	p	1.0048
662.2391	0.0	+	68	verb	list	4	5	nomatch	sans	-1	1	p	1.0048
662.6391000000001	0.2	mon	68	verb	list	4	6	nomatch	sans	-1	1	p	1.0048
662.8390999999999	0.0	+	68	verb	list	4	7	nomatch	sans	-1	1	p	1.0048
663.239	0.2	galoper	68	verb	list	4	8	nomatch	sans	-1	1	p	1.0048
663.4390000000001	0.0	+	68	verb	list	4	9	nomatch	sans	-1	1	p	1.0048
663.8389999999999	0.2	rouge	68	verb	list	4	10	nomatch	sans	-1	1	p	1.0048
664.039	0.0	+	68	verb	list	4	11	nomatch	sans	-1	1	p	1.0048
664.4389000000001	0.0	+	68	verb	list	4	12	nomatch	sans	-1	1	p	1.0048
666.4386999999999	0.0	SANS	68	verb	list	4	13	nomatch	sans	-1	1	p	1.0048
667.5053	0.0	+	68	verb	list	4	14	nomatch	sans	-1	1	p	1.0048
667.4435000000001	0.0	[response]	68	verb	list	4	15	nomatch	sans	-1	1	p	1.0048
668.8385000000001	0.0	+	69	verb	phrase	1	1	nomatch	panier	-1	0	y	0.89692
669.3885	0.2	rvjm	69	verb	phrase	1	2	nomatch	panier	-1	0	y	0.89692
669.5885000000001	0.0	+	69	verb	phrase	1	3	nomatch	panier	-1	0	y	0.89692
669.9884	0.2	dmgj	69	verb	phrase	1	4	nomatch	panier	-1	0	y	0.89692
670.1884	0.0	+	69	verb	phrase	1	5	nomatch	panier	-1	0	y	0.89692
670.5884000000001	0.2	cn	69	verb	phrase	1	6	nomatch	panier	-1	0	y	0.89692
670.7882999999999	0.0	+	69	verb	phrase	1	7	nomatch	panier	-1	0	y	0.89692
671.1883	0.2	xfsphc	69	verb	phrase	1	8	nomatch	panier	-1	0	y	0.89692
671.3883000000001	0.0	+	69	verb	phrase	1	9	nomatch	panier	-1	0	y	0.89692
671.7882999999999	0.2	ainsi	69	verb	phrase	1	10	nomatch	panier	-1	0	y	0.89692
671.9882	0.0	+	69	verb	phrase	1	11	nomatch	panier	-1	0	y	0.89692
672.3882000000001	0.0	+	69	verb	phrase	1	12	nomatch	panier	-1	0	y	0.89692
674.3879999999999	0.0	PANIER	69	verb	phrase	1	13	nomatch	panier	-1	0	y	0.89692
675.3545999999999	0.0	+	69	verb	phrase	1	14	nomatch	panier	-1	0	y	0.89692
675.2849000000001	0.0	[response]	69	verb	phrase	1	15	nomatch	panier	-1	0	y	0.89692
676.7878000000001	0.0	+	70	verb	list	3	1	nomatch	noir	-1	1	p	1.3635
677.3378	0.2	kstnmd	70	verb	list	3	2	nomatch	noir	-1	1	p	1.3635
677.5377000000001	0.0	+	70	verb	list	3	3	nomatch	noir	-1	1	p	1.3635
677.9377	0.2	mpdb	70	verb	list	3	4	nomatch	noir	-1	1	p	1.3635
678.1377	0.0	+	70	verb	list	3	5	nomatch	noir	-1	1	p	1.3635
678.5376000000001	0.2	mon	70	verb	list	3	6	nomatch	noir	-1	1	p	1.3635
678.7375999999999	0.0	+	70	verb	list	3	7	nomatch	noir	-1	1	p	1.3635
679.1376	0.2	jongler	70	verb	list	3	8	nomatch	noir	-1	1	p	1.3635
679.3376000000001	0.0	+	70	verb	list	3	9	nomatch	noir	-1	1	p	1.3635
679.7375	0.2	vert	70	verb	list	3	10	nomatch	noir	-1	1	p	1.3635
679.9375	0.0	+	70	verb	list	3	11	nomatch	noir	-1	1	p	1.3635
680.3375000000001	0.0	+	70	verb	list	3	12	nomatch	noir	-1	1	p	1.3635
682.3372999999999	0.0	NOIR	70	verb	list	3	13	nomatch	noir	-1	1	p	1.3635
683.7705000000001	0.0	+	70	verb	list	3	14	nomatch	noir	-1	1	p	1.3635
683.7008000000001	0.0	[response]	70	verb	list	3	15	nomatch	noir	-1	1	p	1.3635
684.7371	0.0	+	71	verb	list	1	1	nomatch	luc	-1	1	p	0.60835
685.287	0.2	lztqvkr	71	verb	list	1	2	nomatch	luc	-1	1	p	0.60835
685.4870000000001	0.0	+	71	verb	list	1	3	nomatch	luc	-1	1	p	0.60835
685.887	0.2	wcbs	71	verb	list	1	4	nomatch	luc	-1	1	p	0.60835
686.087	0.0	+	71	verb	list	1	5	nomatch	luc	-1	1	p	0.60835
686.4869000000001	0.2	tpgs	71	verb	list	1	6	nomatch	luc	-1	1	p	0.60835
686.6868999999999	0.0	+	71	verb	list	1	7	nomatch	luc	-1	1	p	0.60835
687.0869	0.2	cghrq	71	verb	list	1	8	nomatch	luc	-1	1	p	0.60835
687.2869000000001	0.0	+	71	verb	list	1	9	nomatch	luc	-1	1	p	0.60835
687.6868	0.2	petit	71	verb	list	1	10	nomatch	luc	-1	1	p	0.60835
687.8868	0.0	+	71	verb	list	1	11	nomatch	luc	-1	1	p	0.60835
688.2868000000001	0.0	+	71	verb	list	1	12	nomatch	luc	-1	1	p	0.60835
690.2865999999999	0.0	LUC	71	verb	list	1	13	nomatch	luc	-1	1	p	0.60835
690.9531999999999	0.0	+	71	verb	list	1	14	nomatch	luc	-1	1	p	0.60835
690.8949	0.0	[response]	71	verb	list	1	15	nomatch	luc	-1	1	p	0.60835
692.6864	0.0	+	72	noun	phrase	2	1	match	grand	4	1	y	0.5907
693.2363	0.2	txhzj	72	noun	phrase	2	2	match	grand	4	1	y	0.5907
693.4363000000001	0.0	+	72	noun	phrase	2	3	match	grand	4	1	y	0.5907
693.8362999999999	0.2	scjw	72	noun	phrase	2	4	match	grand	4	1	y	0.5907
694.0362	0.0	+	72	noun	phrase	2	5	match	grand	4	1	y	0.5907
694.4362000000001	0.2	lgcv	72	noun	phrase	2	6	match	grand	4	1	y	0.5907
694.6361999999999	0.0	+	72	noun	phrase	2	7	match	grand	4	1	y	0.5907
695.0362	0.2	grand	72	noun	phrase	2	8	match	grand	4	1	y	0.5907
695.2361000000001	0.0	+	72	noun	phrase	2	9	match	grand	4	1	y	0.5907
695.6360999999999	0.2	tablier	72	noun	phrase	2	10	match	grand	4	1	y	0.5907
695.8361	0.0	+	72	noun	phrase	2	11	match	grand	4	1	y	0.5907
696.2360000000001	0.0	+	72	noun	phrase	2	12	match	grand	4	1	y	0.5907
698.2358999999999	0.0	GRAND	72	noun	phrase	2	13	match	grand	4	1	y	0.5907
698.8858	0.0	+	72	noun	phrase	2	14	match	grand	4	1	y	0.5907
698.8266000000001	0.0	[response]	72	noun	phrase	2	15	match	grand	4	1	y	0.5907
700.6356000000001	0.0	+	73	verb	list	4	1	nomatch	blanc	-1	1	p	0.86732
701.1856	0.2	rtswdz	73	verb	list	4	2	nomatch	blanc	-1	1	p	0.86732
701.3856000000001	0.0	+	73	verb	list	4	3	nomatch	blanc	-1	1	p	0.86732
701.7855	0.2	paul	73	verb	list	4	4	nomatch	blanc	-1	1	p	0.86732
701.9855	0.0	+	73	verb	list	4	5	nomatch	blanc	-1	1	p	0.86732
702.3855000000001	0.2	leur	73	verb	list	4	6	nomatch	blanc	-1	1	p	0.86732
702.5854999999999	0.0	+	73	verb	list	4	7	nomatch	blanc	-1	1	p	0.86732
702.9854	0.2	chasser	73	verb	list	4	8	nomatch	blanc	-1	1	p	0.86732
703.1854000000001	0.0	+	73	verb	list	4	9	nomatch	blanc	-1	1	p	0.86732
703.5853999999999	0.2	noir	73	verb	list	4	10	nomatch	blanc	-1	1	p	0.86732
703.7854	0.0	+	73	verb	list	4	11	nomatch	blanc	-1	1	p	0.86732
704.1853000000001	0.0	+	73	verb	list	4	12	nomatch	blanc	-1	1	p	0.86732
706.1850999999999	0.0	BLANC	73	verb	list	4	13	nomatch	blanc	-1	1	p	0.86732
707.1184000000001	0.0	+	73	verb	list	4	14	nomatch	blanc	-1	1	p	0.86732
707.0525	0.0	[response]	73	verb	list	4	15	nomatch	blanc	-1	1	p	0.86732
708.5849000000001	0.0	+	74	verb	phrase	3	1	match	trop	4	1	y	1.4651
709.1349	0.2	pqlmngj	74	verb	phrase	3	2	match	trop	4	1	y	1.4651
709.3349000000001	0.0	+	74	verb	phrase	3	3	match	trop	4	1	y	1.4651
709.7348	0.2	cvq	74	verb	phrase	3	4	match	trop	4	1	y	1.4651
709.9348	0.0	+	74	verb	phrase	3	5	match	trop	4	1	y	1.4651
710.3348000000001	0.2	va	74	verb	phrase	3	6	match	trop	4	1	y	1.4651
710.5347999999999	0.0	+	74	verb	phrase	3	7	match	trop	4	1	y	1.4651
710.9513999999999	0.2	trop	74	verb	phrase	3	8	match	trop	4	1	y	1.4651
711.1514	0.0	+	74	verb	phrase	3	9	match	trop	4	1	y	1.4651
711.5513000000001	0.2	plonger	74	verb	phrase	3	10	match	trop	4	1	y	1.4651
711.7512999999999	0.0	+	74	verb	phrase	3	11	match	trop	4	1	y	1.4651
712.1513	0.0	+	74	verb	phrase	3	12	match	trop	4	1	y	1.4651
714.1511	0.0	TROP	74	verb	phrase	3	13	match	trop	4	1	y	1.4651
715.6842999999999	0.0	+	74	verb	phrase	3	14	match	trop	4	1	y	1.4651
715.6161999999999	0.0	[response]	74	verb	phrase	3	15	match	trop	4	1	y	1.4651
716.5509	0.0	+	75	noun	phrase	1	1	match	clavier	5	1	y	1.0715000000000001
717.1007999999999	0.2	fmtknw	75	noun	phrase	1	2	match	clavier	5	1	y	1.0715000000000001
717.3008	0.0	+	75	noun	phrase	1	3	match	clavier	5	1	y	1.0715000000000001
717.7008000000001	0.2	wcbs	75	noun	phrase	1	4	match	clavier	5	1	y	1.0715000000000001
717.9007999999999	0.0	+	75	noun	phrase	1	5	match	clavier	5	1	y	1.0715000000000001
718.3007	0.2	lgcv	75	noun	phrase	1	6	match	clavier	5	1	y	1.0715000000000001
718.5007	0.0	+	75	noun	phrase	1	7	match	clavier	5	1	y	1.0715000000000001
718.9006999999999	0.2	ljhw	75	noun	phrase	1	8	match	clavier	5	1	y	1.0715000000000001
719.1006	0.0	+	75	noun	phrase	1	9	match	clavier	5	1	y	1.0715000000000001
719.5006000000001	0.2	clavier	75	noun	phrase	1	10	match	clavier	5	1	y	1.0715000000000001
719.7005999999999	0.0	+	75	noun	phrase	1	11	match	clavier	5	1	y	1.0715000000000001
720.1006	0.0	+	75	noun	phrase	1	12	match	clavier	5	1	y	1.0715000000000001
722.1004	0.0	CLAVIER	75	noun	phrase	1	13	match	clavier	5	1	y	1.0715000000000001
723.2336	0.0	+	75	noun	phrase	1	14	match	clavier	5	1	y	1.0715000000000001
723.1719	0.0	[response]	75	noun	phrase	1	15	match	clavier	5	1	y	1.0715000000000001
724.5002	0.0	+	76	verb	phrase	1	1	match	trop	5	1	y	1.2684
725.0500999999999	0.2	rnsj	76	verb	phrase	1	2	match	trop	5	1	y	1.2684
725.2501	0.0	+	76	verb	phrase	1	3	match	trop	5	1	y	1.2684
725.6501000000001	0.2	dmgj	76	verb	phrase	1	4	match	trop	5	1	y	1.2684
725.8499999999999	0.0	+	76	verb	phrase	1	5	match	trop	5	1	y	1.2684
726.25	0.2	tpgs	76	verb	phrase	1	6	match	trop	5	1	y	1.2684
726.45	0.0	+	76	verb	phrase	1	7	match	trop	5	1	y	1.2684
726.8498999999999	0.2	cghrq	76	verb	phrase	1	8	match	trop	5	1	y	1.2684
727.0499	0.0	+	76	verb	phrase	1	9	match	trop	5	1	y	1.2684
727.4499000000001	0.2	trop	76	verb	phrase	1	10	match	trop	5	1	y	1.2684
727.6498999999999	0.0	+	76	verb	phrase	1	11	match	trop	5	1	y	1.2684
728.0498	0.0	+	76	verb	phrase	1	12	match	trop	5	1	y	1.2684
730.0497	0.0	TROP	76	verb	phrase	1	13	match	trop	5	1	y	1.2684
731.3829000000001	0.0	+	76	verb	phrase	1	14	match	trop	5	1	y	1.2684
731.318	0.0	[response]	76	verb	phrase	1	15	match	trop	5	1	y	1.2684
732.4494	0.0	+	77	verb	list	3	1	nomatch	nouveau	-1	0	TIMEOUT	-1.0
732.9993999999999	0.2	swnfgjb	77	verb	list	3	2	nomatch	nouveau	-1	0	TIMEOUT	-1.0
733.1994	0.0	+	77	verb	list	3	3	nomatch	nouveau	-1	0	TIMEOUT	-1.0
733.5993000000001	0.2	mpdb	77	verb	list	3	4	nomatch	nouveau	-1	0	TIMEOUT	-1.0
733.7992999999999	0.0	+	77	verb	list	3	5	nomatch	nouveau	-1	0	TIMEOUT	-1.0
734.1993	0.2	mon	77	verb	list	3	6	nomatch	nouveau	-1	0	TIMEOUT	-1.0
734.3993	0.0	+	77	verb	list	3	7	nomatch	nouveau	-1	0	TIMEOUT	-1.0
734.7995000000001	0.2	parader	77	verb	list	3	8	nomatch	nouveau	-1	0	TIMEOUT	-1.0
734.9992	0.0	+	77	verb	list	3	9	nomatch	nouveau	-1	0	TIMEOUT	-1.0
735.3992000000001	0.2	bleu	77	verb	list	3	10	nomatch	nouveau	-1	0	TIMEOUT	-1.0
735.5992000000001	0.0	+	77	verb	list	3	11	nomatch	nouveau	-1	0	TIMEOUT	-1.0
735.9991	0.0	+	77	verb	list	3	12	nomatch	nouveau	-1	0	TIMEOUT	-1.0
737.9989	0.0	NOUVEAU	77	verb	list	3	13	nomatch	nouveau	-1	0	TIMEOUT	-1.0
740.3987	0.0	+	78	verb	phrase	2	1	nomatch	paul	-1	1	p	0.99957
740.9987000000001	0.2	svpjnmd	78	verb	phrase	2	2	nomatch	paul	-1	1	p	0.99957
741.1986999999999	0.0	+	78	verb	phrase	2	3	nomatch	paul	-1	1	p	0.99957
741.5986	0.2	rmkt	78	verb	phrase	2	4	nomatch	paul	-1	1	p	0.99957
741.7986000000001	0.0	+	78	verb	phrase	2	5	nomatch	paul	-1	1	p	0.99957
742.1985999999999	0.2	tpgs	78	verb	phrase	2	6	nomatch	paul	-1	1	p	0.99957
742.3985	0.0	+	78	verb	phrase	2	7	nomatch	paul	-1	1	p	0.99957
742.7985000000001	0.2	danser	78	verb	phrase	2	8	nomatch	paul	-1	1	p	0.99957
742.9984999999999	0.0	+	78	verb	phrase	2	9	nomatch	paul	-1	1	p	0.99957
743.3985	0.2	ainsi	78	verb	phrase	2	10	nomatch	paul	-1	1	p	0.99957
743.5984000000001	0.0	+	78	verb	phrase	2	11	nomatch	paul	-1	1	p	0.99957
743.9984	0.0	+	78	verb	phrase	2	12	nomatch	paul	-1	1	p	0.99957
745.9982	0.0	PAUL	78	verb	phrase	2	13	nomatch	paul	-1	1	p	0.99957
747.0648000000001	0.0	+	78	verb	phrase	2	14	nomatch	paul	-1	1	p	0.99957
746.9978000000001	0.0	[response]	78	verb	phrase	2	15	nomatch	paul	-1	1	p	0.99957
748.3979999999999	0.0	+	79	verb	phrase	2	1	match	galoper	4	1	y	0.97383
748.9480000000001	0.2	fmptjbw	79	verb	phrase	2	2	match	galoper	4	1	y	0.97383
749.1478999999999	0.0	+	79	verb	phrase	2	3	match	galoper	4	1	y	0.97383
749.5479	0.2	pxbj	79	verb	phrase	2	4	match	galoper	4	1	y	0.97383
749.7479000000001	0.0	+	79	verb	phrase	2	5	match	galoper	4	1	y	0.97383
750.1478	0.2	svhw	79	verb	phrase	2	6	match	galoper	4	1	y	0.97383
750.3478	0.0	+	79	verb	phrase	2	7	match	galoper	4	1	y	0.97383
750.7478000000001	0.2	galoper	79	verb	phrase	2	8	match	galoper	4	1	y	0.97383
750.9477999999999	0.0	+	79	verb	phrase	2	9	match	galoper	4	1	y	0.97383
751.3477	0.2	loin	79	verb	phrase	2	10	match	galoper	4	1	y	0.97383
751.5477000000001	0.0	+	79	verb	phrase	2	11	match	galoper	4	1	y	0.97383
751.9476999999999	0.0	+	79	verb	phrase	2	12	match	galoper	4	1	y	0.97383
753.9475	0.0	GALOPER	79	verb	phrase	2	13	match	galoper	4	1	y	0.97383
754.9807000000001	0.0	+	79	verb	phrase	2	14	match	galoper	4	1	y	0.97383
754.9213	0.0	[response]	79	verb	phrase	2	15	match	galoper	4	1	y	0.97383
756.3472999999999	0.0	+	80	verb	list	1	1	nomatch	vers	-1	0	y	0.82642
756.8972000000001	0.2	wmk	80	verb	list	1	2	nomatch	vers	-1	0	y	0.82642
757.0971999999999	0.0	+	80	verb	list	1	3	nomatch	vers	-1	0	y	0.82642
757.4972	0.2	qpnm	80	verb	list	1	4	nomatch	vers	-1	0	y	0.82642
757.6972000000001	0.0	+	80	verb	list	1	5	nomatch	vers	-1	0	y	0.82642
758.0971	0.2	cn	80	verb	list	1	6	nomatch	vers	-1	0	y	0.82642
758.2972	0.0	+	80	verb	list	1	7	nomatch	vers	-1	0	y	0.82642
758.6971000000001	0.2	xfsphc	80	verb	list	1	8	nomatch	vers	-1	0	y	0.82642
758.8970999999999	0.0	+	80	verb	list	1	9	nomatch	vers	-1	0	y	0.82642
759.297	0.2	petit	80	verb	list	1	10	nomatch	vers	-1	0	y	0.82642
759.4970000000001	0.0	+	80	verb	list	1	11	nomatch	vers	-1	0	y	0.82642
759.8969999999999	0.0	+	80	verb	list	1	12	nomatch	vers	-1	0	y	0.82642
761.8968	0.0	VERS	80	verb	list	1	13	nomatch	vers	-1	0	y	0.82642
762.78	0.0	+	80	verb	list	1	14	nomatch	vers	-1	0	y	0.82642
764.2965999999999	0.0	+	80	verb	list	1	15	nomatch	vers	-1	0	y	0.82642
765.0132000000001	0.0	+	80	verb	list	1	16	nomatch	vers	-1	0	y	0.82642
765.1132	0.0	+	80	verb	list	1	17	nomatch	vers	-1	0	y	0.82642
766.4964	0.0	+	80	verb	list	1	18	nomatch	vers	-1	0	y	0.82642
766.5963999999999	0.0	+	80	verb	list	1	19	nomatch	vers	-1	0	y	0.82642
768.0129	0.0	+	80	verb	list	1	20	nomatch	vers	-1	0	y	0.82642
768.1129000000001	0.0	+	80	verb	list	1	21	nomatch	vers	-1	0	y	0.82642
769.4961000000001	0.0	+	80	verb	list	1	22	nomatch	vers	-1	0	y	0.82642
769.5961	0.0	+	80	verb	list	1	23	nomatch	vers	-1	0	y	0.82642
771.0126	0.0	+	80	verb	list	1	24	nomatch	vers	-1	0	y	0.82642
771.1125999999999	0.0	+	80	verb	list	1	25	nomatch	vers	-1	0	y	0.82642
772.4957999999999	0.0	+	80	verb	list	1	26	nomatch	vers	-1	0	y	0.82642
772.5958	0.0	+	80	verb	list	1	27	nomatch	vers	-1	0	y	0.82642
774.0123000000001	0.0	+	80	verb	list	1	28	nomatch	vers	-1	0	y	0.82642
774.1123	0.0	+	80	verb	list	1	29	nomatch	vers	-1	0	y	0.82642
775.4955	0.0	+	80	verb	list	1	30	nomatch	vers	-1	0	y	0.82642
775.5954999999999	0.0	+	80	verb	list	1	31	nomatch	vers	-1	0	y	0.82642
777.0120999999999	0.0	+	80	verb	list	1	32	nomatch	vers	-1	0	y	0.82642
777.1121	0.0	+	80	verb	list	1	33	nomatch	vers	-1	0	y	0.82642
778.4953	0.0	+	80	verb	list	1	34	nomatch	vers	-1	0	y	0.82642
778.5953	0.0	+	80	verb	list	1	35	nomatch	vers	-1	0	y	0.82642
783.2282	0.0	+	80	verb	list	1	36	nomatch	vers	-1	0	y	0.82642
762.7231999999999	0.0	[response]	80	verb	list	1	37	nomatch	vers	-1	0	y	0.82642
