onset	duration	stim	trial_number	trial_type	trial_structure	trial_length	sequential_position	probe_type	probe	probe_position	response_correct	response_key	response_time
0.05939999999999657	0.0	+	1	noun	list	3	1	nomatch	grenier	-1	1	p	0.93367
0.5426999999999964	0.2	mtvxjwr	1	noun	list	3	2	nomatch	grenier	-1	1	p	0.93367
0.7426999999999992	0.0	+	1	noun	list	3	3	nomatch	grenier	-1	1	p	0.93367
1.1426999999999978	0.2	rmkt	1	noun	list	3	4	nomatch	grenier	-1	1	p	0.93367
1.3425999999999974	0.0	+	1	noun	list	3	5	nomatch	grenier	-1	1	p	0.93367
1.742599999999996	0.2	leur	1	noun	list	3	6	nomatch	grenier	-1	1	p	0.93367
1.9425999999999988	0.0	+	1	noun	list	3	7	nomatch	grenier	-1	1	p	0.93367
2.342500000000001	0.2	trop	1	noun	list	3	8	nomatch	grenier	-1	1	p	0.93367
2.542499999999997	0.0	+	1	noun	list	3	9	nomatch	grenier	-1	1	p	0.93367
2.9424999999999955	0.2	cendrier	1	noun	list	3	10	nomatch	grenier	-1	1	p	0.93367
3.1424999999999983	0.0	+	1	noun	list	3	11	nomatch	grenier	-1	1	p	0.93367
3.5424000000000007	0.0	+	1	noun	list	3	12	nomatch	grenier	-1	1	p	0.93367
5.542299999999997	0.0	GRENIER	1	noun	list	3	13	nomatch	grenier	-1	1	p	0.93367
6.542200000000001	0.0	+	1	noun	list	3	14	nomatch	grenier	-1	1	p	0.93367
6.475899999999996	0.0	[response]	1	noun	list	3	15	nomatch	grenier	-1	1	p	0.93367
7.942	0.0	+	2	verb	list	1	1	nomatch	grand	-1	1	p	0.7661400000000002
8.491999999999997	0.2	qgptdk	2	verb	list	1	2	nomatch	grand	-1	1	p	0.7661400000000002
8.692	0.0	+	2	verb	list	1	3	nomatch	grand	-1	1	p	0.7661400000000002
9.091899999999995	0.2	kszh	2	verb	list	1	4	nomatch	grand	-1	1	p	0.7661400000000002
9.291899999999998	0.0	+	2	verb	list	1	5	nomatch	grand	-1	1	p	0.7661400000000002
9.691899999999997	0.2	svhw	2	verb	list	1	6	nomatch	grand	-1	1	p	0.7661400000000002
9.8919	0.0	+	2	verb	list	1	7	nomatch	grand	-1	1	p	0.7661400000000002
10.291800000000002	0.2	mdbkqwz	2	verb	list	1	8	nomatch	grand	-1	1	p	0.7661400000000002
10.491799999999998	0.0	+	2	verb	list	1	9	nomatch	grand	-1	1	p	0.7661400000000002
10.891799999999996	0.2	vieux	2	verb	list	1	10	nomatch	grand	-1	1	p	0.7661400000000002
11.0918	0.0	+	2	verb	list	1	11	nomatch	grand	-1	1	p	0.7661400000000002
11.491700000000002	0.0	+	2	verb	list	1	12	nomatch	grand	-1	1	p	0.7661400000000002
13.491500000000002	0.0	GRAND	2	verb	list	1	13	nomatch	grand	-1	1	p	0.7661400000000002
14.324799999999996	0.0	+	2	verb	list	1	14	nomatch	grand	-1	1	p	0.7661400000000002
14.2577	0.0	[response]	2	verb	list	1	15	nomatch	grand	-1	1	p	0.7661400000000002
15.891300000000001	0.0	+	3	noun	list	2	1	match	tard	5	1	y	0.68471
16.4413	0.2	btcnm	3	noun	list	2	2	match	tard	5	1	y	0.68471
16.6413	0.0	+	3	noun	list	2	3	match	tard	5	1	y	0.68471
17.041200000000003	0.2	jkhs	3	noun	list	2	4	match	tard	5	1	y	0.68471
17.241199999999992	0.0	+	3	noun	list	2	5	match	tard	5	1	y	0.68471
17.641199999999998	0.2	cn	3	noun	list	2	6	match	tard	5	1	y	0.68471
17.8412	0.0	+	3	noun	list	2	7	match	tard	5	1	y	0.68471
18.241100000000003	0.2	clavier	3	noun	list	2	8	match	tard	5	1	y	0.68471
18.44109999999999	0.0	+	3	noun	list	2	9	match	tard	5	1	y	0.68471
18.841099999999997	0.2	tard	3	noun	list	2	10	match	tard	5	1	y	0.68471
19.040999999999997	0.0	+	3	noun	list	2	11	match	tard	5	1	y	0.68471
19.441000000000003	0.0	+	3	noun	list	2	12	match	tard	5	1	y	0.68471
21.440799999999996	0.0	TARD	3	noun	list	2	13	match	tard	5	1	y	0.68471
22.190799999999996	0.0	+	3	noun	list	2	14	match	tard	5	1	y	0.68471
22.125500000000002	0.0	[response]	3	noun	list	2	15	match	tard	5	1	y	0.68471
23.840599999999995	0.0	+	4	noun	phrase	2	1	nomatch	va	-1	1	p	1.4393
24.390599999999992	0.2	dqbwmnz	4	noun	phrase	2	2	nomatch	va	-1	1	p	1.4393
24.59049999999999	0.0	+	4	noun	phrase	2	3	nomatch	va	-1	1	p	1.4393
24.990499999999997	0.2	scjw	4	noun	phrase	2	4	nomatch	va	-1	1	p	1.4393
25.1905	0.0	+	4	noun	phrase	2	5	nomatch	va	-1	1	p	1.4393
25.59049999999999	0.2	lgcv	4	noun	phrase	2	6	nomatch	va	-1	1	p	1.4393
25.790400000000005	0.0	+	4	noun	phrase	2	7	nomatch	va	-1	1	p	1.4393
26.190399999999997	0.2	grand	4	noun	phrase	2	8	nomatch	va	-1	1	p	1.4393
26.3904	0.0	+	4	noun	phrase	2	9	nomatch	va	-1	1	p	1.4393
26.790300000000002	0.2	panier	4	noun	phrase	2	10	nomatch	va	-1	1	p	1.4393
26.990300000000005	0.0	+	4	noun	phrase	2	11	nomatch	va	-1	1	p	1.4393
27.390299999999996	0.0	+	4	noun	phrase	2	12	nomatch	va	-1	1	p	1.4393
29.390100000000004	0.0	VA	4	noun	phrase	2	13	nomatch	va	-1	1	p	1.4393
30.89	0.0	+	4	noun	phrase	2	14	nomatch	va	-1	1	p	1.4393
30.829399999999993	0.0	[response]	4	noun	phrase	2	15	nomatch	va	-1	1	p	1.4393
31.789900000000003	0.0	+	5	verb	phrase	4	1	nomatch	moins	-1	1	p	0.96987
32.3398	0.2	dhtxkw	5	verb	phrase	4	2	nomatch	moins	-1	1	p	0.96987
32.5398	0.0	+	5	verb	phrase	4	3	nomatch	moins	-1	1	p	0.96987
32.939800000000005	0.2	yves	5	verb	phrase	4	4	nomatch	moins	-1	1	p	0.96987
33.139799999999994	0.0	+	5	verb	phrase	4	5	nomatch	moins	-1	1	p	0.96987
33.539699999999996	0.2	peut	5	verb	phrase	4	6	nomatch	moins	-1	1	p	0.96987
33.7397	0.0	+	5	verb	phrase	4	7	nomatch	moins	-1	1	p	0.96987
34.139700000000005	0.2	plus	5	verb	phrase	4	8	nomatch	moins	-1	1	p	0.96987
34.33969999999999	0.0	+	5	verb	phrase	4	9	nomatch	moins	-1	1	p	0.96987
34.739599999999996	0.2	jongler	5	verb	phrase	4	10	nomatch	moins	-1	1	p	0.96987
34.9396	0.0	+	5	verb	phrase	4	11	nomatch	moins	-1	1	p	0.96987
35.339600000000004	0.0	+	5	verb	phrase	4	12	nomatch	moins	-1	1	p	0.96987
37.3394	0.0	MOINS	5	verb	phrase	4	13	nomatch	moins	-1	1	p	0.96987
38.372600000000006	0.0	+	5	verb	phrase	4	14	nomatch	moins	-1	1	p	0.96987
38.30929999999999	0.0	[response]	5	verb	phrase	4	15	nomatch	moins	-1	1	p	0.96987
39.7392	0.0	+	6	noun	list	4	1	match	adam	2	1	y	1.1702
40.289100000000005	0.2	jwsg	6	noun	list	4	2	match	adam	2	1	y	1.1702
40.48909999999999	0.0	+	6	noun	list	4	3	match	adam	2	1	y	1.1702
40.8891	0.2	adam	6	noun	list	4	4	match	adam	2	1	y	1.1702
41.0891	0.0	+	6	noun	list	4	5	match	adam	2	1	y	1.1702
41.489000000000004	0.2	son	6	noun	list	4	6	match	adam	2	1	y	1.1702
41.68899999999999	0.0	+	6	noun	list	4	7	match	adam	2	1	y	1.1702
42.089	0.2	trop	6	noun	list	4	8	match	adam	2	1	y	1.1702
42.2889	0.0	+	6	noun	list	4	9	match	adam	2	1	y	1.1702
42.689499999999995	0.2	grenier	6	noun	list	4	10	match	adam	2	1	y	1.1702
42.88889999999999	0.0	+	6	noun	list	4	11	match	adam	2	1	y	1.1702
43.2889	0.0	+	6	noun	list	4	12	match	adam	2	1	y	1.1702
45.28869999999999	0.0	ADAM	6	noun	list	4	13	match	adam	2	1	y	1.1702
46.5219	0.0	+	6	noun	list	4	14	match	adam	2	1	y	1.1702
46.4588	0.0	[response]	6	noun	list	4	15	match	adam	2	1	y	1.1702
47.688500000000005	0.0	+	7	noun	list	1	1	nomatch	tard	-1	1	p	1.1168
48.2384	0.2	ntwcbh	7	noun	list	1	2	nomatch	tard	-1	1	p	1.1168
48.4384	0.0	+	7	noun	list	1	3	nomatch	tard	-1	1	p	1.1168
48.83839999999999	0.2	scjw	7	noun	list	1	4	nomatch	tard	-1	1	p	1.1168
49.03829999999999	0.0	+	7	noun	list	1	5	nomatch	tard	-1	1	p	1.1168
49.4383	0.2	cn	7	noun	list	1	6	nomatch	tard	-1	1	p	1.1168
49.6383	0.0	+	7	noun	list	1	7	nomatch	tard	-1	1	p	1.1168
50.03829999999999	0.2	bxlqtjp	7	noun	list	1	8	nomatch	tard	-1	1	p	1.1168
50.23819999999999	0.0	+	7	noun	list	1	9	nomatch	tard	-1	1	p	1.1168
50.6382	0.2	vite	7	noun	list	1	10	nomatch	tard	-1	1	p	1.1168
50.8382	0.0	+	7	noun	list	1	11	nomatch	tard	-1	1	p	1.1168
51.2381	0.0	+	7	noun	list	1	12	nomatch	tard	-1	1	p	1.1168
53.238	0.0	TARD	7	noun	list	1	13	nomatch	tard	-1	1	p	1.1168
54.4212	0.0	+	7	noun	list	1	14	nomatch	tard	-1	1	p	1.1168
54.3548	0.0	[response]	7	noun	list	1	15	nomatch	tard	-1	1	p	1.1168
55.637699999999995	0.0	+	8	noun	list	4	1	nomatch	nager	-1	1	p	0.89328
56.18769999999999	0.2	mnv	8	noun	list	4	2	nomatch	nager	-1	1	p	0.89328
56.387699999999995	0.0	+	8	noun	list	4	3	nomatch	nager	-1	1	p	0.89328
56.7876	0.2	marc	8	noun	list	4	4	nomatch	nager	-1	1	p	0.89328
56.9876	0.0	+	8	noun	list	4	5	nomatch	nager	-1	1	p	0.89328
57.38759999999999	0.2	son	8	noun	list	4	6	nomatch	nager	-1	1	p	0.89328
57.587599999999995	0.0	+	8	noun	list	4	7	nomatch	nager	-1	1	p	0.89328
57.9875	0.2	moins	8	noun	list	4	8	nomatch	nager	-1	1	p	0.89328
58.1875	0.0	+	8	noun	list	4	9	nomatch	nager	-1	1	p	0.89328
58.58749999999999	0.2	clavier	8	noun	list	4	10	nomatch	nager	-1	1	p	0.89328
58.787499999999994	0.0	+	8	noun	list	4	11	nomatch	nager	-1	1	p	0.89328
59.1874	0.0	+	8	noun	list	4	12	nomatch	nager	-1	1	p	0.89328
61.187200000000004	0.0	NAGER	8	noun	list	4	13	nomatch	nager	-1	1	p	0.89328
62.13719999999999	0.0	+	8	noun	list	4	14	nomatch	nager	-1	1	p	0.89328
62.080500000000015	0.0	[response]	8	noun	list	4	15	nomatch	nager	-1	1	p	0.89328
63.587	0.0	+	9	noun	list	4	1	nomatch	loin	-1	1	p	1.1500000000000001
64.137	0.2	xjsb	9	noun	list	4	2	nomatch	loin	-1	1	p	1.1500000000000001
64.337	0.0	+	9	noun	list	4	3	nomatch	loin	-1	1	p	1.1500000000000001
64.73689999999999	0.2	dans	9	noun	list	4	4	nomatch	loin	-1	1	p	1.1500000000000001
64.9369	0.0	+	9	noun	list	4	5	nomatch	loin	-1	1	p	1.1500000000000001
65.3369	0.2	va	9	noun	list	4	6	nomatch	loin	-1	1	p	1.1500000000000001
65.5369	0.0	+	9	noun	list	4	7	nomatch	loin	-1	1	p	1.1500000000000001
65.9368	0.2	rocher	9	noun	list	4	8	nomatch	loin	-1	1	p	1.1500000000000001
66.1368	0.0	+	9	noun	list	4	9	nomatch	loin	-1	1	p	1.1500000000000001
66.5368	0.2	tard	9	noun	list	4	10	nomatch	loin	-1	1	p	1.1500000000000001
66.7367	0.0	+	9	noun	list	4	11	nomatch	loin	-1	1	p	1.1500000000000001
67.1367	0.0	+	9	noun	list	4	12	nomatch	loin	-1	1	p	1.1500000000000001
69.1365	0.0	LOIN	9	noun	list	4	13	nomatch	loin	-1	1	p	1.1500000000000001
70.3531	0.0	+	9	noun	list	4	14	nomatch	loin	-1	1	p	1.1500000000000001
70.2866	0.0	[response]	9	noun	list	4	15	nomatch	loin	-1	1	p	1.1500000000000001
71.5363	0.0	+	10	verb	list	2	1	nomatch	mieux	-1	1	p	1.0184
72.0863	0.2	npd	10	verb	list	2	2	nomatch	mieux	-1	1	p	1.0184
72.2862	0.0	+	10	verb	list	2	3	nomatch	mieux	-1	1	p	1.0184
72.6862	0.2	xmv	10	verb	list	2	4	nomatch	mieux	-1	1	p	1.0184
72.8862	0.0	+	10	verb	list	2	5	nomatch	mieux	-1	1	p	1.0184
73.2862	0.2	tpgs	10	verb	list	2	6	nomatch	mieux	-1	1	p	1.0184
73.4861	0.0	+	10	verb	list	2	7	nomatch	mieux	-1	1	p	1.0184
73.8861	0.2	nouveau	10	verb	list	2	8	nomatch	mieux	-1	1	p	1.0184
74.0861	0.0	+	10	verb	list	2	9	nomatch	mieux	-1	1	p	1.0184
74.486	0.2	galoper	10	verb	list	2	10	nomatch	mieux	-1	1	p	1.0184
74.68599999999999	0.0	+	10	verb	list	2	11	nomatch	mieux	-1	1	p	1.0184
75.086	0.0	+	10	verb	list	2	12	nomatch	mieux	-1	1	p	1.0184
77.08579999999999	0.0	MIEUX	10	verb	list	2	13	nomatch	mieux	-1	1	p	1.0184
78.169	0.0	+	10	verb	list	2	14	nomatch	mieux	-1	1	p	1.0184
78.10419999999999	0.0	[response]	10	verb	list	2	15	nomatch	mieux	-1	1	p	1.0184
79.4856	0.0	+	11	noun	phrase	1	1	match	grenier	5	1	y	0.74267
80.03559999999999	0.2	wrtclbv	11	noun	phrase	1	2	match	grenier	5	1	y	0.74267
80.2355	0.0	+	11	noun	phrase	1	3	match	grenier	5	1	y	0.74267
80.63550000000001	0.2	scjw	11	noun	phrase	1	4	match	grenier	5	1	y	0.74267
80.8355	0.0	+	11	noun	phrase	1	5	match	grenier	5	1	y	0.74267
81.2354	0.2	vft	11	noun	phrase	1	6	match	grenier	5	1	y	0.74267
81.43539999999999	0.0	+	11	noun	phrase	1	7	match	grenier	5	1	y	0.74267
81.83539999999999	0.2	fhrs	11	noun	phrase	1	8	match	grenier	5	1	y	0.74267
82.03540000000001	0.0	+	11	noun	phrase	1	9	match	grenier	5	1	y	0.74267
82.43530000000001	0.2	grenier	11	noun	phrase	1	10	match	grenier	5	1	y	0.74267
82.6353	0.0	+	11	noun	phrase	1	11	match	grenier	5	1	y	0.74267
83.0353	0.0	+	11	noun	phrase	1	12	match	grenier	5	1	y	0.74267
85.0351	0.0	GRENIER	11	noun	phrase	1	13	match	grenier	5	1	y	0.74267
85.83500000000001	0.0	+	11	noun	phrase	1	14	match	grenier	5	1	y	0.74267
85.77779999999998	0.0	[response]	11	noun	phrase	1	15	match	grenier	5	1	y	0.74267
87.4349	0.0	+	12	noun	list	1	1	match	ainsi	5	1	y	0.97877
87.98490000000001	0.2	hzp	12	noun	list	1	2	match	ainsi	5	1	y	0.97877
88.1849	0.0	+	12	noun	list	1	3	match	ainsi	5	1	y	0.97877
88.60140000000001	0.2	jkhs	12	noun	list	1	4	match	ainsi	5	1	y	0.97877
88.8014	0.0	+	12	noun	list	1	5	match	ainsi	5	1	y	0.97877
89.2014	0.2	cn	12	noun	list	1	6	match	ainsi	5	1	y	0.97877
89.4014	0.0	+	12	noun	list	1	7	match	ainsi	5	1	y	0.97877
89.8013	0.2	mzswnbq	12	noun	list	1	8	match	ainsi	5	1	y	0.97877
90.00129999999999	0.0	+	12	noun	list	1	9	match	ainsi	5	1	y	0.97877
90.40129999999999	0.2	ainsi	12	noun	list	1	10	match	ainsi	5	1	y	0.97877
90.60130000000001	0.0	+	12	noun	list	1	11	match	ainsi	5	1	y	0.97877
91.00120000000001	0.0	+	12	noun	list	1	12	match	ainsi	5	1	y	0.97877
93.001	0.0	AINSI	12	noun	list	1	13	match	ainsi	5	1	y	0.97877
94.0343	0.0	+	12	noun	list	1	14	match	ainsi	5	1	y	0.97877
93.97980000000001	0.0	[response]	12	noun	list	1	15	match	ainsi	5	1	y	0.97877
95.4008	0.0	+	13	noun	list	1	1	nomatch	grenier	-1	1	p	0.96169
95.95079999999999	0.2	hwrbm	13	noun	list	1	2	nomatch	grenier	-1	1	p	0.96169
96.1508	0.0	+	13	noun	list	1	3	nomatch	grenier	-1	1	p	0.96169
96.5507	0.2	rmkt	13	noun	list	1	4	nomatch	grenier	-1	1	p	0.96169
96.7507	0.0	+	13	noun	list	1	5	nomatch	grenier	-1	1	p	0.96169
97.1507	0.2	rbh	13	noun	list	1	6	nomatch	grenier	-1	1	p	0.96169
97.35069999999999	0.0	+	13	noun	list	1	7	nomatch	grenier	-1	1	p	0.96169
97.75059999999999	0.2	lqgn	13	noun	list	1	8	nomatch	grenier	-1	1	p	0.96169
97.95060000000001	0.0	+	13	noun	list	1	9	nomatch	grenier	-1	1	p	0.96169
98.35059999999999	0.2	voilier	13	noun	list	1	10	nomatch	grenier	-1	1	p	0.96169
98.5505	0.0	+	13	noun	list	1	11	nomatch	grenier	-1	1	p	0.96169
98.9505	0.0	+	13	noun	list	1	12	nomatch	grenier	-1	1	p	0.96169
100.9503	0.0	GRENIER	13	noun	list	1	13	nomatch	grenier	-1	1	p	0.96169
101.96690000000001	0.0	+	13	noun	list	1	14	nomatch	grenier	-1	1	p	0.96169
101.912	0.0	[response]	13	noun	list	1	15	nomatch	grenier	-1	1	p	0.96169
103.3501	0.0	+	14	verb	phrase	2	1	nomatch	chasser	-1	1	p	0.61239
103.90010000000001	0.2	mzc	14	verb	phrase	2	2	nomatch	chasser	-1	1	p	0.61239
104.1	0.0	+	14	verb	phrase	2	3	nomatch	chasser	-1	1	p	0.61239
104.5	0.2	wvln	14	verb	phrase	2	4	nomatch	chasser	-1	1	p	0.61239
104.69999999999999	0.0	+	14	verb	phrase	2	5	nomatch	chasser	-1	1	p	0.61239
105.1	0.2	svhw	14	verb	phrase	2	6	nomatch	chasser	-1	1	p	0.61239
105.29990000000001	0.0	+	14	verb	phrase	2	7	nomatch	chasser	-1	1	p	0.61239
105.69989999999999	0.2	parader	14	verb	phrase	2	8	nomatch	chasser	-1	1	p	0.61239
105.8999	0.0	+	14	verb	phrase	2	9	nomatch	chasser	-1	1	p	0.61239
106.2998	0.2	vite	14	verb	phrase	2	10	nomatch	chasser	-1	1	p	0.61239
106.4998	0.0	+	14	verb	phrase	2	11	nomatch	chasser	-1	1	p	0.61239
106.8998	0.0	+	14	verb	phrase	2	12	nomatch	chasser	-1	1	p	0.61239
108.89959999999999	0.0	CHASSER	14	verb	phrase	2	13	nomatch	chasser	-1	1	p	0.61239
109.56620000000001	0.0	+	14	verb	phrase	2	14	nomatch	chasser	-1	1	p	0.61239
109.512	0.0	[response]	14	verb	phrase	2	15	nomatch	chasser	-1	1	p	0.61239
111.29939999999999	0.0	+	15	noun	list	1	1	match	clavier	5	0	p	1.1045
111.8493	0.2	gwz	15	noun	list	1	2	match	clavier	5	0	p	1.1045
112.04929999999999	0.0	+	15	noun	list	1	3	match	clavier	5	0	p	1.1045
112.4493	0.2	vtwj	15	noun	list	1	4	match	clavier	5	0	p	1.1045
112.64930000000001	0.0	+	15	noun	list	1	5	match	clavier	5	0	p	1.1045
113.04919999999998	0.2	lgcv	15	noun	list	1	6	match	clavier	5	0	p	1.1045
113.2492	0.0	+	15	noun	list	1	7	match	clavier	5	0	p	1.1045
113.64920000000001	0.2	mkzvpfbs	15	noun	list	1	8	match	clavier	5	0	p	1.1045
113.8492	0.0	+	15	noun	list	1	9	match	clavier	5	0	p	1.1045
114.2491	0.2	clavier	15	noun	list	1	10	match	clavier	5	0	p	1.1045
114.44909999999999	0.0	+	15	noun	list	1	11	match	clavier	5	0	p	1.1045
114.84909999999999	0.0	+	15	noun	list	1	12	match	clavier	5	0	p	1.1045
116.84889999999999	0.0	CLAVIER	15	noun	list	1	13	match	clavier	5	0	p	1.1045
118.0154	0.0	+	15	noun	list	1	14	match	clavier	5	0	p	1.1045
117.95339999999999	0.0	[response]	15	noun	list	1	15	match	clavier	5	0	p	1.1045
119.24869999999999	0.0	+	16	noun	phrase	3	1	nomatch	mon	-1	1	p	1.2148
119.7986	0.2	kln	16	noun	phrase	3	2	nomatch	mon	-1	1	p	1.2148
119.99860000000001	0.0	+	16	noun	phrase	3	3	nomatch	mon	-1	1	p	1.2148
120.39859999999999	0.2	scjw	16	noun	phrase	3	4	nomatch	mon	-1	1	p	1.2148
120.5986	0.0	+	16	noun	phrase	3	5	nomatch	mon	-1	1	p	1.2148
120.9985	0.2	leur	16	noun	phrase	3	6	nomatch	mon	-1	1	p	1.2148
121.1985	0.0	+	16	noun	phrase	3	7	nomatch	mon	-1	1	p	1.2148
121.5985	0.2	grand	16	noun	phrase	3	8	nomatch	mon	-1	1	p	1.2148
121.79839999999999	0.0	+	16	noun	phrase	3	9	nomatch	mon	-1	1	p	1.2148
122.19839999999999	0.2	panier	16	noun	phrase	3	10	nomatch	mon	-1	1	p	1.2148
122.39840000000001	0.0	+	16	noun	phrase	3	11	nomatch	mon	-1	1	p	1.2148
122.79839999999999	0.0	+	16	noun	phrase	3	12	nomatch	mon	-1	1	p	1.2148
124.79820000000001	0.0	MON	16	noun	phrase	3	13	nomatch	mon	-1	1	p	1.2148
126.0814	0.0	+	16	noun	phrase	3	14	nomatch	mon	-1	1	p	1.2148
126.01290000000003	0.0	[response]	16	noun	phrase	3	15	nomatch	mon	-1	1	p	1.2148
127.19800000000001	0.0	+	17	verb	phrase	3	1	match	tôt	5	1	y	0.89152
127.74789999999999	0.2	mbgdlfr	17	verb	phrase	3	2	match	tôt	5	1	y	0.89152
127.9479	0.0	+	17	verb	phrase	3	3	match	tôt	5	1	y	0.89152
128.3479	0.2	rmkt	17	verb	phrase	3	4	match	tôt	5	1	y	0.89152
128.5478	0.0	+	17	verb	phrase	3	5	match	tôt	5	1	y	0.89152
128.9478	0.2	peut	17	verb	phrase	3	6	match	tôt	5	1	y	0.89152
129.1478	0.0	+	17	verb	phrase	3	7	match	tôt	5	1	y	0.89152
129.5478	0.2	jongler	17	verb	phrase	3	8	match	tôt	5	1	y	0.89152
129.7477	0.0	+	17	verb	phrase	3	9	match	tôt	5	1	y	0.89152
130.1477	0.2	tôt	17	verb	phrase	3	10	match	tôt	5	1	y	0.89152
130.3477	0.0	+	17	verb	phrase	3	11	match	tôt	5	1	y	0.89152
130.7476	0.0	+	17	verb	phrase	3	12	match	tôt	5	1	y	0.89152
132.7475	0.0	TÔT	17	verb	phrase	3	13	match	tôt	5	1	y	0.89152
133.6974	0.0	+	17	verb	phrase	3	14	match	tôt	5	1	y	0.89152
133.63900000000004	0.0	[response]	17	verb	phrase	3	15	match	tôt	5	1	y	0.89152
135.1472	0.0	+	18	verb	list	1	1	match	chasser	5	1	y	0.60775
135.6972	0.2	ndjfrxq	18	verb	list	1	2	match	chasser	5	1	y	0.60775
135.8972	0.0	+	18	verb	list	1	3	match	chasser	5	1	y	0.60775
136.2971	0.2	qpnm	18	verb	list	1	4	match	chasser	5	1	y	0.60775
136.4971	0.0	+	18	verb	list	1	5	match	chasser	5	1	y	0.60775
136.8971	0.2	tpgs	18	verb	list	1	6	match	chasser	5	1	y	0.60775
137.0971	0.0	+	18	verb	list	1	7	match	chasser	5	1	y	0.60775
137.49699999999999	0.2	hkngm	18	verb	list	1	8	match	chasser	5	1	y	0.60775
137.697	0.0	+	18	verb	list	1	9	match	chasser	5	1	y	0.60775
138.097	0.2	chasser	18	verb	list	1	10	match	chasser	5	1	y	0.60775
138.297	0.0	+	18	verb	list	1	11	match	chasser	5	1	y	0.60775
138.6969	0.0	+	18	verb	list	1	12	match	chasser	5	1	y	0.60775
140.6967	0.0	CHASSER	18	verb	list	1	13	match	chasser	5	1	y	0.60775
141.3633	0.0	+	18	verb	list	1	14	match	chasser	5	1	y	0.60775
141.3045	0.0	[response]	18	verb	list	1	15	match	chasser	5	1	y	0.60775
143.0965	0.0	+	19	noun	list	1	1	nomatch	panier	-1	1	p	1.6826
143.6465	0.2	rds	19	noun	list	1	2	nomatch	panier	-1	1	p	1.6826
143.8465	0.0	+	19	noun	list	1	3	nomatch	panier	-1	1	p	1.6826
144.2464	0.2	scjw	19	noun	list	1	4	nomatch	panier	-1	1	p	1.6826
144.4464	0.0	+	19	noun	list	1	5	nomatch	panier	-1	1	p	1.6826
144.8464	0.2	cn	19	noun	list	1	6	nomatch	panier	-1	1	p	1.6826
145.04749999999999	0.0	+	19	noun	list	1	7	nomatch	panier	-1	1	p	1.6826
145.4463	0.2	kjtlc	19	noun	list	1	8	nomatch	panier	-1	1	p	1.6826
145.6463	0.0	+	19	noun	list	1	9	nomatch	panier	-1	1	p	1.6826
146.0463	0.2	rocher	19	noun	list	1	10	nomatch	panier	-1	1	p	1.6826
146.2462	0.0	+	19	noun	list	1	11	nomatch	panier	-1	1	p	1.6826
146.6462	0.0	+	19	noun	list	1	12	nomatch	panier	-1	1	p	1.6826
148.646	0.0	PANIER	19	noun	list	1	13	nomatch	panier	-1	1	p	1.6826
150.3959	0.0	+	19	noun	list	1	14	nomatch	panier	-1	1	p	1.6826
150.3286	0.0	[response]	19	noun	list	1	15	nomatch	panier	-1	1	p	1.6826
159.0463	0.0	+	20	noun	list	3	1	match	tard	5	1	y	1.0878
159.595	0.2	tfqhs	20	noun	list	3	2	match	tard	5	1	y	1.0878
159.795	0.0	+	20	noun	list	3	3	match	tard	5	1	y	1.0878
160.195	0.2	xrfg	20	noun	list	3	4	match	tard	5	1	y	1.0878
160.395	0.0	+	20	noun	list	3	5	match	tard	5	1	y	1.0878
160.7949	0.2	va	20	noun	list	3	6	match	tard	5	1	y	1.0878
160.9949	0.0	+	20	noun	list	3	7	match	tard	5	1	y	1.0878
161.3949	0.2	cendrier	20	noun	list	3	8	match	tard	5	1	y	1.0878
161.5949	0.0	+	20	noun	list	3	9	match	tard	5	1	y	1.0878
161.9948	0.2	tard	20	noun	list	3	10	match	tard	5	1	y	1.0878
162.1948	0.0	+	20	noun	list	3	11	match	tard	5	1	y	1.0878
162.5948	0.0	+	20	noun	list	3	12	match	tard	5	1	y	1.0878
164.59459999999999	0.0	TARD	20	noun	list	3	13	match	tard	5	1	y	1.0878
165.7445	0.0	+	20	noun	list	3	14	match	tard	5	1	y	1.0878
165.6824	0.0	[response]	20	noun	list	3	15	match	tard	5	1	y	1.0878
182.9929	0.0	+	21	noun	list	2	1	match	vite	5	1	y	0.8591300000000001
183.5429	0.2	ngr	21	noun	list	2	2	match	vite	5	1	y	0.8591300000000001
183.7429	0.0	+	21	noun	list	2	3	match	vite	5	1	y	0.8591300000000001
184.1428	0.2	jkhs	21	noun	list	2	4	match	vite	5	1	y	0.8591300000000001
184.3428	0.0	+	21	noun	list	2	5	match	vite	5	1	y	0.8591300000000001
184.7428	0.2	cn	21	noun	list	2	6	match	vite	5	1	y	0.8591300000000001
184.9428	0.0	+	21	noun	list	2	7	match	vite	5	1	y	0.8591300000000001
185.3427	0.2	rocher	21	noun	list	2	8	match	vite	5	1	y	0.8591300000000001
185.5427	0.0	+	21	noun	list	2	9	match	vite	5	1	y	0.8591300000000001
185.9427	0.2	vite	21	noun	list	2	10	match	vite	5	1	y	0.8591300000000001
186.1426	0.0	+	21	noun	list	2	11	match	vite	5	1	y	0.8591300000000001
186.5426	0.0	+	21	noun	list	2	12	match	vite	5	1	y	0.8591300000000001
188.5424	0.0	VITE	21	noun	list	2	13	match	vite	5	1	y	0.8591300000000001
189.459	0.0	+	21	noun	list	2	14	match	vite	5	1	y	0.8591300000000001
189.4016	0.0	[response]	21	noun	list	2	15	match	vite	5	1	y	0.8591300000000001
198.9415	0.0	+	22	noun	list	4	1	nomatch	avec	-1	0	TIMEOUT	-1.0
199.4914	0.2	hxlndq	22	noun	list	4	2	nomatch	avec	-1	0	TIMEOUT	-1.0
199.6914	0.0	+	22	noun	list	4	3	nomatch	avec	-1	0	TIMEOUT	-1.0
200.0914	0.2	pour	22	noun	list	4	4	nomatch	avec	-1	0	TIMEOUT	-1.0
200.2914	0.0	+	22	noun	list	4	5	nomatch	avec	-1	0	TIMEOUT	-1.0
200.6913	0.2	va	22	noun	list	4	6	nomatch	avec	-1	0	TIMEOUT	-1.0
200.8913	0.0	+	22	noun	list	4	7	nomatch	avec	-1	0	TIMEOUT	-1.0
201.2913	0.2	clavier	22	noun	list	4	8	nomatch	avec	-1	0	TIMEOUT	-1.0
201.4913	0.0	+	22	noun	list	4	9	nomatch	avec	-1	0	TIMEOUT	-1.0
201.8912	0.2	ainsi	22	noun	list	4	10	nomatch	avec	-1	0	TIMEOUT	-1.0
202.0912	0.0	+	22	noun	list	4	11	nomatch	avec	-1	0	TIMEOUT	-1.0
202.4912	0.0	+	22	noun	list	4	12	nomatch	avec	-1	0	TIMEOUT	-1.0
204.49099999999999	0.0	AVEC	22	noun	list	4	13	nomatch	avec	-1	0	TIMEOUT	-1.0
206.9074	0.0	+	23	noun	list	3	1	nomatch	son	-1	1	p	0.65294
207.4907	0.2	rhdpc	23	noun	list	3	2	nomatch	son	-1	1	p	0.65294
207.6907	0.0	+	23	noun	list	3	3	nomatch	son	-1	1	p	0.65294
208.09070000000003	0.2	xrfg	23	noun	list	3	4	nomatch	son	-1	1	p	0.65294
208.29059999999998	0.0	+	23	noun	list	3	5	nomatch	son	-1	1	p	0.65294
208.69060000000002	0.2	peut	23	noun	list	3	6	nomatch	son	-1	1	p	0.65294
208.8906	0.0	+	23	noun	list	3	7	nomatch	son	-1	1	p	0.65294
209.29059999999998	0.2	grenier	23	noun	list	3	8	nomatch	son	-1	1	p	0.65294
209.4905	0.0	+	23	noun	list	3	9	nomatch	son	-1	1	p	0.65294
209.89049999999997	0.2	tôt	23	noun	list	3	10	nomatch	son	-1	1	p	0.65294
210.09050000000002	0.0	+	23	noun	list	3	11	nomatch	son	-1	1	p	0.65294
210.49040000000002	0.0	+	23	noun	list	3	12	nomatch	son	-1	1	p	0.65294
212.4903	0.0	SON	23	noun	list	3	13	nomatch	son	-1	1	p	0.65294
213.20690000000002	0.0	+	23	noun	list	3	14	nomatch	son	-1	1	p	0.65294
213.14319999999998	0.0	[response]	23	noun	list	3	15	nomatch	son	-1	1	p	0.65294
214.89	0.0	+	24	noun	phrase	1	1	match	nouveau	5	1	y	0.5435400000000001
215.44	0.2	kqjz	24	noun	phrase	1	2	match	nouveau	5	1	y	0.5435400000000001
215.64	0.0	+	24	noun	phrase	1	3	match	nouveau	5	1	y	0.5435400000000001
216.0399	0.2	wcbs	24	noun	phrase	1	4	match	nouveau	5	1	y	0.5435400000000001
216.23989999999998	0.0	+	24	noun	phrase	1	5	match	nouveau	5	1	y	0.5435400000000001
216.6399	0.2	vft	24	noun	phrase	1	6	match	nouveau	5	1	y	0.5435400000000001
216.8399	0.0	+	24	noun	phrase	1	7	match	nouveau	5	1	y	0.5435400000000001
217.2398	0.2	qvjpbr	24	noun	phrase	1	8	match	nouveau	5	1	y	0.5435400000000001
217.4398	0.0	+	24	noun	phrase	1	9	match	nouveau	5	1	y	0.5435400000000001
217.83980000000003	0.2	nouveau	24	noun	phrase	1	10	match	nouveau	5	1	y	0.5435400000000001
218.0398	0.0	+	24	noun	phrase	1	11	match	nouveau	5	1	y	0.5435400000000001
218.43970000000002	0.0	+	24	noun	phrase	1	12	match	nouveau	5	1	y	0.5435400000000001
220.4395	0.0	NOUVEAU	24	noun	phrase	1	13	match	nouveau	5	1	y	0.5435400000000001
221.03949999999998	0.0	+	24	noun	phrase	1	14	match	nouveau	5	1	y	0.5435400000000001
220.98309999999998	0.0	[response]	24	noun	phrase	1	15	match	nouveau	5	1	y	0.5435400000000001
238.8379	0.0	+	25	noun	phrase	1	1	nomatch	paul	-1	1	p	1.0181
239.38779999999997	0.2	dgvzjr	25	noun	phrase	1	2	nomatch	paul	-1	1	p	1.0181
239.58780000000002	0.0	+	25	noun	phrase	1	3	nomatch	paul	-1	1	p	1.0181
239.9878	0.2	kszh	25	noun	phrase	1	4	nomatch	paul	-1	1	p	1.0181
240.18779999999998	0.0	+	25	noun	phrase	1	5	nomatch	paul	-1	1	p	1.0181
240.58769999999998	0.2	rbh	25	noun	phrase	1	6	nomatch	paul	-1	1	p	1.0181
240.78769999999997	0.0	+	25	noun	phrase	1	7	nomatch	paul	-1	1	p	1.0181
241.1877	0.2	hkngm	25	noun	phrase	1	8	nomatch	paul	-1	1	p	1.0181
241.3877	0.0	+	25	noun	phrase	1	9	nomatch	paul	-1	1	p	1.0181
241.7876	0.2	casier	25	noun	phrase	1	10	nomatch	paul	-1	1	p	1.0181
241.9876	0.0	+	25	noun	phrase	1	11	nomatch	paul	-1	1	p	1.0181
242.38760000000002	0.0	+	25	noun	phrase	1	12	nomatch	paul	-1	1	p	1.0181
244.3874	0.0	PAUL	25	noun	phrase	1	13	nomatch	paul	-1	1	p	1.0181
245.4706	0.0	+	25	noun	phrase	1	14	nomatch	paul	-1	1	p	1.0181
245.40550000000002	0.0	[response]	25	noun	phrase	1	15	nomatch	paul	-1	1	p	1.0181
246.78719999999998	0.0	+	26	noun	phrase	1	1	match	rouge	5	0	p	1.9077000000000002
247.33710000000002	0.2	dtwbhc	26	noun	phrase	1	2	match	rouge	5	0	p	1.9077000000000002
247.5371	0.0	+	26	noun	phrase	1	3	match	rouge	5	0	p	1.9077000000000002
247.9371	0.2	jkhs	26	noun	phrase	1	4	match	rouge	5	0	p	1.9077000000000002
248.137	0.0	+	26	noun	phrase	1	5	match	rouge	5	0	p	1.9077000000000002
248.53699999999998	0.2	lgcv	26	noun	phrase	1	6	match	rouge	5	0	p	1.9077000000000002
248.73700000000002	0.0	+	26	noun	phrase	1	7	match	rouge	5	0	p	1.9077000000000002
249.137	0.2	vgpdrm	26	noun	phrase	1	8	match	rouge	5	0	p	1.9077000000000002
249.3369	0.0	+	26	noun	phrase	1	9	match	rouge	5	0	p	1.9077000000000002
249.7369	0.2	rouge	26	noun	phrase	1	10	match	rouge	5	0	p	1.9077000000000002
249.93689999999998	0.0	+	26	noun	phrase	1	11	match	rouge	5	0	p	1.9077000000000002
250.33679999999998	0.0	+	26	noun	phrase	1	12	match	rouge	5	0	p	1.9077000000000002
252.3367	0.0	ROUGE	26	noun	phrase	1	13	match	rouge	5	0	p	1.9077000000000002
254.30309999999997	0.0	+	26	noun	phrase	1	14	match	rouge	5	0	p	1.9077000000000002
254.24439999999998	0.0	[response]	26	noun	phrase	1	15	match	rouge	5	0	p	1.9077000000000002
254.7364	0.0	+	27	noun	phrase	4	1	match	leur	3	1	y	0.7858100000000001
255.28640000000001	0.2	xdcqg	27	noun	phrase	4	2	match	leur	3	1	y	0.7858100000000001
255.4864	0.0	+	27	noun	phrase	4	3	match	leur	3	1	y	0.7858100000000001
255.8863	0.2	sans	27	noun	phrase	4	4	match	leur	3	1	y	0.7858100000000001
256.0863	0.0	+	27	noun	phrase	4	5	match	leur	3	1	y	0.7858100000000001
256.48629999999997	0.2	leur	27	noun	phrase	4	6	match	leur	3	1	y	0.7858100000000001
256.6863	0.0	+	27	noun	phrase	4	7	match	leur	3	1	y	0.7858100000000001
257.0862	0.2	grenier	27	noun	phrase	4	8	match	leur	3	1	y	0.7858100000000001
257.2862	0.0	+	27	noun	phrase	4	9	match	leur	3	1	y	0.7858100000000001
257.6862	0.2	bleu	27	noun	phrase	4	10	match	leur	3	1	y	0.7858100000000001
257.8862	0.0	+	27	noun	phrase	4	11	match	leur	3	1	y	0.7858100000000001
258.2861	0.0	+	27	noun	phrase	4	12	match	leur	3	1	y	0.7858100000000001
260.2859	0.0	LEUR	27	noun	phrase	4	13	match	leur	3	1	y	0.7858100000000001
261.1359	0.0	+	27	noun	phrase	4	14	match	leur	3	1	y	0.7858100000000001
261.0718	0.0	[response]	27	noun	phrase	4	15	match	leur	3	1	y	0.7858100000000001
262.6857	0.0	+	28	verb	phrase	1	1	nomatch	plus	-1	1	p	0.71105
263.2357	0.2	xqrbnm	28	verb	phrase	1	2	nomatch	plus	-1	1	p	0.71105
263.4357	0.0	+	28	verb	phrase	1	3	nomatch	plus	-1	1	p	0.71105
263.8356	0.2	mpdb	28	verb	phrase	1	4	nomatch	plus	-1	1	p	0.71105
264.0356	0.0	+	28	verb	phrase	1	5	nomatch	plus	-1	1	p	0.71105
264.4356	0.2	cn	28	verb	phrase	1	6	nomatch	plus	-1	1	p	0.71105
264.6356	0.0	+	28	verb	phrase	1	7	nomatch	plus	-1	1	p	0.71105
265.0355	0.2	xfsphc	28	verb	phrase	1	8	nomatch	plus	-1	1	p	0.71105
265.2355	0.0	+	28	verb	phrase	1	9	nomatch	plus	-1	1	p	0.71105
265.6355	0.2	trop	28	verb	phrase	1	10	nomatch	plus	-1	1	p	0.71105
265.8354	0.0	+	28	verb	phrase	1	11	nomatch	plus	-1	1	p	0.71105
266.2354	0.0	+	28	verb	phrase	1	12	nomatch	plus	-1	1	p	0.71105
268.2352	0.0	PLUS	28	verb	phrase	1	13	nomatch	plus	-1	1	p	0.71105
269.0018	0.0	+	28	verb	phrase	1	14	nomatch	plus	-1	1	p	0.71105
268.9463	0.0	[response]	28	verb	phrase	1	15	nomatch	plus	-1	1	p	0.71105
270.635	0.0	+	29	noun	phrase	2	1	match	nouveau	4	1	y	0.88657
271.185	0.2	sfqpzr	29	noun	phrase	2	2	match	nouveau	4	1	y	0.88657
271.3849	0.0	+	29	noun	phrase	2	3	match	nouveau	4	1	y	0.88657
271.7849	0.2	xrfg	29	noun	phrase	2	4	match	nouveau	4	1	y	0.88657
271.9849	0.0	+	29	noun	phrase	2	5	match	nouveau	4	1	y	0.88657
272.3849	0.2	vft	29	noun	phrase	2	6	match	nouveau	4	1	y	0.88657
272.5849	0.0	+	29	noun	phrase	2	7	match	nouveau	4	1	y	0.88657
272.9849	0.2	nouveau	29	noun	phrase	2	8	match	nouveau	4	1	y	0.88657
273.2014	0.0	+	29	noun	phrase	2	9	match	nouveau	4	1	y	0.88657
273.6014	0.2	grenier	29	noun	phrase	2	10	match	nouveau	4	1	y	0.88657
273.8014	0.0	+	29	noun	phrase	2	11	match	nouveau	4	1	y	0.88657
274.2014	0.0	+	29	noun	phrase	2	12	match	nouveau	4	1	y	0.88657
276.2012	0.0	NOUVEAU	29	noun	phrase	2	13	match	nouveau	4	1	y	0.88657
277.1511	0.0	+	29	noun	phrase	2	14	match	nouveau	4	1	y	0.88657
277.0878	0.0	[response]	29	noun	phrase	2	15	match	nouveau	4	1	y	0.88657
294.5995	0.0	+	30	verb	phrase	1	1	match	plonger	5	1	y	0.62428
295.1495	0.2	ltdzn	30	verb	phrase	1	2	match	plonger	5	1	y	0.62428
295.3494	0.0	+	30	verb	phrase	1	3	match	plonger	5	1	y	0.62428
295.7494	0.2	vtwj	30	verb	phrase	1	4	match	plonger	5	1	y	0.62428
295.9494	0.0	+	30	verb	phrase	1	5	match	plonger	5	1	y	0.62428
296.3494	0.2	tpgs	30	verb	phrase	1	6	match	plonger	5	1	y	0.62428
296.5493	0.0	+	30	verb	phrase	1	7	match	plonger	5	1	y	0.62428
296.9493	0.2	npkx	30	verb	phrase	1	8	match	plonger	5	1	y	0.62428
297.1493	0.0	+	30	verb	phrase	1	9	match	plonger	5	1	y	0.62428
297.5492	0.2	plonger	30	verb	phrase	1	10	match	plonger	5	1	y	0.62428
297.7492	0.0	+	30	verb	phrase	1	11	match	plonger	5	1	y	0.62428
298.1492	0.0	+	30	verb	phrase	1	12	match	plonger	5	1	y	0.62428
300.149	0.0	PLONGER	30	verb	phrase	1	13	match	plonger	5	1	y	0.62428
300.8323	0.0	+	30	verb	phrase	1	14	match	plonger	5	1	y	0.62428
300.7733	0.0	[response]	30	verb	phrase	1	15	match	plonger	5	1	y	0.62428
302.54879999999997	0.0	+	31	noun	list	3	1	match	ainsi	5	1	y	0.96277
303.0987	0.2	xrvcng	31	noun	list	3	2	match	ainsi	5	1	y	0.96277
303.2987	0.0	+	31	noun	list	3	3	match	ainsi	5	1	y	0.96277
303.6987	0.2	xmv	31	noun	list	3	4	match	ainsi	5	1	y	0.96277
303.8987	0.0	+	31	noun	list	3	5	match	ainsi	5	1	y	0.96277
304.2986	0.2	va	31	noun	list	3	6	match	ainsi	5	1	y	0.96277
304.4986	0.0	+	31	noun	list	3	7	match	ainsi	5	1	y	0.96277
304.8986	0.2	panier	31	noun	list	3	8	match	ainsi	5	1	y	0.96277
305.0986	0.0	+	31	noun	list	3	9	match	ainsi	5	1	y	0.96277
305.4985	0.2	ainsi	31	noun	list	3	10	match	ainsi	5	1	y	0.96277
305.6985	0.0	+	31	noun	list	3	11	match	ainsi	5	1	y	0.96277
306.0985	0.0	+	31	noun	list	3	12	match	ainsi	5	1	y	0.96277
308.0983	0.0	AINSI	31	noun	list	3	13	match	ainsi	5	1	y	0.96277
309.1315	0.0	+	31	noun	list	3	14	match	ainsi	5	1	y	0.96277
309.0611	0.0	[response]	31	noun	list	3	15	match	ainsi	5	1	y	0.96277
310.4981	0.0	+	32	noun	phrase	1	1	match	blanc	5	1	y	0.46908
311.048	0.2	hgdjxm	32	noun	phrase	1	2	match	blanc	5	1	y	0.46908
311.248	0.0	+	32	noun	phrase	1	3	match	blanc	5	1	y	0.46908
311.648	0.2	wcbs	32	noun	phrase	1	4	match	blanc	5	1	y	0.46908
311.848	0.0	+	32	noun	phrase	1	5	match	blanc	5	1	y	0.46908
312.2479	0.2	vft	32	noun	phrase	1	6	match	blanc	5	1	y	0.46908
312.4479	0.0	+	32	noun	phrase	1	7	match	blanc	5	1	y	0.46908
312.8479	0.2	mzswnbq	32	noun	phrase	1	8	match	blanc	5	1	y	0.46908
313.049	0.0	+	32	noun	phrase	1	9	match	blanc	5	1	y	0.46908
313.4478	0.2	blanc	32	noun	phrase	1	10	match	blanc	5	1	y	0.46908
313.6478	0.0	+	32	noun	phrase	1	11	match	blanc	5	1	y	0.46908
314.0478	0.0	+	32	noun	phrase	1	12	match	blanc	5	1	y	0.46908
316.0476	0.0	BLANC	32	noun	phrase	1	13	match	blanc	5	1	y	0.46908
316.5809	0.0	+	32	noun	phrase	1	14	match	blanc	5	1	y	0.46908
316.5167	0.0	[response]	32	noun	phrase	1	15	match	blanc	5	1	y	0.46908
326.4466	0.0	+	33	noun	phrase	4	1	nomatch	mon	-1	1	p	1.6967
326.9966	0.2	glzxjq	33	noun	phrase	4	2	nomatch	mon	-1	1	p	1.6967
327.1966	0.0	+	33	noun	phrase	4	3	nomatch	mon	-1	1	p	1.6967
327.5965	0.2	avec	33	noun	phrase	4	4	nomatch	mon	-1	1	p	1.6967
327.7965	0.0	+	33	noun	phrase	4	5	nomatch	mon	-1	1	p	1.6967
328.1965	0.2	leur	33	noun	phrase	4	6	nomatch	mon	-1	1	p	1.6967
328.3965	0.0	+	33	noun	phrase	4	7	nomatch	mon	-1	1	p	1.6967
328.7964	0.2	petit	33	noun	phrase	4	8	nomatch	mon	-1	1	p	1.6967
328.9964	0.0	+	33	noun	phrase	4	9	nomatch	mon	-1	1	p	1.6967
329.39639999999997	0.2	voilier	33	noun	phrase	4	10	nomatch	mon	-1	1	p	1.6967
329.5964	0.0	+	33	noun	phrase	4	11	nomatch	mon	-1	1	p	1.6967
329.9963	0.0	+	33	noun	phrase	4	12	nomatch	mon	-1	1	p	1.6967
331.9961	0.0	MON	33	noun	phrase	4	13	nomatch	mon	-1	1	p	1.6967
333.7626	0.0	+	33	noun	phrase	4	14	nomatch	mon	-1	1	p	1.6967
333.6928	0.0	[response]	33	noun	phrase	4	15	nomatch	mon	-1	1	p	1.6967
334.3959	0.0	+	34	noun	list	2	1	match	grenier	4	1	y	0.60885
334.9459	0.2	fxnmwjt	34	noun	list	2	2	match	grenier	4	1	y	0.60885
335.1458	0.0	+	34	noun	list	2	3	match	grenier	4	1	y	0.60885
335.5458	0.2	xrfg	34	noun	list	2	4	match	grenier	4	1	y	0.60885
335.7458	0.0	+	34	noun	list	2	5	match	grenier	4	1	y	0.60885
336.1458	0.2	svhw	34	noun	list	2	6	match	grenier	4	1	y	0.60885
336.3457	0.0	+	34	noun	list	2	7	match	grenier	4	1	y	0.60885
336.7457	0.2	grenier	34	noun	list	2	8	match	grenier	4	1	y	0.60885
336.9457	0.0	+	34	noun	list	2	9	match	grenier	4	1	y	0.60885
337.3457	0.2	tôt	34	noun	list	2	10	match	grenier	4	1	y	0.60885
337.5456	0.0	+	34	noun	list	2	11	match	grenier	4	1	y	0.60885
337.9456	0.0	+	34	noun	list	2	12	match	grenier	4	1	y	0.60885
339.9454	0.0	GRENIER	34	noun	list	2	13	match	grenier	4	1	y	0.60885
340.612	0.0	+	34	noun	list	2	14	match	grenier	4	1	y	0.60885
340.5543	0.0	[response]	34	noun	list	2	15	match	grenier	4	1	y	0.60885
342.3452	0.0	+	35	noun	phrase	4	1	nomatch	va	-1	0	TIMEOUT	-1.0
342.8952	0.2	hxwc	35	noun	phrase	4	2	nomatch	va	-1	0	TIMEOUT	-1.0
343.0951	0.0	+	35	noun	phrase	4	3	nomatch	va	-1	0	TIMEOUT	-1.0
343.4951	0.2	dans	35	noun	phrase	4	4	nomatch	va	-1	0	TIMEOUT	-1.0
343.6951	0.0	+	35	noun	phrase	4	5	nomatch	va	-1	0	TIMEOUT	-1.0
344.09499999999997	0.2	leur	35	noun	phrase	4	6	nomatch	va	-1	0	TIMEOUT	-1.0
344.295	0.0	+	35	noun	phrase	4	7	nomatch	va	-1	0	TIMEOUT	-1.0
344.695	0.2	grand	35	noun	phrase	4	8	nomatch	va	-1	0	TIMEOUT	-1.0
344.895	0.0	+	35	noun	phrase	4	9	nomatch	va	-1	0	TIMEOUT	-1.0
345.2949	0.2	panier	35	noun	phrase	4	10	nomatch	va	-1	0	TIMEOUT	-1.0
345.4949	0.0	+	35	noun	phrase	4	11	nomatch	va	-1	0	TIMEOUT	-1.0
345.8949	0.0	+	35	noun	phrase	4	12	nomatch	va	-1	0	TIMEOUT	-1.0
347.8947	0.0	VA	35	noun	phrase	4	13	nomatch	va	-1	0	TIMEOUT	-1.0
350.29449999999997	0.0	+	36	verb	phrase	4	1	match	jade	2	1	y	1.0281
350.8944	0.2	fjkhgw	36	verb	phrase	4	2	match	jade	2	1	y	1.0281
351.0944	0.0	+	36	verb	phrase	4	3	match	jade	2	1	y	1.0281
351.4944	0.2	jade	36	verb	phrase	4	4	match	jade	2	1	y	1.0281
351.6944	0.0	+	36	verb	phrase	4	5	match	jade	2	1	y	1.0281
352.0943	0.2	doit	36	verb	phrase	4	6	match	jade	2	1	y	1.0281
352.2943	0.0	+	36	verb	phrase	4	7	match	jade	2	1	y	1.0281
352.6943	0.2	moins	36	verb	phrase	4	8	match	jade	2	1	y	1.0281
352.8942	0.0	+	36	verb	phrase	4	9	match	jade	2	1	y	1.0281
353.2942	0.2	chasser	36	verb	phrase	4	10	match	jade	2	1	y	1.0281
353.4942	0.0	+	36	verb	phrase	4	11	match	jade	2	1	y	1.0281
353.8942	0.0	+	36	verb	phrase	4	12	match	jade	2	1	y	1.0281
355.894	0.0	JADE	36	verb	phrase	4	13	match	jade	2	1	y	1.0281
356.9772	0.0	+	36	verb	phrase	4	14	match	jade	2	1	y	1.0281
356.922	0.0	[response]	36	verb	phrase	4	15	match	jade	2	1	y	1.0281
358.2938	0.0	+	37	verb	list	3	1	nomatch	plus	-1	1	p	0.81081
358.8437	0.2	bkmsfx	37	verb	list	3	2	nomatch	plus	-1	1	p	0.81081
359.0437	0.0	+	37	verb	list	3	3	nomatch	plus	-1	1	p	0.81081
359.4437	0.2	vtwj	37	verb	list	3	4	nomatch	plus	-1	1	p	0.81081
359.6436	0.0	+	37	verb	list	3	5	nomatch	plus	-1	1	p	0.81081
360.0436	0.2	leur	37	verb	list	3	6	nomatch	plus	-1	1	p	0.81081
360.2436	0.0	+	37	verb	list	3	7	nomatch	plus	-1	1	p	0.81081
360.6435	0.2	nager	37	verb	list	3	8	nomatch	plus	-1	1	p	0.81081
360.8435	0.0	+	37	verb	list	3	9	nomatch	plus	-1	1	p	0.81081
361.2435	0.2	blanc	37	verb	list	3	10	nomatch	plus	-1	1	p	0.81081
361.4435	0.0	+	37	verb	list	3	11	nomatch	plus	-1	1	p	0.81081
361.8434	0.0	+	37	verb	list	3	12	nomatch	plus	-1	1	p	0.81081
363.8433	0.0	PLUS	37	verb	list	3	13	nomatch	plus	-1	1	p	0.81081
364.7098	0.0	+	37	verb	list	3	14	nomatch	plus	-1	1	p	0.81081
364.6541	0.0	[response]	37	verb	list	3	15	nomatch	plus	-1	1	p	0.81081
366.243	0.0	+	38	verb	list	4	1	match	vieux	4	1	y	0.85555
366.793	0.2	fbsx	38	verb	list	4	2	match	vieux	4	1	y	0.85555
366.993	0.0	+	38	verb	list	4	3	match	vieux	4	1	y	0.85555
367.3929	0.2	vers	38	verb	list	4	4	match	vieux	4	1	y	0.85555
367.5929	0.0	+	38	verb	list	4	5	match	vieux	4	1	y	0.85555
367.9929	0.2	peut	38	verb	list	4	6	match	vieux	4	1	y	0.85555
368.1929	0.0	+	38	verb	list	4	7	match	vieux	4	1	y	0.85555
368.5928	0.2	vieux	38	verb	list	4	8	match	vieux	4	1	y	0.85555
368.7928	0.0	+	38	verb	list	4	9	match	vieux	4	1	y	0.85555
369.1928	0.2	parader	38	verb	list	4	10	match	vieux	4	1	y	0.85555
369.3928	0.0	+	38	verb	list	4	11	match	vieux	4	1	y	0.85555
369.7927	0.0	+	38	verb	list	4	12	match	vieux	4	1	y	0.85555
371.7925	0.0	VIEUX	38	verb	list	4	13	match	vieux	4	1	y	0.85555
372.7091	0.0	+	38	verb	list	4	14	match	vieux	4	1	y	0.85555
372.6481	0.0	[response]	38	verb	list	4	15	match	vieux	4	1	y	0.85555
390.1909	0.0	+	39	noun	phrase	3	1	match	clavier	5	1	y	0.95675
390.7408	0.2	gxrb	39	noun	phrase	3	2	match	clavier	5	1	y	0.95675
390.9408	0.0	+	39	noun	phrase	3	3	match	clavier	5	1	y	0.95675
391.3408	0.2	wcbs	39	noun	phrase	3	4	match	clavier	5	1	y	0.95675
391.5408	0.0	+	39	noun	phrase	3	5	match	clavier	5	1	y	0.95675
391.9407	0.2	son	39	noun	phrase	3	6	match	clavier	5	1	y	0.95675
392.1407	0.0	+	39	noun	phrase	3	7	match	clavier	5	1	y	0.95675
392.5407	0.2	nouveau	39	noun	phrase	3	8	match	clavier	5	1	y	0.95675
392.7406	0.0	+	39	noun	phrase	3	9	match	clavier	5	1	y	0.95675
393.1406	0.2	clavier	39	noun	phrase	3	10	match	clavier	5	1	y	0.95675
393.3406	0.0	+	39	noun	phrase	3	11	match	clavier	5	1	y	0.95675
393.7406	0.0	+	39	noun	phrase	3	12	match	clavier	5	1	y	0.95675
395.7404	0.0	CLAVIER	39	noun	phrase	3	13	match	clavier	5	1	y	0.95675
396.7569	0.0	+	39	noun	phrase	3	14	match	clavier	5	1	y	0.95675
396.69710000000003	0.0	[response]	39	noun	phrase	3	15	match	clavier	5	1	y	0.95675
406.1394	0.0	+	40	verb	phrase	4	1	nomatch	leur	-1	1	p	0.94607
406.6894	0.2	wpnjr	40	verb	phrase	4	2	nomatch	leur	-1	1	p	0.94607
406.8894	0.0	+	40	verb	phrase	4	3	nomatch	leur	-1	1	p	0.94607
407.2893	0.2	luc	40	verb	phrase	4	4	nomatch	leur	-1	1	p	0.94607
407.4893	0.0	+	40	verb	phrase	4	5	nomatch	leur	-1	1	p	0.94607
407.8893	0.2	peut	40	verb	phrase	4	6	nomatch	leur	-1	1	p	0.94607
408.0893	0.0	+	40	verb	phrase	4	7	nomatch	leur	-1	1	p	0.94607
408.4892	0.2	parader	40	verb	phrase	4	8	nomatch	leur	-1	1	p	0.94607
408.68919999999997	0.0	+	40	verb	phrase	4	9	nomatch	leur	-1	1	p	0.94607
409.0892	0.2	tard	40	verb	phrase	4	10	nomatch	leur	-1	1	p	0.94607
409.2891	0.0	+	40	verb	phrase	4	11	nomatch	leur	-1	1	p	0.94607
409.6891	0.0	+	40	verb	phrase	4	12	nomatch	leur	-1	1	p	0.94607
411.6889	0.0	LEUR	40	verb	phrase	4	13	nomatch	leur	-1	1	p	0.94607
412.7055	0.0	+	40	verb	phrase	4	14	nomatch	leur	-1	1	p	0.94607
412.635	0.0	[response]	40	verb	phrase	4	15	nomatch	leur	-1	1	p	0.94607
414.0887	0.0	+	41	noun	list	1	1	match	cendrier	5	1	y	0.45246
414.6387	0.2	nrzbdj	41	noun	list	1	2	match	cendrier	5	1	y	0.45246
414.8386	0.0	+	41	noun	list	1	3	match	cendrier	5	1	y	0.45246
415.2386	0.2	xrfg	41	noun	list	1	4	match	cendrier	5	1	y	0.45246
415.4386	0.0	+	41	noun	list	1	5	match	cendrier	5	1	y	0.45246
415.8386	0.2	tpgs	41	noun	list	1	6	match	cendrier	5	1	y	0.45246
416.0385	0.0	+	41	noun	list	1	7	match	cendrier	5	1	y	0.45246
416.4385	0.2	jpl	41	noun	list	1	8	match	cendrier	5	1	y	0.45246
416.6385	0.0	+	41	noun	list	1	9	match	cendrier	5	1	y	0.45246
417.0385	0.2	cendrier	41	noun	list	1	10	match	cendrier	5	1	y	0.45246
417.2384	0.0	+	41	noun	list	1	11	match	cendrier	5	1	y	0.45246
417.6384	0.0	+	41	noun	list	1	12	match	cendrier	5	1	y	0.45246
419.6382	0.0	CENDRIER	41	noun	list	1	13	match	cendrier	5	1	y	0.45246
420.1548	0.0	+	41	noun	list	1	14	match	cendrier	5	1	y	0.45246
420.0907	0.0	[response]	41	noun	list	1	15	match	cendrier	5	1	y	0.45246
422.038	0.0	+	42	noun	phrase	1	1	match	vert	5	1	y	0.51408
422.5879	0.2	qsrxlm	42	noun	phrase	1	2	match	vert	5	1	y	0.51408
422.7879	0.0	+	42	noun	phrase	1	3	match	vert	5	1	y	0.51408
423.1879	0.2	qpnm	42	noun	phrase	1	4	match	vert	5	1	y	0.51408
423.3879	0.0	+	42	noun	phrase	1	5	match	vert	5	1	y	0.51408
423.7878	0.2	lgcv	42	noun	phrase	1	6	match	vert	5	1	y	0.51408
423.9878	0.0	+	42	noun	phrase	1	7	match	vert	5	1	y	0.51408
424.38779999999997	0.2	kbwfhpvq	42	noun	phrase	1	8	match	vert	5	1	y	0.51408
424.5878	0.0	+	42	noun	phrase	1	9	match	vert	5	1	y	0.51408
424.9877	0.2	vert	42	noun	phrase	1	10	match	vert	5	1	y	0.51408
425.1877	0.0	+	42	noun	phrase	1	11	match	vert	5	1	y	0.51408
425.5877	0.0	+	42	noun	phrase	1	12	match	vert	5	1	y	0.51408
427.5875	0.0	VERT	42	noun	phrase	1	13	match	vert	5	1	y	0.51408
428.1708	0.0	+	42	noun	phrase	1	14	match	vert	5	1	y	0.51408
428.1016	0.0	[response]	42	noun	phrase	1	15	match	vert	5	1	y	0.51408
437.9866	0.0	+	43	noun	list	1	1	nomatch	casier	-1	1	p	0.92238
438.5365	0.2	lcjq	43	noun	list	1	2	nomatch	casier	-1	1	p	0.92238
438.7366	0.0	+	43	noun	list	1	3	nomatch	casier	-1	1	p	0.92238
439.1365	0.2	jkhs	43	noun	list	1	4	nomatch	casier	-1	1	p	0.92238
439.3364	0.0	+	43	noun	list	1	5	nomatch	casier	-1	1	p	0.92238
439.7364	0.2	cn	43	noun	list	1	6	nomatch	casier	-1	1	p	0.92238
439.9364	0.0	+	43	noun	list	1	7	nomatch	casier	-1	1	p	0.92238
440.3363	0.2	jpl	43	noun	list	1	8	nomatch	casier	-1	1	p	0.92238
440.5363	0.0	+	43	noun	list	1	9	nomatch	casier	-1	1	p	0.92238
440.9363	0.2	voilier	43	noun	list	1	10	nomatch	casier	-1	1	p	0.92238
441.1363	0.0	+	43	noun	list	1	11	nomatch	casier	-1	1	p	0.92238
441.5362	0.0	+	43	noun	list	1	12	nomatch	casier	-1	1	p	0.92238
443.5361	0.0	CASIER	43	noun	list	1	13	nomatch	casier	-1	1	p	0.92238
444.5193	0.0	+	43	noun	list	1	14	nomatch	casier	-1	1	p	0.92238
444.4584	0.0	[response]	43	noun	list	1	15	nomatch	casier	-1	1	p	0.92238
445.9358	0.0	+	44	verb	list	1	1	nomatch	rouge	-1	0	TIMEOUT	-1.0
446.4858	0.2	ljnc	44	verb	list	1	2	nomatch	rouge	-1	0	TIMEOUT	-1.0
446.6858	0.0	+	44	verb	list	1	3	nomatch	rouge	-1	0	TIMEOUT	-1.0
447.0857	0.2	scjw	44	verb	list	1	4	nomatch	rouge	-1	0	TIMEOUT	-1.0
447.2857	0.0	+	44	verb	list	1	5	nomatch	rouge	-1	0	TIMEOUT	-1.0
447.6857	0.2	svhw	44	verb	list	1	6	nomatch	rouge	-1	0	TIMEOUT	-1.0
447.8857	0.0	+	44	verb	list	1	7	nomatch	rouge	-1	0	TIMEOUT	-1.0
448.2856	0.2	cdlkjtx	44	verb	list	1	8	nomatch	rouge	-1	0	TIMEOUT	-1.0
448.4856	0.0	+	44	verb	list	1	9	nomatch	rouge	-1	0	TIMEOUT	-1.0
448.8856	0.2	grand	44	verb	list	1	10	nomatch	rouge	-1	0	TIMEOUT	-1.0
449.0856	0.0	+	44	verb	list	1	11	nomatch	rouge	-1	0	TIMEOUT	-1.0
449.4855	0.0	+	44	verb	list	1	12	nomatch	rouge	-1	0	TIMEOUT	-1.0
451.4853	0.0	ROUGE	44	verb	list	1	13	nomatch	rouge	-1	0	TIMEOUT	-1.0
453.9018	0.0	+	45	noun	phrase	2	1	match	vieux	4	1	y	0.7226
454.4851	0.2	kcvwz	45	noun	phrase	2	2	match	vieux	4	1	y	0.7226
454.685	0.0	+	45	noun	phrase	2	3	match	vieux	4	1	y	0.7226
455.085	0.2	wcbs	45	noun	phrase	2	4	match	vieux	4	1	y	0.7226
455.285	0.0	+	45	noun	phrase	2	5	match	vieux	4	1	y	0.7226
455.685	0.2	vft	45	noun	phrase	2	6	match	vieux	4	1	y	0.7226
455.8849	0.0	+	45	noun	phrase	2	7	match	vieux	4	1	y	0.7226
456.2849	0.2	vieux	45	noun	phrase	2	8	match	vieux	4	1	y	0.7226
456.4849	0.0	+	45	noun	phrase	2	9	match	vieux	4	1	y	0.7226
456.8849	0.2	voilier	45	noun	phrase	2	10	match	vieux	4	1	y	0.7226
457.0849	0.0	+	45	noun	phrase	2	11	match	vieux	4	1	y	0.7226
457.5015	0.0	+	45	noun	phrase	2	12	match	vieux	4	1	y	0.7226
459.5013	0.0	VIEUX	45	noun	phrase	2	13	match	vieux	4	1	y	0.7226
460.2845	0.0	+	45	noun	phrase	2	14	match	vieux	4	1	y	0.7226
460.2239	0.0	[response]	45	noun	phrase	2	15	match	vieux	4	1	y	0.7226
461.9011	0.0	+	46	verb	phrase	1	1	nomatch	plonger	-1	1	p	0.87121
462.451	0.2	bvfpzn	46	verb	phrase	1	2	nomatch	plonger	-1	1	p	0.87121
462.651	0.0	+	46	verb	phrase	1	3	nomatch	plonger	-1	1	p	0.87121
463.051	0.2	wvln	46	verb	phrase	1	4	nomatch	plonger	-1	1	p	0.87121
463.2509	0.0	+	46	verb	phrase	1	5	nomatch	plonger	-1	1	p	0.87121
463.6509	0.2	tpgs	46	verb	phrase	1	6	nomatch	plonger	-1	1	p	0.87121
463.8509	0.0	+	46	verb	phrase	1	7	nomatch	plonger	-1	1	p	0.87121
464.2508	0.2	mkzvpfbs	46	verb	phrase	1	8	nomatch	plonger	-1	1	p	0.87121
464.45079999999996	0.0	+	46	verb	phrase	1	9	nomatch	plonger	-1	1	p	0.87121
464.85080000000005	0.2	voyager	46	verb	phrase	1	10	nomatch	plonger	-1	1	p	0.87121
465.0508	0.0	+	46	verb	phrase	1	11	nomatch	plonger	-1	1	p	0.87121
465.4507	0.0	+	46	verb	phrase	1	12	nomatch	plonger	-1	1	p	0.87121
467.4506	0.0	PLONGER	46	verb	phrase	1	13	nomatch	plonger	-1	1	p	0.87121
468.38379999999995	0.0	+	46	verb	phrase	1	14	nomatch	plonger	-1	1	p	0.87121
468.32180000000005	0.0	[response]	46	verb	phrase	1	15	nomatch	plonger	-1	1	p	0.87121
469.85029999999995	0.0	+	47	verb	list	4	1	match	blanc	5	1	y	1.492
470.4003	0.2	hgq	47	verb	list	4	2	match	blanc	5	1	y	1.492
470.60029999999995	0.0	+	47	verb	list	4	3	match	blanc	5	1	y	1.492
471.00019999999995	0.2	jade	47	verb	list	4	4	match	blanc	5	1	y	1.492
471.2002	0.0	+	47	verb	list	4	5	match	blanc	5	1	y	1.492
471.6002	0.2	mon	47	verb	list	4	6	match	blanc	5	1	y	1.492
471.8002	0.0	+	47	verb	list	4	7	match	blanc	5	1	y	1.492
472.2001	0.2	parader	47	verb	list	4	8	match	blanc	5	1	y	1.492
472.40009999999995	0.0	+	47	verb	list	4	9	match	blanc	5	1	y	1.492
472.80010000000004	0.2	blanc	47	verb	list	4	10	match	blanc	5	1	y	1.492
473.0001	0.0	+	47	verb	list	4	11	match	blanc	5	1	y	1.492
473.4	0.0	+	47	verb	list	4	12	match	blanc	5	1	y	1.492
475.3998	0.0	BLANC	47	verb	list	4	13	match	blanc	5	1	y	1.492
476.9497	0.0	+	47	verb	list	4	14	match	blanc	5	1	y	1.492
476.8918	0.0	[response]	47	verb	list	4	15	match	blanc	5	1	y	1.492
477.79960000000005	0.0	+	48	verb	phrase	2	1	match	danser	5	1	y	0.5483
478.3496	0.2	ftrnq	48	verb	phrase	2	2	match	danser	5	1	y	0.5483
478.54960000000005	0.0	+	48	verb	phrase	2	3	match	danser	5	1	y	0.5483
478.94949999999994	0.2	vtwj	48	verb	phrase	2	4	match	danser	5	1	y	0.5483
479.1495	0.0	+	48	verb	phrase	2	5	match	danser	5	1	y	0.5483
479.54949999999997	0.2	svhw	48	verb	phrase	2	6	match	danser	5	1	y	0.5483
479.74940000000004	0.0	+	48	verb	phrase	2	7	match	danser	5	1	y	0.5483
480.1494	0.2	plus	48	verb	phrase	2	8	match	danser	5	1	y	0.5483
480.34939999999995	0.0	+	48	verb	phrase	2	9	match	danser	5	1	y	0.5483
480.74940000000004	0.2	danser	48	verb	phrase	2	10	match	danser	5	1	y	0.5483
480.9493	0.0	+	48	verb	phrase	2	11	match	danser	5	1	y	0.5483
481.34929999999997	0.0	+	48	verb	phrase	2	12	match	danser	5	1	y	0.5483
483.3491	0.0	DANSER	48	verb	phrase	2	13	match	danser	5	1	y	0.5483
483.96569999999997	0.0	+	48	verb	phrase	2	14	match	danser	5	1	y	0.5483
483.89739999999995	0.0	[response]	48	verb	phrase	2	15	match	danser	5	1	y	0.5483
485.74890000000005	0.0	+	49	verb	phrase	2	1	nomatch	voyager	-1	1	p	1.6088
486.2989	0.2	dwzkhj	49	verb	phrase	2	2	nomatch	voyager	-1	1	p	1.6088
486.49879999999996	0.0	+	49	verb	phrase	2	3	nomatch	voyager	-1	1	p	1.6088
486.89880000000005	0.2	wvln	49	verb	phrase	2	4	nomatch	voyager	-1	1	p	1.6088
487.0988	0.0	+	49	verb	phrase	2	5	nomatch	voyager	-1	1	p	1.6088
487.4987	0.2	cn	49	verb	phrase	2	6	nomatch	voyager	-1	1	p	1.6088
487.69870000000003	0.0	+	49	verb	phrase	2	7	nomatch	voyager	-1	1	p	1.6088
488.0987	0.2	mieux	49	verb	phrase	2	8	nomatch	voyager	-1	1	p	1.6088
488.29870000000005	0.0	+	49	verb	phrase	2	9	nomatch	voyager	-1	1	p	1.6088
488.69859999999994	0.2	galoper	49	verb	phrase	2	10	nomatch	voyager	-1	1	p	1.6088
488.8986	0.0	+	49	verb	phrase	2	11	nomatch	voyager	-1	1	p	1.6088
489.29859999999996	0.0	+	49	verb	phrase	2	12	nomatch	voyager	-1	1	p	1.6088
491.2984	0.0	VOYAGER	49	verb	phrase	2	13	nomatch	voyager	-1	1	p	1.6088
492.96489999999994	0.0	+	49	verb	phrase	2	14	nomatch	voyager	-1	1	p	1.6088
492.9072	0.0	[response]	49	verb	phrase	2	15	nomatch	voyager	-1	1	p	1.6088
493.69820000000004	0.0	+	50	verb	list	3	1	match	noir	5	1	y	0.58538
494.2481	0.2	dtfjhp	50	verb	list	3	2	match	noir	5	1	y	0.58538
494.44809999999995	0.0	+	50	verb	list	3	3	match	noir	5	1	y	0.58538
494.84810000000004	0.2	rmkt	50	verb	list	3	4	match	noir	5	1	y	0.58538
495.0493	0.0	+	50	verb	list	3	5	match	noir	5	1	y	0.58538
495.448	0.2	leur	50	verb	list	3	6	match	noir	5	1	y	0.58538
495.648	0.0	+	50	verb	list	3	7	match	noir	5	1	y	0.58538
496.048	0.2	chasser	50	verb	list	3	8	match	noir	5	1	y	0.58538
496.24800000000005	0.0	+	50	verb	list	3	9	match	noir	5	1	y	0.58538
496.64790000000005	0.2	noir	50	verb	list	3	10	match	noir	5	1	y	0.58538
496.8479	0.0	+	50	verb	list	3	11	match	noir	5	1	y	0.58538
497.24789999999996	0.0	+	50	verb	list	3	12	match	noir	5	1	y	0.58538
499.2477	0.0	NOIR	50	verb	list	3	13	match	noir	5	1	y	0.58538
499.8976	0.0	+	50	verb	list	3	14	match	noir	5	1	y	0.58538
499.83310000000006	0.0	[response]	50	verb	list	3	15	match	noir	5	1	y	0.58538
501.64750000000004	0.0	+	51	noun	phrase	2	1	nomatch	vers	-1	1	p	0.90404
502.1974	0.2	sgl	51	noun	phrase	2	2	nomatch	vers	-1	1	p	0.90404
502.39739999999995	0.0	+	51	noun	phrase	2	3	nomatch	vers	-1	1	p	0.90404
502.79740000000004	0.2	wcbs	51	noun	phrase	2	4	nomatch	vers	-1	1	p	0.90404
502.9973	0.0	+	51	noun	phrase	2	5	nomatch	vers	-1	1	p	0.90404
503.3973	0.2	rbh	51	noun	phrase	2	6	nomatch	vers	-1	1	p	0.90404
503.5973	0.0	+	51	noun	phrase	2	7	nomatch	vers	-1	1	p	0.90404
503.9973	0.2	beau	51	noun	phrase	2	8	nomatch	vers	-1	1	p	0.90404
504.19719999999995	0.0	+	51	noun	phrase	2	9	nomatch	vers	-1	1	p	0.90404
504.59720000000004	0.2	clavier	51	noun	phrase	2	10	nomatch	vers	-1	1	p	0.90404
504.7972	0.0	+	51	noun	phrase	2	11	nomatch	vers	-1	1	p	0.90404
505.1971	0.0	+	51	noun	phrase	2	12	nomatch	vers	-1	1	p	0.90404
507.197	0.0	VERS	51	noun	phrase	2	13	nomatch	vers	-1	1	p	0.90404
508.1635	0.0	+	51	noun	phrase	2	14	nomatch	vers	-1	1	p	0.90404
508.101	0.0	[response]	51	noun	phrase	2	15	nomatch	vers	-1	1	p	0.90404
509.59670000000006	0.0	+	52	noun	phrase	3	1	match	casier	5	1	y	0.92038
510.1467	0.2	vcpjt	52	noun	phrase	3	2	match	casier	5	1	y	0.92038
510.34670000000006	0.0	+	52	noun	phrase	3	3	match	casier	5	1	y	0.92038
510.74659999999994	0.2	xrfg	52	noun	phrase	3	4	match	casier	5	1	y	0.92038
510.9466	0.0	+	52	noun	phrase	3	5	match	casier	5	1	y	0.92038
511.34659999999997	0.2	mon	52	noun	phrase	3	6	match	casier	5	1	y	0.92038
511.5466	0.0	+	52	noun	phrase	3	7	match	casier	5	1	y	0.92038
511.9465	0.2	grand	52	noun	phrase	3	8	match	casier	5	1	y	0.92038
512.1465	0.0	+	52	noun	phrase	3	9	match	casier	5	1	y	0.92038
512.5465	0.2	casier	52	noun	phrase	3	10	match	casier	5	1	y	0.92038
512.7465	0.0	+	52	noun	phrase	3	11	match	casier	5	1	y	0.92038
513.1464	0.0	+	52	noun	phrase	3	12	match	casier	5	1	y	0.92038
515.1462	0.0	CASIER	52	noun	phrase	3	13	match	casier	5	1	y	0.92038
516.1295	0.0	+	52	noun	phrase	3	14	match	casier	5	1	y	0.92038
516.0666	0.0	[response]	52	noun	phrase	3	15	match	casier	5	1	y	0.92038
517.546	0.0	+	53	noun	list	1	1	match	trop	5	1	y	0.74276
518.096	0.2	cnfhpvw	53	noun	list	1	2	match	trop	5	1	y	0.74276
518.296	0.0	+	53	noun	list	1	3	match	trop	5	1	y	0.74276
518.6959	0.2	dmgj	53	noun	list	1	4	match	trop	5	1	y	0.74276
518.8959	0.0	+	53	noun	list	1	5	match	trop	5	1	y	0.74276
519.2959	0.2	rbh	53	noun	list	1	6	match	trop	5	1	y	0.74276
519.4959	0.0	+	53	noun	list	1	7	match	trop	5	1	y	0.74276
519.8958	0.2	vgpdrm	53	noun	list	1	8	match	trop	5	1	y	0.74276
520.0958	0.0	+	53	noun	list	1	9	match	trop	5	1	y	0.74276
520.4958	0.2	trop	53	noun	list	1	10	match	trop	5	1	y	0.74276
520.6957	0.0	+	53	noun	list	1	11	match	trop	5	1	y	0.74276
521.0957	0.0	+	53	noun	list	1	12	match	trop	5	1	y	0.74276
523.0955	0.0	TROP	53	noun	list	1	13	match	trop	5	1	y	0.74276
523.8954	0.0	+	53	noun	list	1	14	match	trop	5	1	y	0.74276
523.8383	0.0	[response]	53	noun	list	1	15	match	trop	5	1	y	0.74276
525.4953	0.0	+	54	verb	list	4	1	nomatch	paul	-1	1	p	2.0415
526.0453	0.2	xpwsc	54	verb	list	4	2	nomatch	paul	-1	1	p	2.0415
526.2452	0.0	+	54	verb	list	4	3	nomatch	paul	-1	1	p	2.0415
526.6452	0.2	adam	54	verb	list	4	4	nomatch	paul	-1	1	p	2.0415
526.8452	0.0	+	54	verb	list	4	5	nomatch	paul	-1	1	p	2.0415
527.2452	0.2	son	54	verb	list	4	6	nomatch	paul	-1	1	p	2.0415
527.4451	0.0	+	54	verb	list	4	7	nomatch	paul	-1	1	p	2.0415
527.8451	0.2	danser	54	verb	list	4	8	nomatch	paul	-1	1	p	2.0415
528.0451	0.0	+	54	verb	list	4	9	nomatch	paul	-1	1	p	2.0415
528.445	0.2	noir	54	verb	list	4	10	nomatch	paul	-1	1	p	2.0415
528.645	0.0	+	54	verb	list	4	11	nomatch	paul	-1	1	p	2.0415
529.045	0.0	+	54	verb	list	4	12	nomatch	paul	-1	1	p	2.0415
531.0448	0.0	PAUL	54	verb	list	4	13	nomatch	paul	-1	1	p	2.0415
533.1446	0.0	+	54	verb	list	4	14	nomatch	paul	-1	1	p	2.0415
533.0863	0.0	[response]	54	verb	list	4	15	nomatch	paul	-1	1	p	2.0415
533.4446	0.0	+	55	verb	phrase	1	1	match	parader	5	1	y	0.49989
533.9945	0.2	fkswg	55	verb	phrase	1	2	match	parader	5	1	y	0.49989
534.1945	0.0	+	55	verb	phrase	1	3	match	parader	5	1	y	0.49989
534.5945	0.2	rmkt	55	verb	phrase	1	4	match	parader	5	1	y	0.49989
534.7945	0.0	+	55	verb	phrase	1	5	match	parader	5	1	y	0.49989
535.1944	0.2	svhw	55	verb	phrase	1	6	match	parader	5	1	y	0.49989
535.3944	0.0	+	55	verb	phrase	1	7	match	parader	5	1	y	0.49989
535.7944	0.2	tzds	55	verb	phrase	1	8	match	parader	5	1	y	0.49989
535.9944	0.0	+	55	verb	phrase	1	9	match	parader	5	1	y	0.49989
536.3943	0.2	parader	55	verb	phrase	1	10	match	parader	5	1	y	0.49989
536.5943	0.0	+	55	verb	phrase	1	11	match	parader	5	1	y	0.49989
536.9943	0.0	+	55	verb	phrase	1	12	match	parader	5	1	y	0.49989
538.9941	0.0	PARADER	55	verb	phrase	1	13	match	parader	5	1	y	0.49989
539.5607	0.0	+	55	verb	phrase	1	14	match	parader	5	1	y	0.49989
539.494	0.0	[response]	55	verb	phrase	1	15	match	parader	5	1	y	0.49989
541.3939	0.0	+	56	verb	phrase	2	1	nomatch	loin	-1	1	p	0.59024
541.9438	0.2	xvkz	56	verb	phrase	2	2	nomatch	loin	-1	1	p	0.59024
542.1437999999999	0.0	+	56	verb	phrase	2	3	nomatch	loin	-1	1	p	0.59024
542.5438	0.2	vtwj	56	verb	phrase	2	4	nomatch	loin	-1	1	p	0.59024
542.7438	0.0	+	56	verb	phrase	2	5	nomatch	loin	-1	1	p	0.59024
543.1437	0.2	cn	56	verb	phrase	2	6	nomatch	loin	-1	1	p	0.59024
543.3437	0.0	+	56	verb	phrase	2	7	nomatch	loin	-1	1	p	0.59024
543.7437	0.2	chasser	56	verb	phrase	2	8	nomatch	loin	-1	1	p	0.59024
543.9436	0.0	+	56	verb	phrase	2	9	nomatch	loin	-1	1	p	0.59024
544.3436	0.2	ainsi	56	verb	phrase	2	10	nomatch	loin	-1	1	p	0.59024
544.5436	0.0	+	56	verb	phrase	2	11	nomatch	loin	-1	1	p	0.59024
544.9436	0.0	+	56	verb	phrase	2	12	nomatch	loin	-1	1	p	0.59024
546.9434	0.0	LOIN	56	verb	phrase	2	13	nomatch	loin	-1	1	p	0.59024
547.5933	0.0	+	56	verb	phrase	2	14	nomatch	loin	-1	1	p	0.59024
547.5336	0.0	[response]	56	verb	phrase	2	15	nomatch	loin	-1	1	p	0.59024
549.3431	0.0	+	57	noun	list	2	1	nomatch	tard	-1	1	p	0.68704
549.8931	0.2	hvz	57	noun	list	2	2	nomatch	tard	-1	1	p	0.68704
550.0931	0.0	+	57	noun	list	2	3	nomatch	tard	-1	1	p	0.68704
550.4931	0.2	cvq	57	noun	list	2	4	nomatch	tard	-1	1	p	0.68704
550.693	0.0	+	57	noun	list	2	5	nomatch	tard	-1	1	p	0.68704
551.093	0.2	lgcv	57	noun	list	2	6	nomatch	tard	-1	1	p	0.68704
551.293	0.0	+	57	noun	list	2	7	nomatch	tard	-1	1	p	0.68704
551.6929	0.2	trop	57	noun	list	2	8	nomatch	tard	-1	1	p	0.68704
551.8929	0.0	+	57	noun	list	2	9	nomatch	tard	-1	1	p	0.68704
552.2929	0.2	casier	57	noun	list	2	10	nomatch	tard	-1	1	p	0.68704
552.4929	0.0	+	57	noun	list	2	11	nomatch	tard	-1	1	p	0.68704
552.8928	0.0	+	57	noun	list	2	12	nomatch	tard	-1	1	p	0.68704
554.8927	0.0	TARD	57	noun	list	2	13	nomatch	tard	-1	1	p	0.68704
555.6426	0.0	+	57	noun	list	2	14	nomatch	tard	-1	1	p	0.68704
555.5797	0.0	[response]	57	noun	list	2	15	nomatch	tard	-1	1	p	0.68704
557.2924	0.0	+	58	verb	phrase	1	1	match	chasser	5	0	p	1.1976
557.8424	0.2	xhdqn	58	verb	phrase	1	2	match	chasser	5	0	p	1.1976
558.0445	0.0	+	58	verb	phrase	1	3	match	chasser	5	0	p	1.1976
558.4423	0.2	dmgj	58	verb	phrase	1	4	match	chasser	5	0	p	1.1976
558.6423	0.0	+	58	verb	phrase	1	5	match	chasser	5	0	p	1.1976
559.0423	0.2	cn	58	verb	phrase	1	6	match	chasser	5	0	p	1.1976
559.2423	0.0	+	58	verb	phrase	1	7	match	chasser	5	0	p	1.1976
559.6422	0.2	lqgn	58	verb	phrase	1	8	match	chasser	5	0	p	1.1976
559.8422	0.0	+	58	verb	phrase	1	9	match	chasser	5	0	p	1.1976
560.2422	0.2	chasser	58	verb	phrase	1	10	match	chasser	5	0	p	1.1976
560.4422	0.0	+	58	verb	phrase	1	11	match	chasser	5	0	p	1.1976
560.8421	0.0	+	58	verb	phrase	1	12	match	chasser	5	0	p	1.1976
562.8419	0.0	CHASSER	58	verb	phrase	1	13	match	chasser	5	0	p	1.1976
564.1085	0.0	+	58	verb	phrase	1	14	match	chasser	5	0	p	1.1976
564.0396000000001	0.0	[response]	58	verb	phrase	1	15	match	chasser	5	0	p	1.1976
565.2417	0.0	+	59	verb	list	2	1	nomatch	jongler	-1	1	p	0.51477
565.7917	0.2	bgfkhqz	59	verb	list	2	2	nomatch	jongler	-1	1	p	0.51477
565.9917	0.0	+	59	verb	list	2	3	nomatch	jongler	-1	1	p	0.51477
566.3916	0.2	pxbj	59	verb	list	2	4	nomatch	jongler	-1	1	p	0.51477
566.5916	0.0	+	59	verb	list	2	5	nomatch	jongler	-1	1	p	0.51477
566.9916	0.2	vft	59	verb	list	2	6	nomatch	jongler	-1	1	p	0.51477
567.1915	0.0	+	59	verb	list	2	7	nomatch	jongler	-1	1	p	0.51477
567.5915	0.2	parader	59	verb	list	2	8	nomatch	jongler	-1	1	p	0.51477
567.7915	0.0	+	59	verb	list	2	9	nomatch	jongler	-1	1	p	0.51477
568.1915	0.2	noir	59	verb	list	2	10	nomatch	jongler	-1	1	p	0.51477
568.3914	0.0	+	59	verb	list	2	11	nomatch	jongler	-1	1	p	0.51477
568.7914	0.0	+	59	verb	list	2	12	nomatch	jongler	-1	1	p	0.51477
570.7912	0.0	JONGLER	59	verb	list	2	13	nomatch	jongler	-1	1	p	0.51477
571.3745	0.0	+	59	verb	list	2	14	nomatch	jongler	-1	1	p	0.51477
571.306	0.0	[response]	59	verb	list	2	15	nomatch	jongler	-1	1	p	0.51477
573.191	0.0	+	60	verb	list	1	1	match	grand	5	1	y	1.065
573.7409	0.2	djmxqpb	60	verb	list	1	2	match	grand	5	1	y	1.065
573.9408999999999	0.0	+	60	verb	list	1	3	match	grand	5	1	y	1.065
574.3409	0.2	wcbs	60	verb	list	1	4	match	grand	5	1	y	1.065
574.5409	0.0	+	60	verb	list	1	5	match	grand	5	1	y	1.065
574.9408	0.2	tpgs	60	verb	list	1	6	match	grand	5	1	y	1.065
575.1408	0.0	+	60	verb	list	1	7	match	grand	5	1	y	1.065
575.5408	0.2	rcvhxtm	60	verb	list	1	8	match	grand	5	1	y	1.065
575.7408	0.0	+	60	verb	list	1	9	match	grand	5	1	y	1.065
576.1407	0.2	grand	60	verb	list	1	10	match	grand	5	1	y	1.065
576.3407	0.0	+	60	verb	list	1	11	match	grand	5	1	y	1.065
576.7407	0.0	+	60	verb	list	1	12	match	grand	5	1	y	1.065
578.7405	0.0	GRAND	60	verb	list	1	13	match	grand	5	1	y	1.065
579.8737	0.0	+	60	verb	list	1	14	match	grand	5	1	y	1.065
579.8055	0.0	[response]	60	verb	list	1	15	match	grand	5	1	y	1.065
581.1403	0.0	+	61	verb	phrase	3	1	match	chasser	4	1	y	0.81959
581.6902	0.2	djvgzrt	61	verb	phrase	3	2	match	chasser	4	1	y	0.81959
581.8902	0.0	+	61	verb	phrase	3	3	match	chasser	4	1	y	0.81959
582.2902	0.2	dmgj	61	verb	phrase	3	4	match	chasser	4	1	y	0.81959
582.4902	0.0	+	61	verb	phrase	3	5	match	chasser	4	1	y	0.81959
582.8901	0.2	va	61	verb	phrase	3	6	match	chasser	4	1	y	0.81959
583.0901	0.0	+	61	verb	phrase	3	7	match	chasser	4	1	y	0.81959
583.4901	0.2	chasser	61	verb	phrase	3	8	match	chasser	4	1	y	0.81959
583.69	0.0	+	61	verb	phrase	3	9	match	chasser	4	1	y	0.81959
584.09	0.2	tard	61	verb	phrase	3	10	match	chasser	4	1	y	0.81959
584.29	0.0	+	61	verb	phrase	3	11	match	chasser	4	1	y	0.81959
584.69	0.0	+	61	verb	phrase	3	12	match	chasser	4	1	y	0.81959
586.6898	0.0	CHASSER	61	verb	phrase	3	13	match	chasser	4	1	y	0.81959
587.573	0.0	+	61	verb	phrase	3	14	match	chasser	4	1	y	0.81959
587.5094	0.0	[response]	61	verb	phrase	3	15	match	chasser	4	1	y	0.81959
589.0896	0.0	+	62	verb	list	4	1	nomatch	leur	-1	1	p	0.62007
589.6395	0.2	cnzfxts	62	verb	list	4	2	nomatch	leur	-1	1	p	0.62007
589.8395	0.0	+	62	verb	list	4	3	nomatch	leur	-1	1	p	0.62007
590.2395	0.2	dans	62	verb	list	4	4	nomatch	leur	-1	1	p	0.62007
590.4394	0.0	+	62	verb	list	4	5	nomatch	leur	-1	1	p	0.62007
590.8394	0.2	peut	62	verb	list	4	6	nomatch	leur	-1	1	p	0.62007
591.0394	0.0	+	62	verb	list	4	7	nomatch	leur	-1	1	p	0.62007
591.4394	0.2	petit	62	verb	list	4	8	nomatch	leur	-1	1	p	0.62007
591.6393	0.0	+	62	verb	list	4	9	nomatch	leur	-1	1	p	0.62007
592.0393	0.2	galoper	62	verb	list	4	10	nomatch	leur	-1	1	p	0.62007
592.2393	0.0	+	62	verb	list	4	11	nomatch	leur	-1	1	p	0.62007
592.6392	0.0	+	62	verb	list	4	12	nomatch	leur	-1	1	p	0.62007
594.6391	0.0	LEUR	62	verb	list	4	13	nomatch	leur	-1	1	p	0.62007
595.3223	0.0	+	62	verb	list	4	14	nomatch	leur	-1	1	p	0.62007
595.2591	0.0	[response]	62	verb	list	4	15	nomatch	leur	-1	1	p	0.62007
597.0388	0.0	+	63	noun	phrase	4	1	match	avec	2	0	p	0.67258
597.5888	0.2	tfcwj	63	noun	phrase	4	2	match	avec	2	0	p	0.67258
597.7888	0.0	+	63	noun	phrase	4	3	match	avec	2	0	p	0.67258
598.1887	0.2	avec	63	noun	phrase	4	4	match	avec	2	0	p	0.67258
598.3887	0.0	+	63	noun	phrase	4	5	match	avec	2	0	p	0.67258
598.7887	0.2	mon	63	noun	phrase	4	6	match	avec	2	0	p	0.67258
598.9887	0.0	+	63	noun	phrase	4	7	match	avec	2	0	p	0.67258
599.3886	0.2	voilier	63	noun	phrase	4	8	match	avec	2	0	p	0.67258
599.5886	0.0	+	63	noun	phrase	4	9	match	avec	2	0	p	0.67258
599.9886	0.2	blanc	63	noun	phrase	4	10	match	avec	2	0	p	0.67258
600.1886	0.0	+	63	noun	phrase	4	11	match	avec	2	0	p	0.67258
600.5885	0.0	+	63	noun	phrase	4	12	match	avec	2	0	p	0.67258
602.5883	0.0	AVEC	63	noun	phrase	4	13	match	avec	2	0	p	0.67258
603.3216	0.0	+	63	noun	phrase	4	14	match	avec	2	0	p	0.67258
603.2609000000001	0.0	[response]	63	noun	phrase	4	15	match	avec	2	0	p	0.67258
604.9881	0.0	+	64	verb	list	1	1	match	plonger	5	1	y	0.64965
605.5381	0.2	cpvnztx	64	verb	list	1	2	match	plonger	5	1	y	0.64965
605.7381	0.0	+	64	verb	list	1	3	match	plonger	5	1	y	0.64965
606.138	0.2	kszh	64	verb	list	1	4	match	plonger	5	1	y	0.64965
606.338	0.0	+	64	verb	list	1	5	match	plonger	5	1	y	0.64965
606.7379999999999	0.2	cn	64	verb	list	1	6	match	plonger	5	1	y	0.64965
606.9379	0.0	+	64	verb	list	1	7	match	plonger	5	1	y	0.64965
607.3379	0.2	ljhw	64	verb	list	1	8	match	plonger	5	1	y	0.64965
607.5379	0.0	+	64	verb	list	1	9	match	plonger	5	1	y	0.64965
607.9379	0.2	plonger	64	verb	list	1	10	match	plonger	5	1	y	0.64965
608.1378	0.0	+	64	verb	list	1	11	match	plonger	5	1	y	0.64965
608.5378	0.0	+	64	verb	list	1	12	match	plonger	5	1	y	0.64965
610.5376	0.0	PLONGER	64	verb	list	1	13	match	plonger	5	1	y	0.64965
611.2542	0.0	+	64	verb	list	1	14	match	plonger	5	1	y	0.64965
611.1873	0.0	[response]	64	verb	list	1	15	match	plonger	5	1	y	0.64965
612.9374	0.0	+	65	verb	list	2	1	match	petit	4	1	y	0.71144
613.4874	0.2	htqncz	65	verb	list	2	2	match	petit	4	1	y	0.71144
613.6873	0.0	+	65	verb	list	2	3	match	petit	4	1	y	0.71144
614.0873	0.2	qpnm	65	verb	list	2	4	match	petit	4	1	y	0.71144
614.2873	0.0	+	65	verb	list	2	5	match	petit	4	1	y	0.71144
614.6872	0.2	svhw	65	verb	list	2	6	match	petit	4	1	y	0.71144
614.8872	0.0	+	65	verb	list	2	7	match	petit	4	1	y	0.71144
615.2872	0.2	petit	65	verb	list	2	8	match	petit	4	1	y	0.71144
615.4872	0.0	+	65	verb	list	2	9	match	petit	4	1	y	0.71144
615.8871	0.2	jongler	65	verb	list	2	10	match	petit	4	1	y	0.71144
616.0871	0.0	+	65	verb	list	2	11	match	petit	4	1	y	0.71144
616.4871	0.0	+	65	verb	list	2	12	match	petit	4	1	y	0.71144
618.4869	0.0	PETIT	65	verb	list	2	13	match	petit	4	1	y	0.71144
619.2535	0.0	+	65	verb	list	2	14	match	petit	4	1	y	0.71144
619.1983000000001	0.0	[response]	65	verb	list	2	15	match	petit	4	1	y	0.71144
628.886	0.0	+	66	noun	phrase	3	1	match	mon	3	1	y	0.57269
629.4359	0.2	bwdlh	66	noun	phrase	3	2	match	mon	3	1	y	0.57269
629.6359	0.0	+	66	noun	phrase	3	3	match	mon	3	1	y	0.57269
630.0359	0.2	jkhs	66	noun	phrase	3	4	match	mon	3	1	y	0.57269
630.2358	0.0	+	66	noun	phrase	3	5	match	mon	3	1	y	0.57269
630.6358	0.2	mon	66	noun	phrase	3	6	match	mon	3	1	y	0.57269
630.8358	0.0	+	66	noun	phrase	3	7	match	mon	3	1	y	0.57269
631.2358	0.2	beau	66	noun	phrase	3	8	match	mon	3	1	y	0.57269
631.4357	0.0	+	66	noun	phrase	3	9	match	mon	3	1	y	0.57269
631.8357	0.2	grenier	66	noun	phrase	3	10	match	mon	3	1	y	0.57269
632.0357	0.0	+	66	noun	phrase	3	11	match	mon	3	1	y	0.57269
632.4356	0.0	+	66	noun	phrase	3	12	match	mon	3	1	y	0.57269
634.4355	0.0	MON	66	noun	phrase	3	13	match	mon	3	1	y	0.57269
635.0687	0.0	+	66	noun	phrase	3	14	match	mon	3	1	y	0.57269
635.0082	0.0	[response]	66	noun	phrase	3	15	match	mon	3	1	y	0.57269
636.8352	0.0	+	67	verb	list	3	1	match	son	3	1	y	0.54449
637.3852	0.2	sjch	67	verb	list	3	2	match	son	3	1	y	0.54449
637.5852	0.0	+	67	verb	list	3	3	match	son	3	1	y	0.54449
637.9851	0.2	pxbj	67	verb	list	3	4	match	son	3	1	y	0.54449
638.1851	0.0	+	67	verb	list	3	5	match	son	3	1	y	0.54449
638.5851	0.2	son	67	verb	list	3	6	match	son	3	1	y	0.54449
638.7850999999999	0.0	+	67	verb	list	3	7	match	son	3	1	y	0.54449
639.185	0.2	plonger	67	verb	list	3	8	match	son	3	1	y	0.54449
639.385	0.0	+	67	verb	list	3	9	match	son	3	1	y	0.54449
639.785	0.2	noir	67	verb	list	3	10	match	son	3	1	y	0.54449
639.985	0.0	+	67	verb	list	3	11	match	son	3	1	y	0.54449
640.3849	0.0	+	67	verb	list	3	12	match	son	3	1	y	0.54449
642.4014	0.0	SON	67	verb	list	3	13	match	son	3	1	y	0.54449
643.0013	0.0	+	67	verb	list	3	14	match	son	3	1	y	0.54449
642.9459	0.0	[response]	67	verb	list	3	15	match	son	3	1	y	0.54449
644.8012	0.0	+	68	verb	list	1	1	match	danser	5	1	y	0.57315
645.3511	0.2	zxrf	68	verb	list	1	2	match	danser	5	1	y	0.57315
645.5511	0.0	+	68	verb	list	1	3	match	danser	5	1	y	0.57315
645.9511	0.2	wcbs	68	verb	list	1	4	match	danser	5	1	y	0.57315
646.1511	0.0	+	68	verb	list	1	5	match	danser	5	1	y	0.57315
646.551	0.2	svhw	68	verb	list	1	6	match	danser	5	1	y	0.57315
646.751	0.0	+	68	verb	list	1	7	match	danser	5	1	y	0.57315
647.151	0.2	wxnmf	68	verb	list	1	8	match	danser	5	1	y	0.57315
647.351	0.0	+	68	verb	list	1	9	match	danser	5	1	y	0.57315
647.7509	0.2	danser	68	verb	list	1	10	match	danser	5	1	y	0.57315
647.9509	0.0	+	68	verb	list	1	11	match	danser	5	1	y	0.57315
648.3509	0.0	+	68	verb	list	1	12	match	danser	5	1	y	0.57315
650.3507	0.0	DANSER	68	verb	list	1	13	match	danser	5	1	y	0.57315
650.984	0.0	+	68	verb	list	1	14	match	danser	5	1	y	0.57315
650.9238	0.0	[response]	68	verb	list	1	15	match	danser	5	1	y	0.57315
652.7505	0.0	+	69	verb	list	3	1	match	nouveau	4	1	y	0.44348
653.3004	0.2	hvlxbs	69	verb	list	3	2	match	nouveau	4	1	y	0.44348
653.5004	0.0	+	69	verb	list	3	3	match	nouveau	4	1	y	0.44348
653.9004	0.2	kszh	69	verb	list	3	4	match	nouveau	4	1	y	0.44348
654.1004	0.0	+	69	verb	list	3	5	match	nouveau	4	1	y	0.44348
654.5003	0.2	peut	69	verb	list	3	6	match	nouveau	4	1	y	0.44348
654.7003	0.0	+	69	verb	list	3	7	match	nouveau	4	1	y	0.44348
655.1003	0.2	nouveau	69	verb	list	3	8	match	nouveau	4	1	y	0.44348
655.3002	0.0	+	69	verb	list	3	9	match	nouveau	4	1	y	0.44348
655.7002	0.2	jongler	69	verb	list	3	10	match	nouveau	4	1	y	0.44348
655.9002	0.0	+	69	verb	list	3	11	match	nouveau	4	1	y	0.44348
656.3002	0.0	+	69	verb	list	3	12	match	nouveau	4	1	y	0.44348
658.3	0.0	NOUVEAU	69	verb	list	3	13	match	nouveau	4	1	y	0.44348
658.7999	0.0	+	69	verb	list	3	14	match	nouveau	4	1	y	0.44348
658.7435	0.0	[response]	69	verb	list	3	15	match	nouveau	4	1	y	0.44348
660.6997	0.0	+	70	verb	list	2	1	match	nager	5	1	y	0.67181
661.2497	0.2	mdhc	70	verb	list	2	2	match	nager	5	1	y	0.67181
661.4497	0.0	+	70	verb	list	2	3	match	nager	5	1	y	0.67181
661.8497	0.2	qpnm	70	verb	list	2	4	match	nager	5	1	y	0.67181
662.0496	0.0	+	70	verb	list	2	5	match	nager	5	1	y	0.67181
662.4496	0.2	svhw	70	verb	list	2	6	match	nager	5	1	y	0.67181
662.6496	0.0	+	70	verb	list	2	7	match	nager	5	1	y	0.67181
663.0508	0.2	grand	70	verb	list	2	8	match	nager	5	1	y	0.67181
663.2495	0.0	+	70	verb	list	2	9	match	nager	5	1	y	0.67181
663.6495	0.2	nager	70	verb	list	2	10	match	nager	5	1	y	0.67181
663.8495	0.0	+	70	verb	list	2	11	match	nager	5	1	y	0.67181
664.2494	0.0	+	70	verb	list	2	12	match	nager	5	1	y	0.67181
666.2493	0.0	NAGER	70	verb	list	2	13	match	nager	5	1	y	0.67181
666.9825	0.0	+	70	verb	list	2	14	match	nager	5	1	y	0.67181
666.9211	0.0	[response]	70	verb	list	2	15	match	nager	5	1	y	0.67181
668.649	0.0	+	71	verb	phrase	3	1	nomatch	sur	-1	1	p	0.77085
669.199	0.2	wzthxgk	71	verb	phrase	3	2	nomatch	sur	-1	1	p	0.77085
669.399	0.0	+	71	verb	phrase	3	3	nomatch	sur	-1	1	p	0.77085
669.7989	0.2	cvq	71	verb	phrase	3	4	nomatch	sur	-1	1	p	0.77085
669.9989	0.0	+	71	verb	phrase	3	5	nomatch	sur	-1	1	p	0.77085
670.3989	0.2	doit	71	verb	phrase	3	6	nomatch	sur	-1	1	p	0.77085
670.5989	0.0	+	71	verb	phrase	3	7	nomatch	sur	-1	1	p	0.77085
670.9988	0.2	trop	71	verb	phrase	3	8	nomatch	sur	-1	1	p	0.77085
671.1988	0.0	+	71	verb	phrase	3	9	nomatch	sur	-1	1	p	0.77085
671.5988	0.2	voyager	71	verb	phrase	3	10	nomatch	sur	-1	1	p	0.77085
671.7988	0.0	+	71	verb	phrase	3	11	nomatch	sur	-1	1	p	0.77085
672.1987	0.0	+	71	verb	phrase	3	12	nomatch	sur	-1	1	p	0.77085
674.1985	0.0	SUR	71	verb	phrase	3	13	nomatch	sur	-1	1	p	0.77085
675.0318	0.0	+	71	verb	phrase	3	14	nomatch	sur	-1	1	p	0.77085
674.9694	0.0	[response]	71	verb	phrase	3	15	nomatch	sur	-1	1	p	0.77085
684.5975999999999	0.0	+	72	verb	phrase	1	1	match	chasser	5	1	y	0.43969
685.1475	0.2	srj	72	verb	phrase	1	2	match	chasser	5	1	y	0.43969
685.3475	0.0	+	72	verb	phrase	1	3	match	chasser	5	1	y	0.43969
685.7475	0.2	pxbj	72	verb	phrase	1	4	match	chasser	5	1	y	0.43969
685.9475	0.0	+	72	verb	phrase	1	5	match	chasser	5	1	y	0.43969
686.3474	0.2	tpgs	72	verb	phrase	1	6	match	chasser	5	1	y	0.43969
686.5474	0.0	+	72	verb	phrase	1	7	match	chasser	5	1	y	0.43969
686.9474	0.2	kjtlc	72	verb	phrase	1	8	match	chasser	5	1	y	0.43969
687.1474	0.0	+	72	verb	phrase	1	9	match	chasser	5	1	y	0.43969
687.5473	0.2	chasser	72	verb	phrase	1	10	match	chasser	5	1	y	0.43969
687.7473	0.0	+	72	verb	phrase	1	11	match	chasser	5	1	y	0.43969
688.1473	0.0	+	72	verb	phrase	1	12	match	chasser	5	1	y	0.43969
690.1471	0.0	CHASSER	72	verb	phrase	1	13	match	chasser	5	1	y	0.43969
690.647	0.0	+	72	verb	phrase	1	14	match	chasser	5	1	y	0.43969
690.5868	0.0	[response]	72	verb	phrase	1	15	match	chasser	5	1	y	0.43969
692.5469	0.0	+	73	verb	list	1	1	match	jongler	5	1	y	0.75037
693.0968	0.2	djqsrcp	73	verb	list	1	2	match	jongler	5	1	y	0.75037
693.2968	0.0	+	73	verb	list	1	3	match	jongler	5	1	y	0.75037
693.6968	0.2	mpdb	73	verb	list	1	4	match	jongler	5	1	y	0.75037
693.8968	0.0	+	73	verb	list	1	5	match	jongler	5	1	y	0.75037
694.2967	0.2	rbh	73	verb	list	1	6	match	jongler	5	1	y	0.75037
694.4967	0.0	+	73	verb	list	1	7	match	jongler	5	1	y	0.75037
694.8967	0.2	bzvt	73	verb	list	1	8	match	jongler	5	1	y	0.75037
695.0966	0.0	+	73	verb	list	1	9	match	jongler	5	1	y	0.75037
695.4966	0.2	jongler	73	verb	list	1	10	match	jongler	5	1	y	0.75037
695.6966	0.0	+	73	verb	list	1	11	match	jongler	5	1	y	0.75037
696.0966	0.0	+	73	verb	list	1	12	match	jongler	5	1	y	0.75037
698.0964	0.0	JONGLER	73	verb	list	1	13	match	jongler	5	1	y	0.75037
698.913	0.0	+	73	verb	list	1	14	match	jongler	5	1	y	0.75037
698.8467	0.0	[response]	73	verb	list	1	15	match	jongler	5	1	y	0.75037
700.4962	0.0	+	74	verb	phrase	4	1	nomatch	luc	-1	1	p	0.61697
701.0461	0.2	jxh	74	verb	phrase	4	2	nomatch	luc	-1	1	p	0.61697
701.2461	0.0	+	74	verb	phrase	4	3	nomatch	luc	-1	1	p	0.61697
701.6461	0.2	yves	74	verb	phrase	4	4	nomatch	luc	-1	1	p	0.61697
701.846	0.0	+	74	verb	phrase	4	5	nomatch	luc	-1	1	p	0.61697
702.246	0.2	peut	74	verb	phrase	4	6	nomatch	luc	-1	1	p	0.61697
702.446	0.0	+	74	verb	phrase	4	7	nomatch	luc	-1	1	p	0.61697
702.8459	0.2	galoper	74	verb	phrase	4	8	nomatch	luc	-1	1	p	0.61697
703.0459	0.0	+	74	verb	phrase	4	9	nomatch	luc	-1	1	p	0.61697
703.4459	0.2	ainsi	74	verb	phrase	4	10	nomatch	luc	-1	1	p	0.61697
703.6459	0.0	+	74	verb	phrase	4	11	nomatch	luc	-1	1	p	0.61697
704.0458	0.0	+	74	verb	phrase	4	12	nomatch	luc	-1	1	p	0.61697
706.0457	0.0	LUC	74	verb	phrase	4	13	nomatch	luc	-1	1	p	0.61697
706.7289	0.0	+	74	verb	phrase	4	14	nomatch	luc	-1	1	p	0.61697
706.6626	0.0	[response]	74	verb	phrase	4	15	nomatch	luc	-1	1	p	0.61697
708.4454	0.0	+	75	verb	phrase	3	1	match	loin	5	1	y	1.2552
708.9954	0.2	djrvq	75	verb	phrase	3	2	match	loin	5	1	y	1.2552
709.1954	0.0	+	75	verb	phrase	3	3	match	loin	5	1	y	1.2552
709.5953	0.2	pxbj	75	verb	phrase	3	4	match	loin	5	1	y	1.2552
709.7953	0.0	+	75	verb	phrase	3	5	match	loin	5	1	y	1.2552
710.1953	0.2	va	75	verb	phrase	3	6	match	loin	5	1	y	1.2552
710.3953	0.0	+	75	verb	phrase	3	7	match	loin	5	1	y	1.2552
710.7952	0.2	plonger	75	verb	phrase	3	8	match	loin	5	1	y	1.2552
710.9952	0.0	+	75	verb	phrase	3	9	match	loin	5	1	y	1.2552
711.3952	0.2	loin	75	verb	phrase	3	10	match	loin	5	1	y	1.2552
711.5952	0.0	+	75	verb	phrase	3	11	match	loin	5	1	y	1.2552
711.9951	0.0	+	75	verb	phrase	3	12	match	loin	5	1	y	1.2552
713.9949	0.0	LOIN	75	verb	phrase	3	13	match	loin	5	1	y	1.2552
715.3115	0.0	+	75	verb	phrase	3	14	match	loin	5	1	y	1.2552
715.2501	0.0	[response]	75	verb	phrase	3	15	match	loin	5	1	y	1.2552
716.3947	0.0	+	76	noun	phrase	1	1	nomatch	mieux	-1	1	p	0.7300400000000001
716.9447	0.2	fxr	76	noun	phrase	1	2	nomatch	mieux	-1	1	p	0.7300400000000001
717.1447	0.0	+	76	noun	phrase	1	3	nomatch	mieux	-1	1	p	0.7300400000000001
717.5446	0.2	xrfg	76	noun	phrase	1	4	nomatch	mieux	-1	1	p	0.7300400000000001
717.7446	0.0	+	76	noun	phrase	1	5	nomatch	mieux	-1	1	p	0.7300400000000001
718.1446	0.2	lgcv	76	noun	phrase	1	6	nomatch	mieux	-1	1	p	0.7300400000000001
718.3445	0.0	+	76	noun	phrase	1	7	nomatch	mieux	-1	1	p	0.7300400000000001
718.7445	0.2	vgpdrm	76	noun	phrase	1	8	nomatch	mieux	-1	1	p	0.7300400000000001
718.9445	0.0	+	76	noun	phrase	1	9	nomatch	mieux	-1	1	p	0.7300400000000001
719.3445	0.2	vieux	76	noun	phrase	1	10	nomatch	mieux	-1	1	p	0.7300400000000001
719.5444	0.0	+	76	noun	phrase	1	11	nomatch	mieux	-1	1	p	0.7300400000000001
719.9444	0.0	+	76	noun	phrase	1	12	nomatch	mieux	-1	1	p	0.7300400000000001
721.9442	0.0	MIEUX	76	noun	phrase	1	13	nomatch	mieux	-1	1	p	0.7300400000000001
722.7441	0.0	+	76	noun	phrase	1	14	nomatch	mieux	-1	1	p	0.7300400000000001
722.6743000000001	0.0	[response]	76	noun	phrase	1	15	nomatch	mieux	-1	1	p	0.7300400000000001
724.344	0.0	+	77	verb	phrase	1	1	nomatch	petit	-1	1	p	1.4927
724.894	0.2	ztc	77	verb	phrase	1	2	nomatch	petit	-1	1	p	1.4927
725.0939	0.0	+	77	verb	phrase	1	3	nomatch	petit	-1	1	p	1.4927
725.4939	0.2	cvq	77	verb	phrase	1	4	nomatch	petit	-1	1	p	1.4927
725.6939	0.0	+	77	verb	phrase	1	5	nomatch	petit	-1	1	p	1.4927
726.0938	0.2	tpgs	77	verb	phrase	1	6	nomatch	petit	-1	1	p	1.4927
726.2938	0.0	+	77	verb	phrase	1	7	nomatch	petit	-1	1	p	1.4927
726.6938	0.2	cdlkjtx	77	verb	phrase	1	8	nomatch	petit	-1	1	p	1.4927
726.8937999999999	0.0	+	77	verb	phrase	1	9	nomatch	petit	-1	1	p	1.4927
727.2937	0.2	beaucoup	77	verb	phrase	1	10	nomatch	petit	-1	1	p	1.4927
727.4937	0.0	+	77	verb	phrase	1	11	nomatch	petit	-1	1	p	1.4927
727.8937	0.0	+	77	verb	phrase	1	12	nomatch	petit	-1	1	p	1.4927
729.8935	0.0	PETIT	77	verb	phrase	1	13	nomatch	petit	-1	1	p	1.4927
731.4434	0.0	+	77	verb	phrase	1	14	nomatch	petit	-1	1	p	1.4927
731.3862	0.0	[response]	77	verb	phrase	1	15	nomatch	petit	-1	1	p	1.4927
740.2926	0.0	+	78	verb	list	1	1	match	blanc	5	1	y	0.5415700000000001
740.8425	0.2	vtgs	78	verb	list	1	2	match	blanc	5	1	y	0.5415700000000001
741.0425	0.0	+	78	verb	list	1	3	match	blanc	5	1	y	0.5415700000000001
741.4425	0.2	mpdb	78	verb	list	1	4	match	blanc	5	1	y	0.5415700000000001
741.6424	0.0	+	78	verb	list	1	5	match	blanc	5	1	y	0.5415700000000001
742.0424	0.2	vft	78	verb	list	1	6	match	blanc	5	1	y	0.5415700000000001
742.2424	0.0	+	78	verb	list	1	7	match	blanc	5	1	y	0.5415700000000001
742.6424	0.2	cghrq	78	verb	list	1	8	match	blanc	5	1	y	0.5415700000000001
742.8423	0.0	+	78	verb	list	1	9	match	blanc	5	1	y	0.5415700000000001
743.2423	0.2	blanc	78	verb	list	1	10	match	blanc	5	1	y	0.5415700000000001
743.4423	0.0	+	78	verb	list	1	11	match	blanc	5	1	y	0.5415700000000001
743.8422	0.0	+	78	verb	list	1	12	match	blanc	5	1	y	0.5415700000000001
745.8421	0.0	BLANC	78	verb	list	1	13	match	blanc	5	1	y	0.5415700000000001
746.442	0.0	+	78	verb	list	1	14	match	blanc	5	1	y	0.5415700000000001
746.3836	0.0	[response]	78	verb	list	1	15	match	blanc	5	1	y	0.5415700000000001
748.2418	0.0	+	79	noun	phrase	1	1	match	cendrier	5	1	y	0.46435
748.7918	0.2	pfsd	79	noun	phrase	1	2	match	cendrier	5	1	y	0.46435
748.9918	0.0	+	79	noun	phrase	1	3	match	cendrier	5	1	y	0.46435
749.3917	0.2	jkhs	79	noun	phrase	1	4	match	cendrier	5	1	y	0.46435
749.5917	0.0	+	79	noun	phrase	1	5	match	cendrier	5	1	y	0.46435
749.9917	0.2	lgcv	79	noun	phrase	1	6	match	cendrier	5	1	y	0.46435
750.1917	0.0	+	79	noun	phrase	1	7	match	cendrier	5	1	y	0.46435
750.5916	0.2	mpvhd	79	noun	phrase	1	8	match	cendrier	5	1	y	0.46435
750.7916	0.0	+	79	noun	phrase	1	9	match	cendrier	5	1	y	0.46435
751.1916	0.2	cendrier	79	noun	phrase	1	10	match	cendrier	5	1	y	0.46435
751.3916	0.0	+	79	noun	phrase	1	11	match	cendrier	5	1	y	0.46435
751.7915	0.0	+	79	noun	phrase	1	12	match	cendrier	5	1	y	0.46435
753.7913	0.0	CENDRIER	79	noun	phrase	1	13	match	cendrier	5	1	y	0.46435
754.3246	0.0	+	79	noun	phrase	1	14	match	cendrier	5	1	y	0.46435
754.2557000000002	0.0	[response]	79	noun	phrase	1	15	match	cendrier	5	1	y	0.46435
756.1911	0.0	+	80	verb	phrase	1	1	nomatch	mon	-1	1	p	0.49073000000000006
756.7411	0.2	xlwv	80	verb	phrase	1	2	nomatch	mon	-1	1	p	0.49073000000000006
756.9411	0.0	+	80	verb	phrase	1	3	nomatch	mon	-1	1	p	0.49073000000000006
757.341	0.2	rmkt	80	verb	phrase	1	4	nomatch	mon	-1	1	p	0.49073000000000006
757.541	0.0	+	80	verb	phrase	1	5	nomatch	mon	-1	1	p	0.49073000000000006
757.941	0.2	cn	80	verb	phrase	1	6	nomatch	mon	-1	1	p	0.49073000000000006
758.1409	0.0	+	80	verb	phrase	1	7	nomatch	mon	-1	1	p	0.49073000000000006
758.5409	0.2	rcvhxtm	80	verb	phrase	1	8	nomatch	mon	-1	1	p	0.49073000000000006
758.7409	0.0	+	80	verb	phrase	1	9	nomatch	mon	-1	1	p	0.49073000000000006
759.1409	0.2	tard	80	verb	phrase	1	10	nomatch	mon	-1	1	p	0.49073000000000006
759.3408	0.0	+	80	verb	phrase	1	11	nomatch	mon	-1	1	p	0.49073000000000006
759.7408	0.0	+	80	verb	phrase	1	12	nomatch	mon	-1	1	p	0.49073000000000006
761.7406	0.0	MON	80	verb	phrase	1	13	nomatch	mon	-1	1	p	0.49073000000000006
762.2906	0.0	+	80	verb	phrase	1	14	nomatch	mon	-1	1	p	0.49073000000000006
764.1404	0.0	+	80	verb	phrase	1	15	nomatch	mon	-1	1	p	0.49073000000000006
765.0237	0.0	+	80	verb	phrase	1	16	nomatch	mon	-1	1	p	0.49073000000000006
765.1237	0.0	+	80	verb	phrase	1	17	nomatch	mon	-1	1	p	0.49073000000000006
766.5069	0.0	+	80	verb	phrase	1	18	nomatch	mon	-1	1	p	0.49073000000000006
766.6069	0.0	+	80	verb	phrase	1	19	nomatch	mon	-1	1	p	0.49073000000000006
768.0067	0.0	+	80	verb	phrase	1	20	nomatch	mon	-1	1	p	0.49073000000000006
768.1067	0.0	+	80	verb	phrase	1	21	nomatch	mon	-1	1	p	0.49073000000000006
769.5066	0.0	+	80	verb	phrase	1	22	nomatch	mon	-1	1	p	0.49073000000000006
769.6066	0.0	+	80	verb	phrase	1	23	nomatch	mon	-1	1	p	0.49073000000000006
771.0064	0.0	+	80	verb	phrase	1	24	nomatch	mon	-1	1	p	0.49073000000000006
771.1064	0.0	+	80	verb	phrase	1	25	nomatch	mon	-1	1	p	0.49073000000000006
772.5063	0.0	+	80	verb	phrase	1	26	nomatch	mon	-1	1	p	0.49073000000000006
772.6063	0.0	+	80	verb	phrase	1	27	nomatch	mon	-1	1	p	0.49073000000000006
774.0062	0.0	+	80	verb	phrase	1	28	nomatch	mon	-1	1	p	0.49073000000000006
774.1062	0.0	+	80	verb	phrase	1	29	nomatch	mon	-1	1	p	0.49073000000000006
775.506	0.0	+	80	verb	phrase	1	30	nomatch	mon	-1	1	p	0.49073000000000006
775.606	0.0	+	80	verb	phrase	1	31	nomatch	mon	-1	1	p	0.49073000000000006
777.0059	0.0	+	80	verb	phrase	1	32	nomatch	mon	-1	1	p	0.49073000000000006
777.1059	0.0	+	80	verb	phrase	1	33	nomatch	mon	-1	1	p	0.49073000000000006
778.5058	0.0	+	80	verb	phrase	1	34	nomatch	mon	-1	1	p	0.49073000000000006
778.6058	0.0	+	80	verb	phrase	1	35	nomatch	mon	-1	1	p	0.49073000000000006
780.8722	0.0	+	80	verb	phrase	1	36	nomatch	mon	-1	1	p	0.49073000000000006
762.2314	0.0	[response]	80	verb	phrase	1	37	nomatch	mon	-1	1	p	0.49073000000000006
