onset	duration	stim	trial_number	trial_type	trial_structure	trial_length	sequential_position	probe_type	probe	probe_position	response_correct	response_key	response_time
0.06730000000000302	0.0	+	1	noun	list	2	1	match	rocher	5	1	y	0.76772
0.5337000000000032	0.2	dmgswpl	1	noun	list	2	2	match	rocher	5	1	y	0.76772
0.7336000000000027	0.0	+	1	noun	list	2	3	match	rocher	5	1	y	0.76772
1.133499999999998	0.2	hfk	1	noun	list	2	4	match	rocher	5	1	y	0.76772
1.3500000000000085	0.0	+	1	noun	list	2	5	match	rocher	5	1	y	0.76772
1.7498999999999967	0.2	fpmt	1	noun	list	2	6	match	rocher	5	1	y	0.76772
1.9497999999999962	0.0	+	1	noun	list	2	7	match	rocher	5	1	y	0.76772
2.3496000000000095	0.2	mieux	1	noun	list	2	8	match	rocher	5	1	y	0.76772
2.549500000000009	0.0	+	1	noun	list	2	9	match	rocher	5	1	y	0.76772
2.949300000000008	0.2	rocher	1	noun	list	2	10	match	rocher	5	1	y	0.76772
3.1492000000000075	0.0	+	1	noun	list	2	11	match	rocher	5	1	y	0.76772
3.5490000000000066	0.0	+	1	noun	list	2	12	match	rocher	5	1	y	0.76772
5.5482000000000085	0.0	ROCHER	1	noun	list	2	13	match	rocher	5	1	y	0.76772
6.3811000000000035	0.0	+	1	noun	list	2	14	match	rocher	5	1	y	0.76772
6.315899999999999	0.0	[response]	1	noun	list	2	15	match	rocher	5	1	y	0.76772
7.947100000000006	0.0	+	2	noun	list	1	1	match	sablier	5	1	y	0.6539300000000001
8.496800000000007	0.2	wglcn	2	noun	list	1	2	match	sablier	5	1	y	0.6539300000000001
8.696700000000007	0.0	+	2	noun	list	1	3	match	sablier	5	1	y	0.6539300000000001
9.09660000000001	0.2	npvf	2	noun	list	1	4	match	sablier	5	1	y	0.6539300000000001
9.296500000000009	0.0	+	2	noun	list	1	5	match	sablier	5	1	y	0.6539300000000001
9.696300000000008	0.2	zxd	2	noun	list	1	6	match	sablier	5	1	y	0.6539300000000001
9.896200000000007	0.0	+	2	noun	list	1	7	match	sablier	5	1	y	0.6539300000000001
10.296000000000006	0.2	xhdnfgjc	2	noun	list	1	8	match	sablier	5	1	y	0.6539300000000001
10.495900000000006	0.0	+	2	noun	list	1	9	match	sablier	5	1	y	0.6539300000000001
10.895800000000008	0.2	sablier	2	noun	list	1	10	match	sablier	5	1	y	0.6539300000000001
11.095700000000008	0.0	+	2	noun	list	1	11	match	sablier	5	1	y	0.6539300000000001
11.495500000000007	0.0	+	2	noun	list	1	12	match	sablier	5	1	y	0.6539300000000001
13.494600000000005	0.0	SABLIER	2	noun	list	1	13	match	sablier	5	1	y	0.6539300000000001
14.210999999999999	0.0	+	2	noun	list	1	14	match	sablier	5	1	y	0.6539300000000001
14.148499999999999	0.0	[response]	2	noun	list	1	15	match	sablier	5	1	y	0.6539300000000001
23.89	0.0	+	3	noun	phrase	3	1	match	son	3	1	y	0.67177
24.439700000000002	0.2	hcz	3	noun	phrase	3	2	match	son	3	1	y	0.67177
24.6396	0.0	+	3	noun	phrase	3	3	match	son	3	1	y	0.67177
25.0394	0.2	pkq	3	noun	phrase	3	4	match	son	3	1	y	0.67177
25.239400000000003	0.0	+	3	noun	phrase	3	5	match	son	3	1	y	0.67177
25.639200000000002	0.2	son	3	noun	phrase	3	6	match	son	3	1	y	0.67177
25.839100000000002	0.0	+	3	noun	phrase	3	7	match	son	3	1	y	0.67177
26.2389	0.2	beau	3	noun	phrase	3	8	match	son	3	1	y	0.67177
26.4388	0.0	+	3	noun	phrase	3	9	match	son	3	1	y	0.67177
26.838700000000003	0.2	panier	3	noun	phrase	3	10	match	son	3	1	y	0.67177
27.038600000000002	0.0	+	3	noun	phrase	3	11	match	son	3	1	y	0.67177
27.4384	0.0	+	3	noun	phrase	3	12	match	son	3	1	y	0.67177
29.4375	0.0	SON	3	noun	phrase	3	13	match	son	3	1	y	0.67177
30.170500000000004	0.0	+	3	noun	phrase	3	14	match	son	3	1	y	0.67177
30.10930000000002	0.0	[response]	3	noun	phrase	3	15	match	son	3	1	y	0.67177
31.836700000000008	0.0	+	4	noun	list	1	1	match	voilier	5	1	y	0.59542
32.3862	0.2	wpsdlhj	4	noun	list	1	2	match	voilier	5	1	y	0.59542
32.5861	0.0	+	4	noun	list	1	3	match	voilier	5	1	y	0.59542
32.9859	0.2	rflt	4	noun	list	1	4	match	voilier	5	1	y	0.59542
33.1858	0.0	+	4	noun	list	1	5	match	voilier	5	1	y	0.59542
33.5856	0.2	mvbw	4	noun	list	1	6	match	voilier	5	1	y	0.59542
33.7855	0.0	+	4	noun	list	1	7	match	voilier	5	1	y	0.59542
34.1854	0.2	bhlq	4	noun	list	1	8	match	voilier	5	1	y	0.59542
34.3853	0.0	+	4	noun	list	1	9	match	voilier	5	1	y	0.59542
34.7851	0.2	voilier	4	noun	list	1	10	match	voilier	5	1	y	0.59542
34.985	0.0	+	4	noun	list	1	11	match	voilier	5	1	y	0.59542
35.3848	0.0	+	4	noun	list	1	12	match	voilier	5	1	y	0.59542
37.3839	0.0	VOILIER	4	noun	list	1	13	match	voilier	5	1	y	0.59542
38.033699999999996	0.0	+	4	noun	list	1	14	match	voilier	5	1	y	0.59542
37.9794	0.0	[response]	4	noun	list	1	15	match	voilier	5	1	y	0.59542
39.79950000000001	0.0	+	5	noun	list	1	1	match	cendrier	5	1	y	0.70813
40.3493	0.2	grmxl	5	noun	list	1	2	match	cendrier	5	1	y	0.70813
40.5492	0.0	+	5	noun	list	1	3	match	cendrier	5	1	y	0.70813
40.949	0.2	hfk	5	noun	list	1	4	match	cendrier	5	1	y	0.70813
41.1489	0.0	+	5	noun	list	1	5	match	cendrier	5	1	y	0.70813
41.5487	0.2	fpmt	5	noun	list	1	6	match	cendrier	5	1	y	0.70813
41.748599999999996	0.0	+	5	noun	list	1	7	match	cendrier	5	1	y	0.70813
42.1485	0.2	znptx	5	noun	list	1	8	match	cendrier	5	1	y	0.70813
42.3484	0.0	+	5	noun	list	1	9	match	cendrier	5	1	y	0.70813
42.7482	0.2	cendrier	5	noun	list	1	10	match	cendrier	5	1	y	0.70813
42.9481	0.0	+	5	noun	list	1	11	match	cendrier	5	1	y	0.70813
43.347899999999996	0.0	+	5	noun	list	1	12	match	cendrier	5	1	y	0.70813
45.34700000000001	0.0	CENDRIER	5	noun	list	1	13	match	cendrier	5	1	y	0.70813
46.1134	0.0	+	5	noun	list	1	14	match	cendrier	5	1	y	0.70813
46.05520000000001	0.0	[response]	5	noun	list	1	15	match	cendrier	5	1	y	0.70813
47.74600000000001	0.0	+	6	verb	list	1	1	nomatch	pour	-1	1	p	0.8327300000000001
48.2957	0.2	cqm	6	verb	list	1	2	nomatch	pour	-1	1	p	0.8327300000000001
48.495599999999996	0.0	+	6	verb	list	1	3	nomatch	pour	-1	1	p	0.8327300000000001
48.8955	0.2	jhvb	6	verb	list	1	4	nomatch	pour	-1	1	p	0.8327300000000001
49.0954	0.0	+	6	verb	list	1	5	nomatch	pour	-1	1	p	0.8327300000000001
49.4952	0.2	kmc	6	verb	list	1	6	nomatch	pour	-1	1	p	0.8327300000000001
49.6951	0.0	+	6	verb	list	1	7	nomatch	pour	-1	1	p	0.8327300000000001
50.094899999999996	0.2	xjrs	6	verb	list	1	8	nomatch	pour	-1	1	p	0.8327300000000001
50.29480000000001	0.0	+	6	verb	list	1	9	nomatch	pour	-1	1	p	0.8327300000000001
50.6947	0.2	plonger	6	verb	list	1	10	nomatch	pour	-1	1	p	0.8327300000000001
50.8946	0.0	+	6	verb	list	1	11	nomatch	pour	-1	1	p	0.8327300000000001
51.294399999999996	0.0	+	6	verb	list	1	12	nomatch	pour	-1	1	p	0.8327300000000001
53.29350000000001	0.0	POUR	6	verb	list	1	13	nomatch	pour	-1	1	p	0.8327300000000001
54.1931	0.0	+	6	verb	list	1	14	nomatch	pour	-1	1	p	0.8327300000000001
54.1262	0.0	[response]	6	verb	list	1	15	nomatch	pour	-1	1	p	0.8327300000000001
55.692400000000006	0.0	+	7	verb	list	2	1	nomatch	galoper	-1	1	p	0.90422
56.2422	0.2	klf	7	verb	list	2	2	nomatch	galoper	-1	1	p	0.90422
56.442099999999996	0.0	+	7	verb	list	2	3	nomatch	galoper	-1	1	p	0.90422
56.84190000000001	0.2	fgvt	7	verb	list	2	4	nomatch	galoper	-1	1	p	0.90422
57.04180000000001	0.0	+	7	verb	list	2	5	nomatch	galoper	-1	1	p	0.90422
57.44160000000001	0.2	lj	7	verb	list	2	6	nomatch	galoper	-1	1	p	0.90422
57.6416	0.0	+	7	verb	list	2	7	nomatch	galoper	-1	1	p	0.90422
58.041399999999996	0.2	grand	7	verb	list	2	8	nomatch	galoper	-1	1	p	0.90422
58.24130000000001	0.0	+	7	verb	list	2	9	nomatch	galoper	-1	1	p	0.90422
58.64110000000001	0.2	jongler	7	verb	list	2	10	nomatch	galoper	-1	1	p	0.90422
58.84100000000001	0.0	+	7	verb	list	2	11	nomatch	galoper	-1	1	p	0.90422
59.240899999999996	0.0	+	7	verb	list	2	12	nomatch	galoper	-1	1	p	0.90422
61.24000000000001	0.0	GALOPER	7	verb	list	2	13	nomatch	galoper	-1	1	p	0.90422
62.206199999999995	0.0	+	7	verb	list	2	14	nomatch	galoper	-1	1	p	0.90422
62.1442	0.0	[response]	7	verb	list	2	15	nomatch	galoper	-1	1	p	0.90422
63.63890000000001	0.0	+	8	noun	phrase	4	1	match	pour	2	1	y	0.5600900000000001
64.18860000000001	0.2	gkb	8	noun	phrase	4	2	match	pour	2	1	y	0.5600900000000001
64.38850000000001	0.0	+	8	noun	phrase	4	3	match	pour	2	1	y	0.5600900000000001
64.7884	0.2	pour	8	noun	phrase	4	4	match	pour	2	1	y	0.5600900000000001
64.98830000000001	0.0	+	8	noun	phrase	4	5	match	pour	2	1	y	0.5600900000000001
65.38810000000001	0.2	son	8	noun	phrase	4	6	match	pour	2	1	y	0.5600900000000001
65.588	0.0	+	8	noun	phrase	4	7	match	pour	2	1	y	0.5600900000000001
65.98840000000001	0.2	nouveau	8	noun	phrase	4	8	match	pour	2	1	y	0.5600900000000001
66.1877	0.0	+	8	noun	phrase	4	9	match	pour	2	1	y	0.5600900000000001
66.58760000000001	0.2	panier	8	noun	phrase	4	10	match	pour	2	1	y	0.5600900000000001
66.7875	0.0	+	8	noun	phrase	4	11	match	pour	2	1	y	0.5600900000000001
67.1873	0.0	+	8	noun	phrase	4	12	match	pour	2	1	y	0.5600900000000001
69.18639999999999	0.0	POUR	8	noun	phrase	4	13	match	pour	2	1	y	0.5600900000000001
69.80279999999999	0.0	+	8	noun	phrase	4	14	match	pour	2	1	y	0.5600900000000001
69.7465	0.0	[response]	8	noun	phrase	4	15	match	pour	2	1	y	0.5600900000000001
71.58529999999999	0.0	+	9	noun	phrase	4	1	nomatch	voyager	-1	1	p	1.0006
72.1351	0.2	pzq	9	noun	phrase	4	2	nomatch	voyager	-1	1	p	1.0006
72.33500000000001	0.0	+	9	noun	phrase	4	3	nomatch	voyager	-1	1	p	1.0006
72.7348	0.2	sur	9	noun	phrase	4	4	nomatch	voyager	-1	1	p	1.0006
72.93469999999999	0.0	+	9	noun	phrase	4	5	nomatch	voyager	-1	1	p	1.0006
73.3348	0.2	leur	9	noun	phrase	4	6	nomatch	voyager	-1	1	p	1.0006
73.53450000000001	0.0	+	9	noun	phrase	4	7	nomatch	voyager	-1	1	p	1.0006
73.93430000000001	0.2	casier	9	noun	phrase	4	8	nomatch	voyager	-1	1	p	1.0006
74.13419999999999	0.0	+	9	noun	phrase	4	9	nomatch	voyager	-1	1	p	1.0006
74.53399999999999	0.2	noir	9	noun	phrase	4	10	nomatch	voyager	-1	1	p	1.0006
74.7339	0.0	+	9	noun	phrase	4	11	nomatch	voyager	-1	1	p	1.0006
75.1337	0.0	+	9	noun	phrase	4	12	nomatch	voyager	-1	1	p	1.0006
77.14949999999999	0.0	VOYAGER	9	noun	phrase	4	13	nomatch	voyager	-1	1	p	1.0006
78.2157	0.0	+	9	noun	phrase	4	14	nomatch	voyager	-1	1	p	1.0006
78.15010000000001	0.0	[response]	9	noun	phrase	4	15	nomatch	voyager	-1	1	p	1.0006
79.54840000000002	0.0	+	10	noun	phrase	2	1	match	beau	4	1	y	1.0206
80.09819999999999	0.2	lgpmjnq	10	noun	phrase	2	2	match	beau	4	1	y	1.0206
80.2981	0.0	+	10	noun	phrase	2	3	match	beau	4	1	y	1.0206
80.6979	0.2	rflt	10	noun	phrase	2	4	match	beau	4	1	y	1.0206
80.89779999999999	0.0	+	10	noun	phrase	2	5	match	beau	4	1	y	1.0206
81.29759999999999	0.2	fpmt	10	noun	phrase	2	6	match	beau	4	1	y	1.0206
81.4976	0.0	+	10	noun	phrase	2	7	match	beau	4	1	y	1.0206
81.8974	0.2	beau	10	noun	phrase	2	8	match	beau	4	1	y	1.0206
82.09729999999999	0.0	+	10	noun	phrase	2	9	match	beau	4	1	y	1.0206
82.49709999999999	0.2	tablier	10	noun	phrase	2	10	match	beau	4	1	y	1.0206
82.697	0.0	+	10	noun	phrase	2	11	match	beau	4	1	y	1.0206
83.0969	0.0	+	10	noun	phrase	2	12	match	beau	4	1	y	1.0206
85.096	0.0	BEAU	10	noun	phrase	2	13	match	beau	4	1	y	1.0206
86.1788	0.0	+	10	noun	phrase	2	14	match	beau	4	1	y	1.0206
86.1165	0.0	[response]	10	noun	phrase	2	15	match	beau	4	1	y	1.0206
87.4949	0.0	+	11	noun	phrase	1	1	nomatch	rocher	-1	1	p	1.6798
88.0446	0.2	mbnjdh	11	noun	phrase	1	2	nomatch	rocher	-1	1	p	1.6798
88.24459999999999	0.0	+	11	noun	phrase	1	3	nomatch	rocher	-1	1	p	1.6798
88.64439999999999	0.2	nwdx	11	noun	phrase	1	4	nomatch	rocher	-1	1	p	1.6798
88.8443	0.0	+	11	noun	phrase	1	5	nomatch	rocher	-1	1	p	1.6798
89.2441	0.2	zxd	11	noun	phrase	1	6	nomatch	rocher	-1	1	p	1.6798
89.44399999999999	0.0	+	11	noun	phrase	1	7	nomatch	rocher	-1	1	p	1.6798
89.84380000000002	0.2	vsmnl	11	noun	phrase	1	8	nomatch	rocher	-1	1	p	1.6798
90.0438	0.0	+	11	noun	phrase	1	9	nomatch	rocher	-1	1	p	1.6798
90.4436	0.2	clavier	11	noun	phrase	1	10	nomatch	rocher	-1	1	p	1.6798
90.64349999999999	0.0	+	11	noun	phrase	1	11	nomatch	rocher	-1	1	p	1.6798
91.04330000000002	0.0	+	11	noun	phrase	1	12	nomatch	rocher	-1	1	p	1.6798
93.04240000000001	0.0	ROCHER	11	noun	phrase	1	13	nomatch	rocher	-1	1	p	1.6798
94.775	0.0	+	11	noun	phrase	1	14	nomatch	rocher	-1	1	p	1.6798
94.72229999999999	0.0	[response]	11	noun	phrase	1	15	nomatch	rocher	-1	1	p	1.6798
95.44140000000002	0.0	+	12	verb	list	3	1	match	vieux	4	1	y	0.93114
95.99109999999999	0.2	msdnfqk	12	verb	list	3	2	match	vieux	4	1	y	0.93114
96.191	0.0	+	12	verb	list	3	3	match	vieux	4	1	y	0.93114
96.5908	0.2	pklg	12	verb	list	3	4	match	vieux	4	1	y	0.93114
96.79070000000002	0.0	+	12	verb	list	3	5	match	vieux	4	1	y	0.93114
97.19059999999999	0.2	va	12	verb	list	3	6	match	vieux	4	1	y	0.93114
97.3905	0.0	+	12	verb	list	3	7	match	vieux	4	1	y	0.93114
97.7903	0.2	vieux	12	verb	list	3	8	match	vieux	4	1	y	0.93114
97.99020000000002	0.0	+	12	verb	list	3	9	match	vieux	4	1	y	0.93114
98.39000000000001	0.2	chasser	12	verb	list	3	10	match	vieux	4	1	y	0.93114
98.5899	0.0	+	12	verb	list	3	11	match	vieux	4	1	y	0.93114
98.9898	0.0	+	12	verb	list	3	12	match	vieux	4	1	y	0.93114
100.9889	0.0	VIEUX	12	verb	list	3	13	match	vieux	4	1	y	0.93114
101.9718	0.0	+	12	verb	list	3	14	match	vieux	4	1	y	0.93114
101.92000000000002	0.0	[response]	12	verb	list	3	15	match	vieux	4	1	y	0.93114
103.3878	0.0	+	13	noun	phrase	4	1	match	casier	5	1	y	0.89491
103.9376	0.2	vkhlg	13	noun	phrase	4	2	match	casier	5	1	y	0.89491
104.13749999999999	0.0	+	13	noun	phrase	4	3	match	casier	5	1	y	0.89491
104.53730000000002	0.2	avec	13	noun	phrase	4	4	match	casier	5	1	y	0.89491
104.7372	0.0	+	13	noun	phrase	4	5	match	casier	5	1	y	0.89491
105.137	0.2	son	13	noun	phrase	4	6	match	casier	5	1	y	0.89491
105.33699999999999	0.0	+	13	noun	phrase	4	7	match	casier	5	1	y	0.89491
105.73680000000002	0.2	petit	13	noun	phrase	4	8	match	casier	5	1	y	0.89491
105.9366	0.0	+	13	noun	phrase	4	9	match	casier	5	1	y	0.89491
106.3365	0.2	casier	13	noun	phrase	4	10	match	casier	5	1	y	0.89491
106.53640000000001	0.0	+	13	noun	phrase	4	11	match	casier	5	1	y	0.89491
106.93620000000001	0.0	+	13	noun	phrase	4	12	match	casier	5	1	y	0.89491
108.93530000000001	0.0	CASIER	13	noun	phrase	4	13	match	casier	5	1	y	0.89491
109.88490000000002	0.0	+	13	noun	phrase	4	14	match	casier	5	1	y	0.89491
109.83019999999999	0.0	[response]	13	noun	phrase	4	15	match	casier	5	1	y	0.89491
111.33500000000001	0.0	+	14	noun	phrase	3	1	nomatch	sablier	-1	1	p	0.96192
111.88400000000001	0.2	sfxqbm	14	noun	phrase	3	2	nomatch	sablier	-1	1	p	0.96192
112.0839	0.0	+	14	noun	phrase	3	3	nomatch	sablier	-1	1	p	0.96192
112.4837	0.2	lnjp	14	noun	phrase	3	4	nomatch	sablier	-1	1	p	0.96192
112.68370000000002	0.0	+	14	noun	phrase	3	5	nomatch	sablier	-1	1	p	0.96192
113.08350000000002	0.2	mon	14	noun	phrase	3	6	nomatch	sablier	-1	1	p	0.96192
113.30000000000001	0.0	+	14	noun	phrase	3	7	nomatch	sablier	-1	1	p	0.96192
113.69990000000001	0.2	rocher	14	noun	phrase	3	8	nomatch	sablier	-1	1	p	0.96192
113.8998	0.0	+	14	noun	phrase	3	9	nomatch	sablier	-1	1	p	0.96192
114.2996	0.2	rouge	14	noun	phrase	3	10	nomatch	sablier	-1	1	p	0.96192
114.49950000000001	0.0	+	14	noun	phrase	3	11	nomatch	sablier	-1	1	p	0.96192
114.89930000000001	0.0	+	14	noun	phrase	3	12	nomatch	sablier	-1	1	p	0.96192
116.89840000000001	0.0	SABLIER	14	noun	phrase	3	13	nomatch	sablier	-1	1	p	0.96192
117.91460000000001	0.0	+	14	noun	phrase	3	14	nomatch	sablier	-1	1	p	0.96192
117.8604	0.0	[response]	14	noun	phrase	3	15	nomatch	sablier	-1	1	p	0.96192
119.29740000000001	0.0	+	15	noun	phrase	2	1	match	beau	4	1	y	0.7927200000000001
119.84710000000001	0.2	bszdt	15	noun	phrase	2	2	match	beau	4	1	y	0.7927200000000001
120.047	0.0	+	15	noun	phrase	2	3	match	beau	4	1	y	0.7927200000000001
120.4469	0.2	wpsh	15	noun	phrase	2	4	match	beau	4	1	y	0.7927200000000001
120.64680000000001	0.0	+	15	noun	phrase	2	5	match	beau	4	1	y	0.7927200000000001
121.04660000000001	0.2	fpmt	15	noun	phrase	2	6	match	beau	4	1	y	0.7927200000000001
121.2465	0.0	+	15	noun	phrase	2	7	match	beau	4	1	y	0.7927200000000001
121.6463	0.2	beau	15	noun	phrase	2	8	match	beau	4	1	y	0.7927200000000001
121.84620000000001	0.0	+	15	noun	phrase	2	9	match	beau	4	1	y	0.7927200000000001
122.24600000000001	0.2	voilier	15	noun	phrase	2	10	match	beau	4	1	y	0.7927200000000001
122.446	0.0	+	15	noun	phrase	2	11	match	beau	4	1	y	0.7927200000000001
122.8458	0.0	+	15	noun	phrase	2	12	match	beau	4	1	y	0.7927200000000001
124.8449	0.0	BEAU	15	noun	phrase	2	13	match	beau	4	1	y	0.7927200000000001
125.6945	0.0	+	15	noun	phrase	2	14	match	beau	4	1	y	0.7927200000000001
125.63759999999999	0.0	[response]	15	noun	phrase	2	15	match	beau	4	1	y	0.7927200000000001
127.2438	0.0	+	16	verb	list	4	1	nomatch	grand	-1	1	p	0.94584
127.7936	0.2	wstvk	16	verb	list	4	2	nomatch	grand	-1	1	p	0.94584
127.99350000000001	0.0	+	16	verb	list	4	3	nomatch	grand	-1	1	p	0.94584
128.3933	0.2	sous	16	verb	list	4	4	nomatch	grand	-1	1	p	0.94584
128.5932	0.0	+	16	verb	list	4	5	nomatch	grand	-1	1	p	0.94584
128.993	0.2	doit	16	verb	list	4	6	nomatch	grand	-1	1	p	0.94584
129.1929	0.0	+	16	verb	list	4	7	nomatch	grand	-1	1	p	0.94584
129.5928	0.2	nouveau	16	verb	list	4	8	nomatch	grand	-1	1	p	0.94584
129.7927	0.0	+	16	verb	list	4	9	nomatch	grand	-1	1	p	0.94584
130.1925	0.2	galoper	16	verb	list	4	10	nomatch	grand	-1	1	p	0.94584
130.3924	0.0	+	16	verb	list	4	11	nomatch	grand	-1	1	p	0.94584
130.7922	0.0	+	16	verb	list	4	12	nomatch	grand	-1	1	p	0.94584
132.7913	0.0	GRAND	16	verb	list	4	13	nomatch	grand	-1	1	p	0.94584
133.7909	0.0	+	16	verb	list	4	14	nomatch	grand	-1	1	p	0.94584
133.7372	0.0	[response]	16	verb	list	4	15	nomatch	grand	-1	1	p	0.94584
135.1903	0.0	+	17	noun	list	1	1	match	plus	5	1	y	0.5539
135.74	0.2	cgsf	17	noun	list	1	2	match	plus	5	1	y	0.5539
135.9399	0.0	+	17	noun	list	1	3	match	plus	5	1	y	0.5539
136.3397	0.2	qhft	17	noun	list	1	4	match	plus	5	1	y	0.5539
136.5397	0.0	+	17	noun	list	1	5	match	plus	5	1	y	0.5539
136.9395	0.2	fpmt	17	noun	list	1	6	match	plus	5	1	y	0.5539
137.1394	0.0	+	17	noun	list	1	7	match	plus	5	1	y	0.5539
137.5392	0.2	grdlthc	17	noun	list	1	8	match	plus	5	1	y	0.5539
137.7391	0.0	+	17	noun	list	1	9	match	plus	5	1	y	0.5539
138.1389	0.2	plus	17	noun	list	1	10	match	plus	5	1	y	0.5539
138.3388	0.0	+	17	noun	list	1	11	match	plus	5	1	y	0.5539
138.7387	0.0	+	17	noun	list	1	12	match	plus	5	1	y	0.5539
140.7378	0.0	PLUS	17	noun	list	1	13	match	plus	5	1	y	0.5539
141.3542	0.0	+	17	noun	list	1	14	match	plus	5	1	y	0.5539
141.2917	0.0	[response]	17	noun	list	1	15	match	plus	5	1	y	0.5539
143.1367	0.0	+	18	verb	list	1	1	match	jongler	5	1	y	1.123
143.6865	0.2	kjnv	18	verb	list	1	2	match	jongler	5	1	y	1.123
143.8864	0.0	+	18	verb	list	1	3	match	jongler	5	1	y	1.123
144.2862	0.2	hfk	18	verb	list	1	4	match	jongler	5	1	y	1.123
144.4861	0.0	+	18	verb	list	1	5	match	jongler	5	1	y	1.123
144.8859	0.2	zxd	18	verb	list	1	6	match	jongler	5	1	y	1.123
145.0858	0.0	+	18	verb	list	1	7	match	jongler	5	1	y	1.123
145.4857	0.2	kwmcf	18	verb	list	1	8	match	jongler	5	1	y	1.123
145.6856	0.0	+	18	verb	list	1	9	match	jongler	5	1	y	1.123
146.0854	0.2	jongler	18	verb	list	1	10	match	jongler	5	1	y	1.123
146.2853	0.0	+	18	verb	list	1	11	match	jongler	5	1	y	1.123
146.6851	0.0	+	18	verb	list	1	12	match	jongler	5	1	y	1.123
148.6842	0.0	JONGLER	18	verb	list	1	13	match	jongler	5	1	y	1.123
149.8671	0.0	+	18	verb	list	1	14	match	jongler	5	1	y	1.123
149.8073	0.0	[response]	18	verb	list	1	15	match	jongler	5	1	y	1.123
159.0963	0.0	+	19	noun	phrase	1	1	nomatch	cendrier	-1	1	p	0.7856
159.64600000000002	0.2	plwh	19	noun	phrase	1	2	nomatch	cendrier	-1	1	p	0.7856
159.8459	0.0	+	19	noun	phrase	1	3	nomatch	cendrier	-1	1	p	0.7856
160.2457	0.2	pkq	19	noun	phrase	1	4	nomatch	cendrier	-1	1	p	0.7856
160.44570000000002	0.0	+	19	noun	phrase	1	5	nomatch	cendrier	-1	1	p	0.7856
160.84550000000002	0.2	kmc	19	noun	phrase	1	6	nomatch	cendrier	-1	1	p	0.7856
161.0454	0.0	+	19	noun	phrase	1	7	nomatch	cendrier	-1	1	p	0.7856
161.4452	0.2	fpcgm	19	noun	phrase	1	8	nomatch	cendrier	-1	1	p	0.7856
161.6451	0.0	+	19	noun	phrase	1	9	nomatch	cendrier	-1	1	p	0.7856
162.0449	0.2	panier	19	noun	phrase	1	10	nomatch	cendrier	-1	1	p	0.7856
162.2449	0.0	+	19	noun	phrase	1	11	nomatch	cendrier	-1	1	p	0.7856
162.6447	0.0	+	19	noun	phrase	1	12	nomatch	cendrier	-1	1	p	0.7856
164.6438	0.0	CENDRIER	19	noun	phrase	1	13	nomatch	cendrier	-1	1	p	0.7856
165.4934	0.0	+	19	noun	phrase	1	14	nomatch	cendrier	-1	1	p	0.7856
165.42940000000002	0.0	[response]	19	noun	phrase	1	15	nomatch	cendrier	-1	1	p	0.7856
167.0427	0.0	+	20	noun	phrase	1	1	match	sablier	5	1	y	0.75676
167.5925	0.2	fbghn	20	noun	phrase	1	2	match	sablier	5	1	y	0.75676
167.79240000000001	0.0	+	20	noun	phrase	1	3	match	sablier	5	1	y	0.75676
168.1922	0.2	wpsh	20	noun	phrase	1	4	match	sablier	5	1	y	0.75676
168.3921	0.0	+	20	noun	phrase	1	5	match	sablier	5	1	y	0.75676
168.7919	0.2	zxd	20	noun	phrase	1	6	match	sablier	5	1	y	0.75676
168.9918	0.0	+	20	noun	phrase	1	7	match	sablier	5	1	y	0.75676
169.3916	0.2	bwjlr	20	noun	phrase	1	8	match	sablier	5	1	y	0.75676
169.5916	0.0	+	20	noun	phrase	1	9	match	sablier	5	1	y	0.75676
169.9914	0.2	sablier	20	noun	phrase	1	10	match	sablier	5	1	y	0.75676
170.1913	0.0	+	20	noun	phrase	1	11	match	sablier	5	1	y	0.75676
170.5911	0.0	+	20	noun	phrase	1	12	match	sablier	5	1	y	0.75676
172.5902	0.0	SABLIER	20	noun	phrase	1	13	match	sablier	5	1	y	0.75676
173.4065	0.0	+	20	noun	phrase	1	14	match	sablier	5	1	y	0.75676
173.347	0.0	[response]	20	noun	phrase	1	15	match	sablier	5	1	y	0.75676
174.9892	0.0	+	21	noun	list	1	1	match	rocher	5	1	y	0.88805
175.5389	0.2	bcfvjhp	21	noun	list	1	2	match	rocher	5	1	y	0.88805
175.7388	0.0	+	21	noun	list	1	3	match	rocher	5	1	y	0.88805
176.1387	0.2	qhft	21	noun	list	1	4	match	rocher	5	1	y	0.88805
176.3386	0.0	+	21	noun	list	1	5	match	rocher	5	1	y	0.88805
176.7384	0.2	kmc	21	noun	list	1	6	match	rocher	5	1	y	0.88805
176.9383	0.0	+	21	noun	list	1	7	match	rocher	5	1	y	0.88805
177.3389	0.2	rhpxq	21	noun	list	1	8	match	rocher	5	1	y	0.88805
177.538	0.0	+	21	noun	list	1	9	match	rocher	5	1	y	0.88805
177.9378	0.2	rocher	21	noun	list	1	10	match	rocher	5	1	y	0.88805
178.1377	0.0	+	21	noun	list	1	11	match	rocher	5	1	y	0.88805
178.5376	0.0	+	21	noun	list	1	12	match	rocher	5	1	y	0.88805
180.5367	0.0	ROCHER	21	noun	list	1	13	match	rocher	5	1	y	0.88805
181.4863	0.0	+	21	noun	list	1	14	match	rocher	5	1	y	0.88805
181.4247	0.0	[response]	21	noun	list	1	15	match	rocher	5	1	y	0.88805
182.9356	0.0	+	22	noun	phrase	1	1	nomatch	galoper	-1	1	p	0.58435
183.4854	0.2	grb	22	noun	phrase	1	2	nomatch	galoper	-1	1	p	0.58435
183.6853	0.0	+	22	noun	phrase	1	3	nomatch	galoper	-1	1	p	0.58435
184.0851	0.2	rflt	22	noun	phrase	1	4	nomatch	galoper	-1	1	p	0.58435
184.285	0.0	+	22	noun	phrase	1	5	nomatch	galoper	-1	1	p	0.58435
184.6848	0.2	zxd	22	noun	phrase	1	6	nomatch	galoper	-1	1	p	0.58435
184.8847	0.0	+	22	noun	phrase	1	7	nomatch	galoper	-1	1	p	0.58435
185.2846	0.2	fwrxghp	22	noun	phrase	1	8	nomatch	galoper	-1	1	p	0.58435
185.4845	0.0	+	22	noun	phrase	1	9	nomatch	galoper	-1	1	p	0.58435
185.8843	0.2	vert	22	noun	phrase	1	10	nomatch	galoper	-1	1	p	0.58435
186.0842	0.0	+	22	noun	phrase	1	11	nomatch	galoper	-1	1	p	0.58435
186.484	0.0	+	22	noun	phrase	1	12	nomatch	galoper	-1	1	p	0.58435
188.4998	0.0	GALOPER	22	noun	phrase	1	13	nomatch	galoper	-1	1	p	0.58435
189.1495	0.0	+	22	noun	phrase	1	14	nomatch	galoper	-1	1	p	0.58435
189.0841	0.0	[response]	22	noun	phrase	1	15	nomatch	galoper	-1	1	p	0.58435
206.8916	0.0	+	23	noun	list	4	1	nomatch	voilier	-1	1	p	0.88276
207.44129999999998	0.2	qjh	23	noun	list	4	2	nomatch	voilier	-1	1	p	0.88276
207.6412	0.0	+	23	noun	list	4	3	nomatch	voilier	-1	1	p	0.88276
208.0411	0.2	dans	23	noun	list	4	4	nomatch	voilier	-1	1	p	0.88276
208.241	0.0	+	23	noun	list	4	5	nomatch	voilier	-1	1	p	0.88276
208.64079999999998	0.2	va	23	noun	list	4	6	nomatch	voilier	-1	1	p	0.88276
208.8407	0.0	+	23	noun	list	4	7	nomatch	voilier	-1	1	p	0.88276
209.24050000000003	0.2	panier	23	noun	list	4	8	nomatch	voilier	-1	1	p	0.88276
209.44050000000001	0.0	+	23	noun	list	4	9	nomatch	voilier	-1	1	p	0.88276
209.84029999999998	0.2	tôt	23	noun	list	4	10	nomatch	voilier	-1	1	p	0.88276
210.0402	0.0	+	23	noun	list	4	11	nomatch	voilier	-1	1	p	0.88276
210.44000000000003	0.0	+	23	noun	list	4	12	nomatch	voilier	-1	1	p	0.88276
212.43910000000002	0.0	VOILIER	23	noun	list	4	13	nomatch	voilier	-1	1	p	0.88276
213.3887	0.0	+	23	noun	list	4	14	nomatch	voilier	-1	1	p	0.88276
213.3219	0.0	[response]	23	noun	list	4	15	nomatch	voilier	-1	1	p	0.88276
214.838	0.0	+	24	verb	phrase	3	1	nomatch	avec	-1	1	p	0.9223900000000002
215.3878	0.2	klhzmqd	24	verb	phrase	3	2	nomatch	avec	-1	1	p	0.9223900000000002
215.5877	0.0	+	24	verb	phrase	3	3	nomatch	avec	-1	1	p	0.9223900000000002
215.98749999999998	0.2	jhvb	24	verb	phrase	3	4	nomatch	avec	-1	1	p	0.9223900000000002
216.1874	0.0	+	24	verb	phrase	3	5	nomatch	avec	-1	1	p	0.9223900000000002
216.5873	0.2	doit	24	verb	phrase	3	6	nomatch	avec	-1	1	p	0.9223900000000002
216.7872	0.0	+	24	verb	phrase	3	7	nomatch	avec	-1	1	p	0.9223900000000002
217.18699999999998	0.2	mieux	24	verb	phrase	3	8	nomatch	avec	-1	1	p	0.9223900000000002
217.3869	0.0	+	24	verb	phrase	3	9	nomatch	avec	-1	1	p	0.9223900000000002
217.78670000000002	0.2	chasser	24	verb	phrase	3	10	nomatch	avec	-1	1	p	0.9223900000000002
217.98659999999998	0.0	+	24	verb	phrase	3	11	nomatch	avec	-1	1	p	0.9223900000000002
218.3864	0.0	+	24	verb	phrase	3	12	nomatch	avec	-1	1	p	0.9223900000000002
220.38559999999998	0.0	AVEC	24	verb	phrase	3	13	nomatch	avec	-1	1	p	0.9223900000000002
221.3685	0.0	+	24	verb	phrase	3	14	nomatch	avec	-1	1	p	0.9223900000000002
221.3079	0.0	[response]	24	verb	phrase	3	15	nomatch	avec	-1	1	p	0.9223900000000002
222.7845	0.0	+	25	verb	phrase	1	1	match	loin	5	1	y	0.45656
223.335	0.2	glx	25	verb	phrase	1	2	match	loin	5	1	y	0.45656
223.5341	0.0	+	25	verb	phrase	1	3	match	loin	5	1	y	0.45656
223.934	0.2	gjnb	25	verb	phrase	1	4	match	loin	5	1	y	0.45656
224.1339	0.0	+	25	verb	phrase	1	5	match	loin	5	1	y	0.45656
224.53369999999998	0.2	nblj	25	verb	phrase	1	6	match	loin	5	1	y	0.45656
224.7336	0.0	+	25	verb	phrase	1	7	match	loin	5	1	y	0.45656
225.15009999999998	0.2	nkbswgt	25	verb	phrase	1	8	match	loin	5	1	y	0.45656
225.35	0.0	+	25	verb	phrase	1	9	match	loin	5	1	y	0.45656
225.74980000000002	0.2	loin	25	verb	phrase	1	10	match	loin	5	1	y	0.45656
225.94969999999998	0.0	+	25	verb	phrase	1	11	match	loin	5	1	y	0.45656
226.34959999999998	0.0	+	25	verb	phrase	1	12	match	loin	5	1	y	0.45656
228.34869999999998	0.0	LOIN	25	verb	phrase	1	13	match	loin	5	1	y	0.45656
228.8651	0.0	+	25	verb	phrase	1	14	match	loin	5	1	y	0.45656
228.80519999999999	0.0	[response]	25	verb	phrase	1	15	match	loin	5	1	y	0.45656
230.7476	0.0	+	26	verb	list	1	1	nomatch	peut	-1	1	p	0.85436
231.2974	0.2	bxps	26	verb	list	1	2	nomatch	peut	-1	1	p	0.85436
231.49730000000002	0.0	+	26	verb	list	1	3	nomatch	peut	-1	1	p	0.85436
231.8971	0.2	nwdx	26	verb	list	1	4	nomatch	peut	-1	1	p	0.85436
232.097	0.0	+	26	verb	list	1	5	nomatch	peut	-1	1	p	0.85436
232.49679999999998	0.2	lj	26	verb	list	1	6	nomatch	peut	-1	1	p	0.85436
232.6967	0.0	+	26	verb	list	1	7	nomatch	peut	-1	1	p	0.85436
233.0966	0.2	vczkjpt	26	verb	list	1	8	nomatch	peut	-1	1	p	0.85436
233.2965	0.0	+	26	verb	list	1	9	nomatch	peut	-1	1	p	0.85436
233.69629999999998	0.2	petit	26	verb	list	1	10	nomatch	peut	-1	1	p	0.85436
233.8962	0.0	+	26	verb	list	1	11	nomatch	peut	-1	1	p	0.85436
234.29600000000002	0.0	+	26	verb	list	1	12	nomatch	peut	-1	1	p	0.85436
236.29510000000002	0.0	PEUT	26	verb	list	1	13	nomatch	peut	-1	1	p	0.85436
237.2114	0.0	+	26	verb	list	1	14	nomatch	peut	-1	1	p	0.85436
237.14950000000002	0.0	[response]	26	verb	list	1	15	nomatch	peut	-1	1	p	0.85436
246.69050000000001	0.0	+	27	noun	list	1	1	match	voilier	5	1	y	0.82786
247.2402	0.2	nspvzk	27	noun	list	1	2	match	voilier	5	1	y	0.82786
247.4401	0.0	+	27	noun	list	1	3	match	voilier	5	1	y	0.82786
247.84	0.2	htzd	27	noun	list	1	4	match	voilier	5	1	y	0.82786
248.03990000000002	0.0	+	27	noun	list	1	5	match	voilier	5	1	y	0.82786
248.4397	0.2	fpmt	27	noun	list	1	6	match	voilier	5	1	y	0.82786
248.6396	0.0	+	27	noun	list	1	7	match	voilier	5	1	y	0.82786
249.03940000000003	0.2	xhdnfgjc	27	noun	list	1	8	match	voilier	5	1	y	0.82786
249.2393	0.0	+	27	noun	list	1	9	match	voilier	5	1	y	0.82786
249.6392	0.2	voilier	27	noun	list	1	10	match	voilier	5	1	y	0.82786
249.8391	0.0	+	27	noun	list	1	11	match	voilier	5	1	y	0.82786
250.23890000000003	0.0	+	27	noun	list	1	12	match	voilier	5	1	y	0.82786
252.23800000000003	0.0	VOILIER	27	noun	list	1	13	match	voilier	5	1	y	0.82786
253.12089999999998	0.0	+	27	noun	list	1	14	match	voilier	5	1	y	0.82786
253.06590000000003	0.0	[response]	27	noun	list	1	15	match	voilier	5	1	y	0.82786
254.6369	0.0	+	28	verb	list	1	1	nomatch	cendrier	-1	1	p	0.90477
255.1867	0.2	bqtdx	28	verb	list	1	2	nomatch	cendrier	-1	1	p	0.90477
255.38660000000002	0.0	+	28	verb	list	1	3	nomatch	cendrier	-1	1	p	0.90477
255.7864	0.2	lnjp	28	verb	list	1	4	nomatch	cendrier	-1	1	p	0.90477
255.9863	0.0	+	28	verb	list	1	5	nomatch	cendrier	-1	1	p	0.90477
256.38610000000006	0.2	mvbw	28	verb	list	1	6	nomatch	cendrier	-1	1	p	0.90477
256.5861	0.0	+	28	verb	list	1	7	nomatch	cendrier	-1	1	p	0.90477
256.9859	0.2	fpjc	28	verb	list	1	8	nomatch	cendrier	-1	1	p	0.90477
257.1858	0.0	+	28	verb	list	1	9	nomatch	cendrier	-1	1	p	0.90477
257.5856	0.2	chasser	28	verb	list	1	10	nomatch	cendrier	-1	1	p	0.90477
257.78549999999996	0.0	+	28	verb	list	1	11	nomatch	cendrier	-1	1	p	0.90477
258.1853	0.0	+	28	verb	list	1	12	nomatch	cendrier	-1	1	p	0.90477
260.18449999999996	0.0	CENDRIER	28	verb	list	1	13	nomatch	cendrier	-1	1	p	0.90477
261.15070000000003	0.0	+	28	verb	list	1	14	nomatch	cendrier	-1	1	p	0.90477
261.0892	0.0	[response]	28	verb	list	1	15	nomatch	cendrier	-1	1	p	0.90477
262.6	0.0	+	29	verb	phrase	1	1	nomatch	grand	-1	1	p	0.97148
263.1498	0.2	xpnszd	29	verb	phrase	1	2	nomatch	grand	-1	1	p	0.97148
263.3497	0.0	+	29	verb	phrase	1	3	nomatch	grand	-1	1	p	0.97148
263.7495	0.2	jhvb	29	verb	phrase	1	4	nomatch	grand	-1	1	p	0.97148
263.94939999999997	0.0	+	29	verb	phrase	1	5	nomatch	grand	-1	1	p	0.97148
264.34929999999997	0.2	nblj	29	verb	phrase	1	6	nomatch	grand	-1	1	p	0.97148
264.54920000000004	0.0	+	29	verb	phrase	1	7	nomatch	grand	-1	1	p	0.97148
264.94899999999996	0.2	sqtw	29	verb	phrase	1	8	nomatch	grand	-1	1	p	0.97148
265.1489	0.0	+	29	verb	phrase	1	9	nomatch	grand	-1	1	p	0.97148
265.54870000000005	0.2	rouler	29	verb	phrase	1	10	nomatch	grand	-1	1	p	0.97148
265.7487	0.0	+	29	verb	phrase	1	11	nomatch	grand	-1	1	p	0.97148
266.1485	0.0	+	29	verb	phrase	1	12	nomatch	grand	-1	1	p	0.97148
268.1476	0.0	GRAND	29	verb	phrase	1	13	nomatch	grand	-1	1	p	0.97148
269.18039999999996	0.0	+	29	verb	phrase	1	14	nomatch	grand	-1	1	p	0.97148
269.1191	0.0	[response]	29	verb	phrase	1	15	nomatch	grand	-1	1	p	0.97148
270.54650000000004	0.0	+	30	noun	list	4	1	nomatch	voyager	-1	1	p	0.97257
271.09619999999995	0.2	xljqw	30	noun	list	4	2	nomatch	voyager	-1	1	p	0.97257
271.2962	0.0	+	30	noun	list	4	3	nomatch	voyager	-1	1	p	0.97257
271.696	0.2	jade	30	noun	list	4	4	nomatch	voyager	-1	1	p	0.97257
271.8959	0.0	+	30	noun	list	4	5	nomatch	voyager	-1	1	p	0.97257
272.2957	0.2	mon	30	noun	list	4	6	nomatch	voyager	-1	1	p	0.97257
272.49559999999997	0.0	+	30	noun	list	4	7	nomatch	voyager	-1	1	p	0.97257
272.8954	0.2	plus	30	noun	list	4	8	nomatch	voyager	-1	1	p	0.97257
273.09540000000004	0.0	+	30	noun	list	4	9	nomatch	voyager	-1	1	p	0.97257
273.49519999999995	0.2	clavier	30	noun	list	4	10	nomatch	voyager	-1	1	p	0.97257
273.6951	0.0	+	30	noun	list	4	11	nomatch	voyager	-1	1	p	0.97257
274.09490000000005	0.0	+	30	noun	list	4	12	nomatch	voyager	-1	1	p	0.97257
276.09400000000005	0.0	VOYAGER	30	noun	list	4	13	nomatch	voyager	-1	1	p	0.97257
277.1269	0.0	+	30	noun	list	4	14	nomatch	voyager	-1	1	p	0.97257
277.0666	0.0	[response]	30	noun	list	4	15	nomatch	voyager	-1	1	p	0.97257
278.49300000000005	0.0	+	31	noun	list	4	1	match	rocher	4	1	y	0.83421
279.04269999999997	0.2	cjnlspt	31	noun	list	4	2	match	rocher	4	1	y	0.83421
279.24260000000004	0.0	+	31	noun	list	4	3	match	rocher	4	1	y	0.83421
279.64239999999995	0.2	sans	31	noun	list	4	4	match	rocher	4	1	y	0.83421
279.8424	0.0	+	31	noun	list	4	5	match	rocher	4	1	y	0.83421
280.2422	0.2	doit	31	noun	list	4	6	match	rocher	4	1	y	0.83421
280.4421	0.0	+	31	noun	list	4	7	match	rocher	4	1	y	0.83421
280.8419	0.2	rocher	31	noun	list	4	8	match	rocher	4	1	y	0.83421
281.04179999999997	0.0	+	31	noun	list	4	9	match	rocher	4	1	y	0.83421
281.4416	0.2	tard	31	noun	list	4	10	match	rocher	4	1	y	0.83421
281.64149999999995	0.0	+	31	noun	list	4	11	match	rocher	4	1	y	0.83421
282.04139999999995	0.0	+	31	noun	list	4	12	match	rocher	4	1	y	0.83421
284.04049999999995	0.0	ROCHER	31	noun	list	4	13	match	rocher	4	1	y	0.83421
284.94010000000003	0.0	+	31	noun	list	4	14	match	rocher	4	1	y	0.83421
284.87469999999996	0.0	[response]	31	noun	list	4	15	match	rocher	4	1	y	0.83421
286.4394	0.0	+	32	verb	list	1	1	match	voyager	5	1	y	0.7705
286.9892	0.2	fhvq	32	verb	list	1	2	match	voyager	5	1	y	0.7705
287.18910000000005	0.0	+	32	verb	list	1	3	match	voyager	5	1	y	0.7705
287.58889999999997	0.2	pkq	32	verb	list	1	4	match	voyager	5	1	y	0.7705
287.78880000000004	0.0	+	32	verb	list	1	5	match	voyager	5	1	y	0.7705
288.18859999999995	0.2	mvbw	32	verb	list	1	6	match	voyager	5	1	y	0.7705
288.3885	0.0	+	32	verb	list	1	7	match	voyager	5	1	y	0.7705
288.7884	0.2	bwjlr	32	verb	list	1	8	match	voyager	5	1	y	0.7705
288.9883	0.0	+	32	verb	list	1	9	match	voyager	5	1	y	0.7705
289.3881	0.2	voyager	32	verb	list	1	10	match	voyager	5	1	y	0.7705
289.58799999999997	0.0	+	32	verb	list	1	11	match	voyager	5	1	y	0.7705
289.9878	0.0	+	32	verb	list	1	12	match	voyager	5	1	y	0.7705
291.9869	0.0	VOYAGER	32	verb	list	1	13	match	voyager	5	1	y	0.7705
292.81989999999996	0.0	+	32	verb	list	1	14	match	voyager	5	1	y	0.7705
292.75739999999996	0.0	[response]	32	verb	list	1	15	match	voyager	5	1	y	0.7705
294.3859	0.0	+	33	noun	list	3	1	nomatch	va	-1	1	p	1.6025
294.9356	0.2	nbctvp	33	noun	list	3	2	nomatch	va	-1	1	p	1.6025
295.1355	0.0	+	33	noun	list	3	3	nomatch	va	-1	1	p	1.6025
295.5353	0.2	rflt	33	noun	list	3	4	nomatch	va	-1	1	p	1.6025
295.73530000000005	0.0	+	33	noun	list	3	5	nomatch	va	-1	1	p	1.6025
296.13509999999997	0.2	doit	33	noun	list	3	6	nomatch	va	-1	1	p	1.6025
296.3352	0.0	+	33	noun	list	3	7	nomatch	va	-1	1	p	1.6025
296.73479999999995	0.2	sablier	33	noun	list	3	8	nomatch	va	-1	1	p	1.6025
296.9347	0.0	+	33	noun	list	3	9	nomatch	va	-1	1	p	1.6025
297.33450000000005	0.2	tôt	33	noun	list	3	10	nomatch	va	-1	1	p	1.6025
297.5344	0.0	+	33	noun	list	3	11	nomatch	va	-1	1	p	1.6025
297.9343	0.0	+	33	noun	list	3	12	nomatch	va	-1	1	p	1.6025
299.95000000000005	0.0	VA	33	noun	list	3	13	nomatch	va	-1	1	p	1.6025
301.616	0.0	+	33	noun	list	3	14	nomatch	va	-1	1	p	1.6025
301.5525	0.0	[response]	33	noun	list	3	15	nomatch	va	-1	1	p	1.6025
302.34900000000005	0.0	+	34	noun	phrase	1	1	match	nouveau	5	1	y	1.0846
302.89869999999996	0.2	kftqnl	34	noun	phrase	1	2	match	nouveau	5	1	y	1.0846
303.09860000000003	0.0	+	34	noun	phrase	1	3	match	nouveau	5	1	y	1.0846
303.49839999999995	0.2	pkq	34	noun	phrase	1	4	match	nouveau	5	1	y	1.0846
303.6984	0.0	+	34	noun	phrase	1	5	match	nouveau	5	1	y	1.0846
304.0982	0.2	fpmt	34	noun	phrase	1	6	match	nouveau	5	1	y	1.0846
304.2981	0.0	+	34	noun	phrase	1	7	match	nouveau	5	1	y	1.0846
304.6979	0.2	cmjsxw	34	noun	phrase	1	8	match	nouveau	5	1	y	1.0846
304.89779999999996	0.0	+	34	noun	phrase	1	9	match	nouveau	5	1	y	1.0846
305.2976	0.2	nouveau	34	noun	phrase	1	10	match	nouveau	5	1	y	1.0846
305.49760000000003	0.0	+	34	noun	phrase	1	11	match	nouveau	5	1	y	1.0846
305.89739999999995	0.0	+	34	noun	phrase	1	12	match	nouveau	5	1	y	1.0846
307.89649999999995	0.0	NOUVEAU	34	noun	phrase	1	13	match	nouveau	5	1	y	1.0846
309.04600000000005	0.0	+	34	noun	phrase	1	14	match	nouveau	5	1	y	1.0846
308.98109999999997	0.0	[response]	34	noun	phrase	1	15	match	nouveau	5	1	y	1.0846
310.2954	0.0	+	35	noun	phrase	3	1	nomatch	vert	-1	1	p	0.92532
310.8452	0.2	sjgvw	35	noun	phrase	3	2	nomatch	vert	-1	1	p	0.92532
311.04510000000005	0.0	+	35	noun	phrase	3	3	nomatch	vert	-1	1	p	0.92532
311.44489999999996	0.2	nwdx	35	noun	phrase	3	4	nomatch	vert	-1	1	p	0.92532
311.64480000000003	0.0	+	35	noun	phrase	3	5	nomatch	vert	-1	1	p	0.92532
312.04459999999995	0.2	leur	35	noun	phrase	3	6	nomatch	vert	-1	1	p	0.92532
312.2445	0.0	+	35	noun	phrase	3	7	nomatch	vert	-1	1	p	0.92532
312.6444	0.2	tablier	35	noun	phrase	3	8	nomatch	vert	-1	1	p	0.92532
312.8443	0.0	+	35	noun	phrase	3	9	nomatch	vert	-1	1	p	0.92532
313.2441	0.2	blanc	35	noun	phrase	3	10	nomatch	vert	-1	1	p	0.92532
313.44399999999996	0.0	+	35	noun	phrase	3	11	nomatch	vert	-1	1	p	0.92532
313.8438	0.0	+	35	noun	phrase	3	12	nomatch	vert	-1	1	p	0.92532
315.84299999999996	0.0	VERT	35	noun	phrase	3	13	nomatch	vert	-1	1	p	0.92532
316.82579999999996	0.0	+	35	noun	phrase	3	14	nomatch	vert	-1	1	p	0.92532
316.76829999999995	0.0	[response]	35	noun	phrase	3	15	nomatch	vert	-1	1	p	0.92532
326.2383	0.0	+	36	verb	list	1	1	match	rouge	5	1	y	0.90657
326.7881	0.2	vrnxq	36	verb	list	1	2	match	rouge	5	1	y	0.90657
326.98800000000006	0.0	+	36	verb	list	1	3	match	rouge	5	1	y	0.90657
327.38779999999997	0.2	jhvb	36	verb	list	1	4	match	rouge	5	1	y	0.90657
327.58770000000004	0.0	+	36	verb	list	1	5	match	rouge	5	1	y	0.90657
327.98749999999995	0.2	fpmt	36	verb	list	1	6	match	rouge	5	1	y	0.90657
328.1874	0.0	+	36	verb	list	1	7	match	rouge	5	1	y	0.90657
328.5873	0.2	vczkjpt	36	verb	list	1	8	match	rouge	5	1	y	0.90657
328.7872	0.0	+	36	verb	list	1	9	match	rouge	5	1	y	0.90657
329.187	0.2	rouge	36	verb	list	1	10	match	rouge	5	1	y	0.90657
329.38689999999997	0.0	+	36	verb	list	1	11	match	rouge	5	1	y	0.90657
329.7867	0.0	+	36	verb	list	1	12	match	rouge	5	1	y	0.90657
331.7858	0.0	ROUGE	36	verb	list	1	13	match	rouge	5	1	y	0.90657
332.75210000000004	0.0	+	36	verb	list	1	14	match	rouge	5	1	y	0.90657
332.6924	0.0	[response]	36	verb	list	1	15	match	rouge	5	1	y	0.90657
342.19780000000003	0.0	+	37	noun	list	1	1	match	moins	5	1	y	0.45736000000000004
342.74760000000003	0.2	jkmx	37	noun	list	1	2	match	moins	5	1	y	0.45736000000000004
342.9475	0.0	+	37	noun	list	1	3	match	moins	5	1	y	0.45736000000000004
343.3473	0.2	hfk	37	noun	list	1	4	match	moins	5	1	y	0.45736000000000004
343.5472	0.0	+	37	noun	list	1	5	match	moins	5	1	y	0.45736000000000004
343.9471	0.2	zxd	37	noun	list	1	6	match	moins	5	1	y	0.45736000000000004
344.14700000000005	0.0	+	37	noun	list	1	7	match	moins	5	1	y	0.45736000000000004
344.54679999999996	0.2	lzqbcdn	37	noun	list	1	8	match	moins	5	1	y	0.45736000000000004
344.74670000000003	0.0	+	37	noun	list	1	9	match	moins	5	1	y	0.45736000000000004
345.14649999999995	0.2	moins	37	noun	list	1	10	match	moins	5	1	y	0.45736000000000004
345.3464	0.0	+	37	noun	list	1	11	match	moins	5	1	y	0.45736000000000004
345.7463	0.0	+	37	noun	list	1	12	match	moins	5	1	y	0.45736000000000004
347.7454	0.0	MOINS	37	noun	list	1	13	match	moins	5	1	y	0.45736000000000004
348.2618	0.0	+	37	noun	list	1	14	match	moins	5	1	y	0.45736000000000004
348.20270000000005	0.0	[response]	37	noun	list	1	15	match	moins	5	1	y	0.45736000000000004
350.14430000000004	0.0	+	38	noun	phrase	2	1	nomatch	panier	-1	1	p	1.3478
350.69410000000005	0.2	dxz	38	noun	phrase	2	2	nomatch	panier	-1	1	p	1.3478
350.894	0.0	+	38	noun	phrase	2	3	nomatch	panier	-1	1	p	1.3478
351.29380000000003	0.2	pkq	38	noun	phrase	2	4	nomatch	panier	-1	1	p	1.3478
351.4937	0.0	+	38	noun	phrase	2	5	nomatch	panier	-1	1	p	1.3478
351.8935	0.2	kmc	38	noun	phrase	2	6	nomatch	panier	-1	1	p	1.3478
352.0934	0.0	+	38	noun	phrase	2	7	nomatch	panier	-1	1	p	1.3478
352.4933	0.2	cendrier	38	noun	phrase	2	8	nomatch	panier	-1	1	p	1.3478
352.69320000000005	0.0	+	38	noun	phrase	2	9	nomatch	panier	-1	1	p	1.3478
353.09299999999996	0.2	vert	38	noun	phrase	2	10	nomatch	panier	-1	1	p	1.3478
353.29290000000003	0.0	+	38	noun	phrase	2	11	nomatch	panier	-1	1	p	1.3478
353.69270000000006	0.0	+	38	noun	phrase	2	12	nomatch	panier	-1	1	p	1.3478
355.69180000000006	0.0	PANIER	38	noun	phrase	2	13	nomatch	panier	-1	1	p	1.3478
357.09119999999996	0.0	+	38	noun	phrase	2	14	nomatch	panier	-1	1	p	1.3478
357.03959999999995	0.0	[response]	38	noun	phrase	2	15	nomatch	panier	-1	1	p	1.3478
366.08720000000005	0.0	+	39	noun	list	3	1	nomatch	jean	-1	1	p	1.3099
366.63689999999997	0.2	crxvpj	39	noun	list	3	2	nomatch	jean	-1	1	p	1.3099
366.83680000000004	0.0	+	39	noun	list	3	3	nomatch	jean	-1	1	p	1.3099
367.23670000000004	0.2	hfk	39	noun	list	3	4	nomatch	jean	-1	1	p	1.3099
367.4366	0.0	+	39	noun	list	3	5	nomatch	jean	-1	1	p	1.3099
367.8364	0.2	mon	39	noun	list	3	6	nomatch	jean	-1	1	p	1.3099
368.0363	0.0	+	39	noun	list	3	7	nomatch	jean	-1	1	p	1.3099
368.4361	0.2	moins	39	noun	list	3	8	nomatch	jean	-1	1	p	1.3099
368.63599999999997	0.0	+	39	noun	list	3	9	nomatch	jean	-1	1	p	1.3099
369.03589999999997	0.2	tablier	39	noun	list	3	10	nomatch	jean	-1	1	p	1.3099
369.23580000000004	0.0	+	39	noun	list	3	11	nomatch	jean	-1	1	p	1.3099
369.63559999999995	0.0	+	39	noun	list	3	12	nomatch	jean	-1	1	p	1.3099
371.63469999999995	0.0	JEAN	39	noun	list	3	13	nomatch	jean	-1	1	p	1.3099
373.0008	0.0	+	39	noun	list	3	14	nomatch	jean	-1	1	p	1.3099
372.94460000000004	0.0	[response]	39	noun	list	3	15	nomatch	jean	-1	1	p	1.3099
382.0467	0.0	+	40	noun	list	4	1	nomatch	yves	-1	1	p	1.4308000000000003
382.5965	0.2	wvsndtr	40	noun	list	4	2	nomatch	yves	-1	1	p	1.4308000000000003
382.79639999999995	0.0	+	40	noun	list	4	3	nomatch	yves	-1	1	p	1.4308000000000003
383.1962	0.2	jade	40	noun	list	4	4	nomatch	yves	-1	1	p	1.4308000000000003
383.39610000000005	0.0	+	40	noun	list	4	5	nomatch	yves	-1	1	p	1.4308000000000003
383.79589999999996	0.2	son	40	noun	list	4	6	nomatch	yves	-1	1	p	1.4308000000000003
383.9959	0.0	+	40	noun	list	4	7	nomatch	yves	-1	1	p	1.4308000000000003
384.39570000000003	0.2	trop	40	noun	list	4	8	nomatch	yves	-1	1	p	1.4308000000000003
384.5956	0.0	+	40	noun	list	4	9	nomatch	yves	-1	1	p	1.4308000000000003
384.9954	0.2	voilier	40	noun	list	4	10	nomatch	yves	-1	1	p	1.4308000000000003
385.1953	0.0	+	40	noun	list	4	11	nomatch	yves	-1	1	p	1.4308000000000003
385.5951	0.0	+	40	noun	list	4	12	nomatch	yves	-1	1	p	1.4308000000000003
387.5942	0.0	YVES	40	noun	list	4	13	nomatch	yves	-1	1	p	1.4308000000000003
389.0769	0.0	+	40	noun	list	4	14	nomatch	yves	-1	1	p	1.4308000000000003
389.025	0.0	[response]	40	noun	list	4	15	nomatch	yves	-1	1	p	1.4308000000000003
397.9896	0.0	+	41	noun	list	1	1	nomatch	plus	-1	1	p	1.0935
398.5394	0.2	rnbm	41	noun	list	1	2	nomatch	plus	-1	1	p	1.0935
398.73929999999996	0.0	+	41	noun	list	1	3	nomatch	plus	-1	1	p	1.0935
399.1391	0.2	htzd	41	noun	list	1	4	nomatch	plus	-1	1	p	1.0935
399.33900000000006	0.0	+	41	noun	list	1	5	nomatch	plus	-1	1	p	1.0935
399.73879999999997	0.2	fpmt	41	noun	list	1	6	nomatch	plus	-1	1	p	1.0935
399.93870000000004	0.0	+	41	noun	list	1	7	nomatch	plus	-1	1	p	1.0935
400.3387	0.2	fgntdsl	41	noun	list	1	8	nomatch	plus	-1	1	p	1.0935
400.5385	0.0	+	41	noun	list	1	9	nomatch	plus	-1	1	p	1.0935
400.9383	0.2	moins	41	noun	list	1	10	nomatch	plus	-1	1	p	1.0935
401.1382	0.0	+	41	noun	list	1	11	nomatch	plus	-1	1	p	1.0935
401.538	0.0	+	41	noun	list	1	12	nomatch	plus	-1	1	p	1.0935
403.5371	0.0	PLUS	41	noun	list	1	13	nomatch	plus	-1	1	p	1.0935
404.6866	0.0	+	41	noun	list	1	14	nomatch	plus	-1	1	p	1.0935
404.6306000000001	0.0	[response]	41	noun	list	1	15	nomatch	plus	-1	1	p	1.0935
405.9361	0.0	+	42	noun	phrase	4	1	nomatch	sans	-1	1	p	1.4513
406.48580000000004	0.2	blgwjxr	42	noun	phrase	4	2	nomatch	sans	-1	1	p	1.4513
406.6857	0.0	+	42	noun	phrase	4	3	nomatch	sans	-1	1	p	1.4513
407.0856	0.2	sur	42	noun	phrase	4	4	nomatch	sans	-1	1	p	1.4513
407.28549999999996	0.0	+	42	noun	phrase	4	5	nomatch	sans	-1	1	p	1.4513
407.6853	0.2	son	42	noun	phrase	4	6	nomatch	sans	-1	1	p	1.4513
407.88520000000005	0.0	+	42	noun	phrase	4	7	nomatch	sans	-1	1	p	1.4513
408.28499999999997	0.2	cendrier	42	noun	phrase	4	8	nomatch	sans	-1	1	p	1.4513
408.48490000000004	0.0	+	42	noun	phrase	4	9	nomatch	sans	-1	1	p	1.4513
408.88469999999995	0.2	blanc	42	noun	phrase	4	10	nomatch	sans	-1	1	p	1.4513
409.0846	0.0	+	42	noun	phrase	4	11	nomatch	sans	-1	1	p	1.4513
409.4845	0.0	+	42	noun	phrase	4	12	nomatch	sans	-1	1	p	1.4513
411.4836	0.0	SANS	42	noun	phrase	4	13	nomatch	sans	-1	1	p	1.4513
412.9996	0.0	+	42	noun	phrase	4	14	nomatch	sans	-1	1	p	1.4513
412.93489999999997	0.0	[response]	42	noun	phrase	4	15	nomatch	sans	-1	1	p	1.4513
413.89919999999995	0.0	+	43	noun	list	3	1	match	clavier	4	1	y	0.84898
414.4489	0.2	mrlbvx	43	noun	list	3	2	match	clavier	4	1	y	0.84898
414.64880000000005	0.0	+	43	noun	list	3	3	match	clavier	4	1	y	0.84898
415.04870000000005	0.2	pkq	43	noun	list	3	4	match	clavier	4	1	y	0.84898
415.2486	0.0	+	43	noun	list	3	5	match	clavier	4	1	y	0.84898
415.64840000000004	0.2	peut	43	noun	list	3	6	match	clavier	4	1	y	0.84898
415.8483	0.0	+	43	noun	list	3	7	match	clavier	4	1	y	0.84898
416.2481	0.2	clavier	43	noun	list	3	8	match	clavier	4	1	y	0.84898
416.448	0.0	+	43	noun	list	3	9	match	clavier	4	1	y	0.84898
416.8479	0.2	loin	43	noun	list	3	10	match	clavier	4	1	y	0.84898
417.04780000000005	0.0	+	43	noun	list	3	11	match	clavier	4	1	y	0.84898
417.44759999999997	0.0	+	43	noun	list	3	12	match	clavier	4	1	y	0.84898
419.44669999999996	0.0	CLAVIER	43	noun	list	3	13	match	clavier	4	1	y	0.84898
420.36300000000006	0.0	+	43	noun	list	3	14	match	clavier	4	1	y	0.84898
420.2957	0.0	[response]	43	noun	list	3	15	match	clavier	4	1	y	0.84898
421.8456	0.0	+	44	noun	phrase	2	1	match	casier	5	1	y	1.0532
422.3954	0.2	ctvjpm	44	noun	phrase	2	2	match	casier	5	1	y	1.0532
422.59529999999995	0.0	+	44	noun	phrase	2	3	match	casier	5	1	y	1.0532
422.9951	0.2	pklg	44	noun	phrase	2	4	match	casier	5	1	y	1.0532
423.19500000000005	0.0	+	44	noun	phrase	2	5	match	casier	5	1	y	1.0532
423.59479999999996	0.2	zxd	44	noun	phrase	2	6	match	casier	5	1	y	1.0532
423.7948	0.0	+	44	noun	phrase	2	7	match	casier	5	1	y	1.0532
424.19460000000004	0.2	grand	44	noun	phrase	2	8	match	casier	5	1	y	1.0532
424.3945	0.0	+	44	noun	phrase	2	9	match	casier	5	1	y	1.0532
424.7943	0.2	casier	44	noun	phrase	2	10	match	casier	5	1	y	1.0532
424.9942	0.0	+	44	noun	phrase	2	11	match	casier	5	1	y	1.0532
425.394	0.0	+	44	noun	phrase	2	12	match	casier	5	1	y	1.0532
427.3931	0.0	CASIER	44	noun	phrase	2	13	match	casier	5	1	y	1.0532
428.50930000000005	0.0	+	44	noun	phrase	2	14	match	casier	5	1	y	1.0532
428.44629999999995	0.0	[response]	44	noun	phrase	2	15	match	casier	5	1	y	1.0532
429.7921	0.0	+	45	verb	phrase	2	1	match	parader	4	1	y	0.66671
430.34180000000003	0.2	cdwg	45	verb	phrase	2	2	match	parader	4	1	y	0.66671
430.5417	0.0	+	45	verb	phrase	2	3	match	parader	4	1	y	0.66671
430.9416	0.2	htzd	45	verb	phrase	2	4	match	parader	4	1	y	0.66671
431.14149999999995	0.0	+	45	verb	phrase	2	5	match	parader	4	1	y	0.66671
431.5413	0.2	nblj	45	verb	phrase	2	6	match	parader	4	1	y	0.66671
431.74120000000005	0.0	+	45	verb	phrase	2	7	match	parader	4	1	y	0.66671
432.14099999999996	0.2	parader	45	verb	phrase	2	8	match	parader	4	1	y	0.66671
432.34090000000003	0.0	+	45	verb	phrase	2	9	match	parader	4	1	y	0.66671
432.74080000000004	0.2	tard	45	verb	phrase	2	10	match	parader	4	1	y	0.66671
432.9407	0.0	+	45	verb	phrase	2	11	match	parader	4	1	y	0.66671
433.3405	0.0	+	45	verb	phrase	2	12	match	parader	4	1	y	0.66671
435.3396	0.0	PARADER	45	verb	phrase	2	13	match	parader	4	1	y	0.66671
436.07259999999997	0.0	+	45	verb	phrase	2	14	match	parader	4	1	y	0.66671
436.0063	0.0	[response]	45	verb	phrase	2	15	match	parader	4	1	y	0.66671
437.73850000000004	0.0	+	46	noun	phrase	1	1	nomatch	vieux	-1	1	p	0.85633
438.28830000000005	0.2	ftwxjns	46	noun	phrase	1	2	nomatch	vieux	-1	1	p	0.85633
438.4882	0.0	+	46	noun	phrase	1	3	nomatch	vieux	-1	1	p	0.85633
438.88800000000003	0.2	pklg	46	noun	phrase	1	4	nomatch	vieux	-1	1	p	0.85633
439.0879	0.0	+	46	noun	phrase	1	5	nomatch	vieux	-1	1	p	0.85633
439.4877	0.2	kmc	46	noun	phrase	1	6	nomatch	vieux	-1	1	p	0.85633
439.68769999999995	0.0	+	46	noun	phrase	1	7	nomatch	vieux	-1	1	p	0.85633
440.0875	0.2	xjrs	46	noun	phrase	1	8	nomatch	vieux	-1	1	p	0.85633
440.28740000000005	0.0	+	46	noun	phrase	1	9	nomatch	vieux	-1	1	p	0.85633
440.68719999999996	0.2	tablier	46	noun	phrase	1	10	nomatch	vieux	-1	1	p	0.85633
440.88710000000003	0.0	+	46	noun	phrase	1	11	nomatch	vieux	-1	1	p	0.85633
441.28700000000003	0.0	+	46	noun	phrase	1	12	nomatch	vieux	-1	1	p	0.85633
443.28610000000003	0.0	VIEUX	46	noun	phrase	1	13	nomatch	vieux	-1	1	p	0.85633
444.20230000000004	0.0	+	46	noun	phrase	1	14	nomatch	vieux	-1	1	p	0.85633
444.14240000000007	0.0	[response]	46	noun	phrase	1	15	nomatch	vieux	-1	1	p	0.85633
445.68500000000006	0.0	+	47	noun	phrase	1	1	nomatch	cendrier	-1	1	p	1.3851
446.2347	0.2	zgx	47	noun	phrase	1	2	nomatch	cendrier	-1	1	p	1.3851
446.43460000000005	0.0	+	47	noun	phrase	1	3	nomatch	cendrier	-1	1	p	1.3851
446.83450000000005	0.2	pkq	47	noun	phrase	1	4	nomatch	cendrier	-1	1	p	1.3851
447.0344	0.0	+	47	noun	phrase	1	5	nomatch	cendrier	-1	1	p	1.3851
447.43420000000003	0.2	zxd	47	noun	phrase	1	6	nomatch	cendrier	-1	1	p	1.3851
447.6341	0.0	+	47	noun	phrase	1	7	nomatch	cendrier	-1	1	p	1.3851
448.0339	0.2	kwmcf	47	noun	phrase	1	8	nomatch	cendrier	-1	1	p	1.3851
448.2338	0.0	+	47	noun	phrase	1	9	nomatch	cendrier	-1	1	p	1.3851
448.6337	0.2	rocher	47	noun	phrase	1	10	nomatch	cendrier	-1	1	p	1.3851
448.83360000000005	0.0	+	47	noun	phrase	1	11	nomatch	cendrier	-1	1	p	1.3851
449.2501	0.0	+	47	noun	phrase	1	12	nomatch	cendrier	-1	1	p	1.3851
451.2492	0.0	CENDRIER	47	noun	phrase	1	13	nomatch	cendrier	-1	1	p	1.3851
452.69849999999997	0.0	+	47	noun	phrase	1	14	nomatch	cendrier	-1	1	p	1.3851
452.63429999999994	0.0	[response]	47	noun	phrase	1	15	nomatch	cendrier	-1	1	p	1.3851
453.6481	0.0	+	48	verb	phrase	2	1	nomatch	jongler	-1	1	p	1.5843
454.19780000000003	0.2	zpvbqs	48	verb	phrase	2	2	nomatch	jongler	-1	1	p	1.5843
454.39779999999996	0.0	+	48	verb	phrase	2	3	nomatch	jongler	-1	1	p	1.5843
454.7976	0.2	jhvb	48	verb	phrase	2	4	nomatch	jongler	-1	1	p	1.5843
454.99749999999995	0.0	+	48	verb	phrase	2	5	nomatch	jongler	-1	1	p	1.5843
455.3973	0.2	lj	48	verb	phrase	2	6	nomatch	jongler	-1	1	p	1.5843
455.59719999999993	0.0	+	48	verb	phrase	2	7	nomatch	jongler	-1	1	p	1.5843
455.99699999999996	0.2	trop	48	verb	phrase	2	8	nomatch	jongler	-1	1	p	1.5843
456.197	0.0	+	48	verb	phrase	2	9	nomatch	jongler	-1	1	p	1.5843
456.59680000000003	0.2	voyager	48	verb	phrase	2	10	nomatch	jongler	-1	1	p	1.5843
456.7967	0.0	+	48	verb	phrase	2	11	nomatch	jongler	-1	1	p	1.5843
457.1965	0.0	+	48	verb	phrase	2	12	nomatch	jongler	-1	1	p	1.5843
459.1956	0.0	JONGLER	48	verb	phrase	2	13	nomatch	jongler	-1	1	p	1.5843
460.84489999999994	0.0	+	48	verb	phrase	2	14	nomatch	jongler	-1	1	p	1.5843
460.7799	0.0	[response]	48	verb	phrase	2	15	nomatch	jongler	-1	1	p	1.5843
461.5944999999999	0.0	+	49	verb	list	1	1	nomatch	nager	-1	1	p	1.1420000000000001
462.14429999999993	0.2	zqrj	49	verb	list	1	2	nomatch	nager	-1	1	p	1.1420000000000001
462.3442	0.0	+	49	verb	list	1	3	nomatch	nager	-1	1	p	1.1420000000000001
462.744	0.2	lgnz	49	verb	list	1	4	nomatch	nager	-1	1	p	1.1420000000000001
462.9439	0.0	+	49	verb	list	1	5	nomatch	nager	-1	1	p	1.1420000000000001
463.3438	0.2	fpmt	49	verb	list	1	6	nomatch	nager	-1	1	p	1.1420000000000001
463.54369999999994	0.0	+	49	verb	list	1	7	nomatch	nager	-1	1	p	1.1420000000000001
463.9435	0.2	fvpln	49	verb	list	1	8	nomatch	nager	-1	1	p	1.1420000000000001
464.14339999999993	0.0	+	49	verb	list	1	9	nomatch	nager	-1	1	p	1.1420000000000001
464.54319999999996	0.2	chasser	49	verb	list	1	10	nomatch	nager	-1	1	p	1.1420000000000001
464.7431	0.0	+	49	verb	list	1	11	nomatch	nager	-1	1	p	1.1420000000000001
465.14300000000003	0.0	+	49	verb	list	1	12	nomatch	nager	-1	1	p	1.1420000000000001
467.1421	0.0	NAGER	49	verb	list	1	13	nomatch	nager	-1	1	p	1.1420000000000001
468.3415	0.0	+	49	verb	list	1	14	nomatch	nager	-1	1	p	1.1420000000000001
468.28409999999997	0.0	[response]	49	verb	list	1	15	nomatch	nager	-1	1	p	1.1420000000000001
469.54099999999994	0.0	+	50	verb	list	4	1	match	noir	5	1	y	1.4563
470.09079999999994	0.2	rsmztj	50	verb	list	4	2	match	noir	5	1	y	1.4563
470.2907	0.0	+	50	verb	list	4	3	match	noir	5	1	y	1.4563
470.69049999999993	0.2	marc	50	verb	list	4	4	match	noir	5	1	y	1.4563
470.8904	0.0	+	50	verb	list	4	5	match	noir	5	1	y	1.4563
471.2902	0.2	mon	50	verb	list	4	6	match	noir	5	1	y	1.4563
471.4901	0.0	+	50	verb	list	4	7	match	noir	5	1	y	1.4563
471.89	0.2	plonger	50	verb	list	4	8	match	noir	5	1	y	1.4563
472.08989999999994	0.0	+	50	verb	list	4	9	match	noir	5	1	y	1.4563
472.49019999999996	0.2	noir	50	verb	list	4	10	match	noir	5	1	y	1.4563
472.6897	0.0	+	50	verb	list	4	11	match	noir	5	1	y	1.4563
473.08939999999996	0.0	+	50	verb	list	4	12	match	noir	5	1	y	1.4563
475.08849999999995	0.0	NOIR	50	verb	list	4	13	match	noir	5	1	y	1.4563
476.60450000000003	0.0	+	50	verb	list	4	14	match	noir	5	1	y	1.4563
476.5448	0.0	[response]	50	verb	list	4	15	match	noir	5	1	y	1.4563
477.48749999999995	0.0	+	51	verb	list	3	1	match	parader	5	1	y	0.84268
478.0372	0.2	wgbkmpd	51	verb	list	3	2	match	parader	5	1	y	0.84268
478.23709999999994	0.0	+	51	verb	list	3	3	match	parader	5	1	y	0.84268
478.63689999999997	0.2	nwdx	51	verb	list	3	4	match	parader	5	1	y	0.84268
478.8367999999999	0.0	+	51	verb	list	3	5	match	parader	5	1	y	0.84268
479.2366999999999	0.2	doit	51	verb	list	3	6	match	parader	5	1	y	0.84268
479.4366	0.0	+	51	verb	list	3	7	match	parader	5	1	y	0.84268
479.8364	0.2	petit	51	verb	list	3	8	match	parader	5	1	y	0.84268
480.0363	0.0	+	51	verb	list	3	9	match	parader	5	1	y	0.84268
480.4361	0.2	parader	51	verb	list	3	10	match	parader	5	1	y	0.84268
480.63599999999997	0.0	+	51	verb	list	3	11	match	parader	5	1	y	0.84268
481.03589999999997	0.0	+	51	verb	list	3	12	match	parader	5	1	y	0.84268
483.03499999999997	0.0	PARADER	51	verb	list	3	13	match	parader	5	1	y	0.84268
483.93459999999993	0.0	+	51	verb	list	3	14	match	parader	5	1	y	0.84268
483.8777	0.0	[response]	51	verb	list	3	15	match	parader	5	1	y	0.84268
485.4339	0.0	+	52	verb	phrase	1	1	nomatch	vite	-1	1	p	1.0515
485.9837	0.2	qcpngx	52	verb	phrase	1	2	nomatch	vite	-1	1	p	1.0515
486.18359999999996	0.0	+	52	verb	phrase	1	3	nomatch	vite	-1	1	p	1.0515
486.6001	0.2	jhvb	52	verb	phrase	1	4	nomatch	vite	-1	1	p	1.0515
486.79999999999995	0.0	+	52	verb	phrase	1	5	nomatch	vite	-1	1	p	1.0515
487.1998	0.2	lj	52	verb	phrase	1	6	nomatch	vite	-1	1	p	1.0515
487.39969999999994	0.0	+	52	verb	phrase	1	7	nomatch	vite	-1	1	p	1.0515
487.79949999999997	0.2	sqvrlpt	52	verb	phrase	1	8	nomatch	vite	-1	1	p	1.0515
487.9993999999999	0.0	+	52	verb	phrase	1	9	nomatch	vite	-1	1	p	1.0515
488.39919999999995	0.2	loin	52	verb	phrase	1	10	nomatch	vite	-1	1	p	1.0515
488.59929999999997	0.0	+	52	verb	phrase	1	11	nomatch	vite	-1	1	p	1.0515
488.999	0.0	+	52	verb	phrase	1	12	nomatch	vite	-1	1	p	1.0515
490.9981	0.0	VITE	52	verb	phrase	1	13	nomatch	vite	-1	1	p	1.0515
492.11429999999996	0.0	+	52	verb	phrase	1	14	nomatch	vite	-1	1	p	1.0515
492.04959999999994	0.0	[response]	52	verb	phrase	1	15	nomatch	vite	-1	1	p	1.0515
493.39699999999993	0.0	+	53	verb	phrase	1	1	match	galoper	5	1	y	0.52539
493.94679999999994	0.2	lsbz	53	verb	phrase	1	2	match	galoper	5	1	y	0.52539
494.1467	0.0	+	53	verb	phrase	1	3	match	galoper	5	1	y	0.52539
494.5464999999999	0.2	htzd	53	verb	phrase	1	4	match	galoper	5	1	y	0.52539
494.7464	0.0	+	53	verb	phrase	1	5	match	galoper	5	1	y	0.52539
495.1462	0.2	mvbw	53	verb	phrase	1	6	match	galoper	5	1	y	0.52539
495.3461	0.0	+	53	verb	phrase	1	7	match	galoper	5	1	y	0.52539
495.746	0.2	nzdps	53	verb	phrase	1	8	match	galoper	5	1	y	0.52539
495.94589999999994	0.0	+	53	verb	phrase	1	9	match	galoper	5	1	y	0.52539
496.34569999999997	0.2	galoper	53	verb	phrase	1	10	match	galoper	5	1	y	0.52539
496.5455999999999	0.0	+	53	verb	phrase	1	11	match	galoper	5	1	y	0.52539
496.94539999999995	0.0	+	53	verb	phrase	1	12	match	galoper	5	1	y	0.52539
498.94449999999995	0.0	GALOPER	53	verb	phrase	1	13	match	galoper	5	1	y	0.52539
499.5276	0.0	+	53	verb	phrase	1	14	match	galoper	5	1	y	0.52539
499.46989999999994	0.0	[response]	53	verb	phrase	1	15	match	galoper	5	1	y	0.52539
509.33989999999994	0.0	+	54	noun	list	2	1	match	voilier	4	1	y	1.1705
509.88969999999995	0.2	pxb	54	noun	list	2	2	match	voilier	4	1	y	1.1705
510.0896	0.0	+	54	noun	list	2	3	match	voilier	4	1	y	1.1705
510.48939999999993	0.2	wpsh	54	noun	list	2	4	match	voilier	4	1	y	1.1705
510.6893	0.0	+	54	noun	list	2	5	match	voilier	4	1	y	1.1705
511.08910000000003	0.2	nblj	54	noun	list	2	6	match	voilier	4	1	y	1.1705
511.289	0.0	+	54	noun	list	2	7	match	voilier	4	1	y	1.1705
511.6888	0.2	voilier	54	noun	list	2	8	match	voilier	4	1	y	1.1705
511.88879999999995	0.0	+	54	noun	list	2	9	match	voilier	4	1	y	1.1705
512.2886	0.2	vite	54	noun	list	2	10	match	voilier	4	1	y	1.1705
512.4884999999999	0.0	+	54	noun	list	2	11	match	voilier	4	1	y	1.1705
512.8883	0.0	+	54	noun	list	2	12	match	voilier	4	1	y	1.1705
514.8874	0.0	VOILIER	54	noun	list	2	13	match	voilier	4	1	y	1.1705
516.1202	0.0	+	54	noun	list	2	14	match	voilier	4	1	y	1.1705
516.058	0.0	[response]	54	noun	list	2	15	match	voilier	4	1	y	1.1705
517.2864	0.0	+	55	noun	list	2	1	match	moins	4	1	y	1.1822
517.8361	0.2	wxl	55	noun	list	2	2	match	moins	4	1	y	1.1822
518.036	0.0	+	55	noun	list	2	3	match	moins	4	1	y	1.1822
518.4358	0.2	htzd	55	noun	list	2	4	match	moins	4	1	y	1.1822
518.6356999999999	0.0	+	55	noun	list	2	5	match	moins	4	1	y	1.1822
519.0355999999999	0.2	zxd	55	noun	list	2	6	match	moins	4	1	y	1.1822
519.2355	0.0	+	55	noun	list	2	7	match	moins	4	1	y	1.1822
519.6353	0.2	moins	55	noun	list	2	8	match	moins	4	1	y	1.1822
519.8352	0.0	+	55	noun	list	2	9	match	moins	4	1	y	1.1822
520.235	0.2	cendrier	55	noun	list	2	10	match	moins	4	1	y	1.1822
520.4349	0.0	+	55	noun	list	2	11	match	moins	4	1	y	1.1822
520.8348	0.0	+	55	noun	list	2	12	match	moins	4	1	y	1.1822
522.8339	0.0	MOINS	55	noun	list	2	13	match	moins	4	1	y	1.1822
524.0833	0.0	+	55	noun	list	2	14	match	moins	4	1	y	1.1822
524.0160999999999	0.0	[response]	55	noun	list	2	15	match	moins	4	1	y	1.1822
525.2495	0.0	+	56	verb	phrase	3	1	match	va	3	1	y	1.0518000000000003
525.7991999999999	0.2	lfbw	56	verb	phrase	3	2	match	va	3	1	y	1.0518000000000003
525.9991	0.0	+	56	verb	phrase	3	3	match	va	3	1	y	1.0518000000000003
526.3989	0.2	hfk	56	verb	phrase	3	4	match	va	3	1	y	1.0518000000000003
526.5989	0.0	+	56	verb	phrase	3	5	match	va	3	1	y	1.0518000000000003
526.9987	0.2	va	56	verb	phrase	3	6	match	va	3	1	y	1.0518000000000003
527.1985999999999	0.0	+	56	verb	phrase	3	7	match	va	3	1	y	1.0518000000000003
527.5984	0.2	trop	56	verb	phrase	3	8	match	va	3	1	y	1.0518000000000003
527.7982999999999	0.0	+	56	verb	phrase	3	9	match	va	3	1	y	1.0518000000000003
528.1981999999999	0.2	nager	56	verb	phrase	3	10	match	va	3	1	y	1.0518000000000003
528.3981	0.0	+	56	verb	phrase	3	11	match	va	3	1	y	1.0518000000000003
528.7979	0.0	+	56	verb	phrase	3	12	match	va	3	1	y	1.0518000000000003
530.797	0.0	VA	56	verb	phrase	3	13	match	va	3	1	y	1.0518000000000003
531.9132	0.0	+	56	verb	phrase	3	14	match	va	3	1	y	1.0518000000000003
531.8488	0.0	[response]	56	verb	phrase	3	15	match	va	3	1	y	1.0518000000000003
533.1958999999999	0.0	+	57	noun	list	3	1	match	son	3	1	y	0.60394
533.7456999999999	0.2	xfnhbpl	57	noun	list	3	2	match	son	3	1	y	0.60394
533.9456	0.0	+	57	noun	list	3	3	match	son	3	1	y	0.60394
534.3453999999999	0.2	htzd	57	noun	list	3	4	match	son	3	1	y	0.60394
534.5453	0.0	+	57	noun	list	3	5	match	son	3	1	y	0.60394
534.9451	0.2	son	57	noun	list	3	6	match	son	3	1	y	0.60394
535.145	0.0	+	57	noun	list	3	7	match	son	3	1	y	0.60394
535.5449	0.2	plus	57	noun	list	3	8	match	son	3	1	y	0.60394
535.7447999999999	0.0	+	57	noun	list	3	9	match	son	3	1	y	0.60394
536.1446	0.2	panier	57	noun	list	3	10	match	son	3	1	y	0.60394
536.3444999999999	0.0	+	57	noun	list	3	11	match	son	3	1	y	0.60394
536.7443	0.0	+	57	noun	list	3	12	match	son	3	1	y	0.60394
538.7434	0.0	SON	57	noun	list	3	13	match	son	3	1	y	0.60394
539.4098	0.0	+	57	noun	list	3	14	match	son	3	1	y	0.60394
539.3474	0.0	[response]	57	noun	list	3	15	match	son	3	1	y	0.60394
541.1424	0.0	+	58	verb	list	2	1	match	jongler	4	1	y	0.83148
541.6921	0.2	nrgj	58	verb	list	2	2	match	jongler	4	1	y	0.83148
541.8919999999999	0.0	+	58	verb	list	2	3	match	jongler	4	1	y	0.83148
542.2918999999999	0.2	hfk	58	verb	list	2	4	match	jongler	4	1	y	0.83148
542.4918	0.0	+	58	verb	list	2	5	match	jongler	4	1	y	0.83148
542.8915999999999	0.2	kmc	58	verb	list	2	6	match	jongler	4	1	y	0.83148
543.0915	0.0	+	58	verb	list	2	7	match	jongler	4	1	y	0.83148
543.4913	0.2	jongler	58	verb	list	2	8	match	jongler	4	1	y	0.83148
543.6912	0.0	+	58	verb	list	2	9	match	jongler	4	1	y	0.83148
544.0911	0.2	bleu	58	verb	list	2	10	match	jongler	4	1	y	0.83148
544.2909999999999	0.0	+	58	verb	list	2	11	match	jongler	4	1	y	0.83148
544.6908	0.0	+	58	verb	list	2	12	match	jongler	4	1	y	0.83148
546.6899	0.0	JONGLER	58	verb	list	2	13	match	jongler	4	1	y	0.83148
547.5728	0.0	+	58	verb	list	2	14	match	jongler	4	1	y	0.83148
547.5214	0.0	[response]	58	verb	list	2	15	match	jongler	4	1	y	0.83148
549.0888	0.0	+	59	verb	phrase	1	1	match	vite	5	1	y	0.53924
549.6386	0.2	rtwfpk	59	verb	phrase	1	2	match	vite	5	1	y	0.53924
549.8385	0.0	+	59	verb	phrase	1	3	match	vite	5	1	y	0.53924
550.2383	0.2	lgnz	59	verb	phrase	1	4	match	vite	5	1	y	0.53924
550.4381999999999	0.0	+	59	verb	phrase	1	5	match	vite	5	1	y	0.53924
550.838	0.2	mvbw	59	verb	phrase	1	6	match	vite	5	1	y	0.53924
551.0378999999999	0.0	+	59	verb	phrase	1	7	match	vite	5	1	y	0.53924
551.4377999999999	0.2	bdrzhls	59	verb	phrase	1	8	match	vite	5	1	y	0.53924
551.6377	0.0	+	59	verb	phrase	1	9	match	vite	5	1	y	0.53924
552.0375	0.2	vite	59	verb	phrase	1	10	match	vite	5	1	y	0.53924
552.2374	0.0	+	59	verb	phrase	1	11	match	vite	5	1	y	0.53924
552.6372	0.0	+	59	verb	phrase	1	12	match	vite	5	1	y	0.53924
554.6364	0.0	VITE	59	verb	phrase	1	13	match	vite	5	1	y	0.53924
555.2361	0.0	+	59	verb	phrase	1	14	match	vite	5	1	y	0.53924
555.1755999999999	0.0	[response]	59	verb	phrase	1	15	match	vite	5	1	y	0.53924
557.0353	0.0	+	60	verb	phrase	4	1	match	peut	3	1	y	0.94541
557.5849999999999	0.2	fxtgvjn	60	verb	phrase	4	2	match	peut	3	1	y	0.94541
557.7849	0.0	+	60	verb	phrase	4	3	match	peut	3	1	y	0.94541
558.1848	0.2	marc	60	verb	phrase	4	4	match	peut	3	1	y	0.94541
558.3847	0.0	+	60	verb	phrase	4	5	match	peut	3	1	y	0.94541
558.7845	0.2	peut	60	verb	phrase	4	6	match	peut	3	1	y	0.94541
558.9843999999999	0.0	+	60	verb	phrase	4	7	match	peut	3	1	y	0.94541
559.3842	0.2	moins	60	verb	phrase	4	8	match	peut	3	1	y	0.94541
559.5840999999999	0.0	+	60	verb	phrase	4	9	match	peut	3	1	y	0.94541
559.9839999999999	0.2	jongler	60	verb	phrase	4	10	match	peut	3	1	y	0.94541
560.1839	0.0	+	60	verb	phrase	4	11	match	peut	3	1	y	0.94541
560.5837	0.0	+	60	verb	phrase	4	12	match	peut	3	1	y	0.94541
562.5994999999999	0.0	PEUT	60	verb	phrase	4	13	match	peut	3	1	y	0.94541
563.5989999999999	0.0	+	60	verb	phrase	4	14	match	peut	3	1	y	0.94541
563.5449	0.0	[response]	60	verb	phrase	4	15	match	peut	3	1	y	0.94541
564.9984	0.0	+	61	verb	list	4	1	nomatch	son	-1	1	p	1.0786
565.5481	0.2	fkt	61	verb	list	4	2	nomatch	son	-1	1	p	1.0786
565.7479999999999	0.0	+	61	verb	list	4	3	nomatch	son	-1	1	p	1.0786
566.1478999999999	0.2	yves	61	verb	list	4	4	nomatch	son	-1	1	p	1.0786
566.3478	0.0	+	61	verb	list	4	5	nomatch	son	-1	1	p	1.0786
566.7475999999999	0.2	mon	61	verb	list	4	6	nomatch	son	-1	1	p	1.0786
566.9475	0.0	+	61	verb	list	4	7	nomatch	son	-1	1	p	1.0786
567.3473	0.2	rouler	61	verb	list	4	8	nomatch	son	-1	1	p	1.0786
567.5473	0.0	+	61	verb	list	4	9	nomatch	son	-1	1	p	1.0786
567.9471	0.2	vert	61	verb	list	4	10	nomatch	son	-1	1	p	1.0786
568.1469999999999	0.0	+	61	verb	list	4	11	nomatch	son	-1	1	p	1.0786
568.5468	0.0	+	61	verb	list	4	12	nomatch	son	-1	1	p	1.0786
570.5459	0.0	SON	61	verb	list	4	13	nomatch	son	-1	1	p	1.0786
571.6786999999999	0.0	+	61	verb	list	4	14	nomatch	son	-1	1	p	1.0786
571.6245000000001	0.0	[response]	61	verb	list	4	15	nomatch	son	-1	1	p	1.0786
572.9448	0.0	+	62	verb	phrase	1	1	match	chasser	5	1	y	0.69471
573.4946	0.2	kpmf	62	verb	phrase	1	2	match	chasser	5	1	y	0.69471
573.6945	0.0	+	62	verb	phrase	1	3	match	chasser	5	1	y	0.69471
574.0943	0.2	hfk	62	verb	phrase	1	4	match	chasser	5	1	y	0.69471
574.2941999999999	0.0	+	62	verb	phrase	1	5	match	chasser	5	1	y	0.69471
574.6940999999999	0.2	mvbw	62	verb	phrase	1	6	match	chasser	5	1	y	0.69471
574.894	0.0	+	62	verb	phrase	1	7	match	chasser	5	1	y	0.69471
575.2937999999999	0.2	ljqp	62	verb	phrase	1	8	match	chasser	5	1	y	0.69471
575.4937	0.0	+	62	verb	phrase	1	9	match	chasser	5	1	y	0.69471
575.8935	0.2	chasser	62	verb	phrase	1	10	match	chasser	5	1	y	0.69471
576.0934	0.0	+	62	verb	phrase	1	11	match	chasser	5	1	y	0.69471
576.4933	0.0	+	62	verb	phrase	1	12	match	chasser	5	1	y	0.69471
578.4924	0.0	CHASSER	62	verb	phrase	1	13	match	chasser	5	1	y	0.69471
579.242	0.0	+	62	verb	phrase	1	14	match	chasser	5	1	y	0.69471
579.1871000000001	0.0	[response]	62	verb	phrase	1	15	match	chasser	5	1	y	0.69471
580.8913	0.0	+	63	verb	list	2	1	match	vieux	4	1	y	0.77218
581.441	0.2	hvtmbgk	63	verb	list	2	2	match	vieux	4	1	y	0.77218
581.641	0.0	+	63	verb	list	2	3	match	vieux	4	1	y	0.77218
582.0408	0.2	pklg	63	verb	list	2	4	match	vieux	4	1	y	0.77218
582.2407	0.0	+	63	verb	list	2	5	match	vieux	4	1	y	0.77218
582.6405	0.2	nblj	63	verb	list	2	6	match	vieux	4	1	y	0.77218
582.8403999999999	0.0	+	63	verb	list	2	7	match	vieux	4	1	y	0.77218
583.2402	0.2	vieux	63	verb	list	2	8	match	vieux	4	1	y	0.77218
583.4402	0.0	+	63	verb	list	2	9	match	vieux	4	1	y	0.77218
583.8399999999999	0.2	galoper	63	verb	list	2	10	match	vieux	4	1	y	0.77218
584.0399	0.0	+	63	verb	list	2	11	match	vieux	4	1	y	0.77218
584.4397	0.0	+	63	verb	list	2	12	match	vieux	4	1	y	0.77218
586.4388	0.0	VIEUX	63	verb	list	2	13	match	vieux	4	1	y	0.77218
587.2718	0.0	+	63	verb	list	2	14	match	vieux	4	1	y	0.77218
587.2110000000001	0.0	[response]	63	verb	list	2	15	match	vieux	4	1	y	0.77218
588.8376999999999	0.0	+	64	verb	phrase	1	1	match	jongler	5	1	y	0.48658000000000007
589.3874999999999	0.2	wpdzjnx	64	verb	phrase	1	2	match	jongler	5	1	y	0.48658000000000007
589.5874	0.0	+	64	verb	phrase	1	3	match	jongler	5	1	y	0.48658000000000007
589.9872	0.2	lgnz	64	verb	phrase	1	4	match	jongler	5	1	y	0.48658000000000007
590.1871	0.0	+	64	verb	phrase	1	5	match	jongler	5	1	y	0.48658000000000007
590.587	0.2	mvbw	64	verb	phrase	1	6	match	jongler	5	1	y	0.48658000000000007
590.7869	0.0	+	64	verb	phrase	1	7	match	jongler	5	1	y	0.48658000000000007
591.1867	0.2	kcrv	64	verb	phrase	1	8	match	jongler	5	1	y	0.48658000000000007
591.3865999999999	0.0	+	64	verb	phrase	1	9	match	jongler	5	1	y	0.48658000000000007
591.7864	0.2	jongler	64	verb	phrase	1	10	match	jongler	5	1	y	0.48658000000000007
591.9863	0.0	+	64	verb	phrase	1	11	match	jongler	5	1	y	0.48658000000000007
592.3862	0.0	+	64	verb	phrase	1	12	match	jongler	5	1	y	0.48658000000000007
594.3853	0.0	JONGLER	64	verb	phrase	1	13	match	jongler	5	1	y	0.48658000000000007
594.935	0.0	+	64	verb	phrase	1	14	match	jongler	5	1	y	0.48658000000000007
594.8718	0.0	[response]	64	verb	phrase	1	15	match	jongler	5	1	y	0.48658000000000007
596.7841999999999	0.0	+	65	verb	list	2	1	nomatch	mon	-1	1	p	0.7456500000000001
597.3347	0.2	pkhxqbs	65	verb	list	2	2	nomatch	mon	-1	1	p	0.7456500000000001
597.5337999999999	0.0	+	65	verb	list	2	3	nomatch	mon	-1	1	p	0.7456500000000001
597.9336999999999	0.2	pklg	65	verb	list	2	4	nomatch	mon	-1	1	p	0.7456500000000001
598.1336	0.0	+	65	verb	list	2	5	nomatch	mon	-1	1	p	0.7456500000000001
598.5500999999999	0.2	lj	65	verb	list	2	6	nomatch	mon	-1	1	p	0.7456500000000001
598.75	0.0	+	65	verb	list	2	7	nomatch	mon	-1	1	p	0.7456500000000001
599.1498	0.2	petit	65	verb	list	2	8	nomatch	mon	-1	1	p	0.7456500000000001
599.3497	0.0	+	65	verb	list	2	9	nomatch	mon	-1	1	p	0.7456500000000001
599.7495	0.2	parader	65	verb	list	2	10	nomatch	mon	-1	1	p	0.7456500000000001
599.9494	0.0	+	65	verb	list	2	11	nomatch	mon	-1	1	p	0.7456500000000001
600.3493	0.0	+	65	verb	list	2	12	nomatch	mon	-1	1	p	0.7456500000000001
602.3484	0.0	MON	65	verb	list	2	13	nomatch	mon	-1	1	p	0.7456500000000001
603.148	0.0	+	65	verb	list	2	14	nomatch	mon	-1	1	p	0.7456500000000001
603.0939999999999	0.0	[response]	65	verb	list	2	15	nomatch	mon	-1	1	p	0.7456500000000001
620.7402	0.0	+	66	verb	phrase	2	1	match	ainsi	5	1	y	0.77277
621.2899	0.2	fdbj	66	verb	phrase	2	2	match	ainsi	5	1	y	0.77277
621.4898	0.0	+	66	verb	phrase	2	3	match	ainsi	5	1	y	0.77277
621.8897	0.2	lgnz	66	verb	phrase	2	4	match	ainsi	5	1	y	0.77277
622.0896	0.0	+	66	verb	phrase	2	5	match	ainsi	5	1	y	0.77277
622.4898999999999	0.2	nblj	66	verb	phrase	2	6	match	ainsi	5	1	y	0.77277
622.6893	0.0	+	66	verb	phrase	2	7	match	ainsi	5	1	y	0.77277
623.0891	0.2	chasser	66	verb	phrase	2	8	match	ainsi	5	1	y	0.77277
623.289	0.0	+	66	verb	phrase	2	9	match	ainsi	5	1	y	0.77277
623.6889	0.2	ainsi	66	verb	phrase	2	10	match	ainsi	5	1	y	0.77277
623.8888	0.0	+	66	verb	phrase	2	11	match	ainsi	5	1	y	0.77277
624.2886	0.0	+	66	verb	phrase	2	12	match	ainsi	5	1	y	0.77277
626.2877	0.0	AINSI	66	verb	phrase	2	13	match	ainsi	5	1	y	0.77277
627.1206	0.0	+	66	verb	phrase	2	14	match	ainsi	5	1	y	0.77277
627.0604999999999	0.0	[response]	66	verb	phrase	2	15	match	ainsi	5	1	y	0.77277
636.6997	0.0	+	67	noun	phrase	3	1	nomatch	voyager	-1	1	p	1.2193
637.2495	0.2	pgczqbs	67	noun	phrase	3	2	nomatch	voyager	-1	1	p	1.2193
637.4494	0.0	+	67	noun	phrase	3	3	nomatch	voyager	-1	1	p	1.2193
637.8492	0.2	pkq	67	noun	phrase	3	4	nomatch	voyager	-1	1	p	1.2193
638.0491	0.0	+	67	noun	phrase	3	5	nomatch	voyager	-1	1	p	1.2193
638.4489	0.2	mon	67	noun	phrase	3	6	nomatch	voyager	-1	1	p	1.2193
638.6487999999999	0.0	+	67	noun	phrase	3	7	nomatch	voyager	-1	1	p	1.2193
639.0486999999999	0.2	voilier	67	noun	phrase	3	8	nomatch	voyager	-1	1	p	1.2193
639.2486	0.0	+	67	noun	phrase	3	9	nomatch	voyager	-1	1	p	1.2193
639.6483999999999	0.2	noir	67	noun	phrase	3	10	nomatch	voyager	-1	1	p	1.2193
639.8483	0.0	+	67	noun	phrase	3	11	nomatch	voyager	-1	1	p	1.2193
640.2481	0.0	+	67	noun	phrase	3	12	nomatch	voyager	-1	1	p	1.2193
642.2472	0.0	VOYAGER	67	noun	phrase	3	13	nomatch	voyager	-1	1	p	1.2193
643.53	0.0	+	67	noun	phrase	3	14	nomatch	voyager	-1	1	p	1.2193
643.4665	0.0	[response]	67	noun	phrase	3	15	nomatch	voyager	-1	1	p	1.2193
644.6460999999999	0.0	+	68	verb	list	4	1	nomatch	blanc	-1	1	p	1.5777
645.1958999999999	0.2	srxchwg	68	verb	list	4	2	nomatch	blanc	-1	1	p	1.5777
645.3958	0.0	+	68	verb	list	4	3	nomatch	blanc	-1	1	p	1.5777
645.7955999999999	0.2	sans	68	verb	list	4	4	nomatch	blanc	-1	1	p	1.5777
645.9956	0.0	+	68	verb	list	4	5	nomatch	blanc	-1	1	p	1.5777
646.3954	0.2	peut	68	verb	list	4	6	nomatch	blanc	-1	1	p	1.5777
646.5953	0.0	+	68	verb	list	4	7	nomatch	blanc	-1	1	p	1.5777
646.9951	0.2	petit	68	verb	list	4	8	nomatch	blanc	-1	1	p	1.5777
647.1949999999999	0.0	+	68	verb	list	4	9	nomatch	blanc	-1	1	p	1.5777
647.5948	0.2	nager	68	verb	list	4	10	nomatch	blanc	-1	1	p	1.5777
647.7946999999999	0.0	+	68	verb	list	4	11	nomatch	blanc	-1	1	p	1.5777
648.1945999999999	0.0	+	68	verb	list	4	12	nomatch	blanc	-1	1	p	1.5777
650.1936999999999	0.0	BLANC	68	verb	list	4	13	nomatch	blanc	-1	1	p	1.5777
651.8263	0.0	+	68	verb	list	4	14	nomatch	blanc	-1	1	p	1.5777
651.7714	0.0	[response]	68	verb	list	4	15	nomatch	blanc	-1	1	p	1.5777
652.5926	0.0	+	69	verb	phrase	2	1	nomatch	beaucoup	-1	1	p	1.0487
653.1424	0.2	zqsc	69	verb	phrase	2	2	nomatch	beaucoup	-1	1	p	1.0487
653.3423	0.0	+	69	verb	phrase	2	3	nomatch	beaucoup	-1	1	p	1.0487
653.7420999999999	0.2	hfk	69	verb	phrase	2	4	nomatch	beaucoup	-1	1	p	1.0487
653.942	0.0	+	69	verb	phrase	2	5	nomatch	beaucoup	-1	1	p	1.0487
654.3417999999999	0.2	lj	69	verb	phrase	2	6	nomatch	beaucoup	-1	1	p	1.0487
654.5417	0.0	+	69	verb	phrase	2	7	nomatch	beaucoup	-1	1	p	1.0487
654.9416	0.2	jongler	69	verb	phrase	2	8	nomatch	beaucoup	-1	1	p	1.0487
655.1415	0.0	+	69	verb	phrase	2	9	nomatch	beaucoup	-1	1	p	1.0487
655.5413	0.2	vite	69	verb	phrase	2	10	nomatch	beaucoup	-1	1	p	1.0487
655.7411999999999	0.0	+	69	verb	phrase	2	11	nomatch	beaucoup	-1	1	p	1.0487
656.141	0.0	+	69	verb	phrase	2	12	nomatch	beaucoup	-1	1	p	1.0487
658.1405	0.0	BEAUCOUP	69	verb	phrase	2	13	nomatch	beaucoup	-1	1	p	1.0487
659.2563	0.0	+	69	verb	phrase	2	14	nomatch	beaucoup	-1	1	p	1.0487
659.1892	0.0	[response]	69	verb	phrase	2	15	nomatch	beaucoup	-1	1	p	1.0487
660.5391	0.0	+	70	noun	list	2	1	nomatch	casier	-1	1	p	0.8681300000000001
661.0888	0.2	bxr	70	noun	list	2	2	nomatch	casier	-1	1	p	0.8681300000000001
661.2887	0.0	+	70	noun	list	2	3	nomatch	casier	-1	1	p	0.8681300000000001
661.6886	0.2	lnjp	70	noun	list	2	4	nomatch	casier	-1	1	p	0.8681300000000001
661.8885	0.0	+	70	noun	list	2	5	nomatch	casier	-1	1	p	0.8681300000000001
662.2882999999999	0.2	mvbw	70	noun	list	2	6	nomatch	casier	-1	1	p	0.8681300000000001
662.4882	0.0	+	70	noun	list	2	7	nomatch	casier	-1	1	p	0.8681300000000001
662.8879999999999	0.2	cendrier	70	noun	list	2	8	nomatch	casier	-1	1	p	0.8681300000000001
663.0879	0.0	+	70	noun	list	2	9	nomatch	casier	-1	1	p	0.8681300000000001
663.4878	0.2	loin	70	noun	list	2	10	nomatch	casier	-1	1	p	0.8681300000000001
663.6877	0.0	+	70	noun	list	2	11	nomatch	casier	-1	1	p	0.8681300000000001
664.0875	0.0	+	70	noun	list	2	12	nomatch	casier	-1	1	p	0.8681300000000001
666.0866	0.0	CASIER	70	noun	list	2	13	nomatch	casier	-1	1	p	0.8681300000000001
667.0195	0.0	+	70	noun	list	2	14	nomatch	casier	-1	1	p	0.8681300000000001
666.9547	0.0	[response]	70	noun	list	2	15	nomatch	casier	-1	1	p	0.8681300000000001
668.4855	0.0	+	71	verb	list	3	1	nomatch	grand	-1	1	p	0.85095
669.0353	0.2	pcst	71	verb	list	3	2	nomatch	grand	-1	1	p	0.85095
669.2352	0.0	+	71	verb	list	3	3	nomatch	grand	-1	1	p	0.85095
669.635	0.2	fgvt	71	verb	list	3	4	nomatch	grand	-1	1	p	0.85095
669.8349	0.0	+	71	verb	list	3	5	nomatch	grand	-1	1	p	0.85095
670.2347	0.2	va	71	verb	list	3	6	nomatch	grand	-1	1	p	0.85095
670.4345999999999	0.0	+	71	verb	list	3	7	nomatch	grand	-1	1	p	0.85095
670.8344999999999	0.2	petit	71	verb	list	3	8	nomatch	grand	-1	1	p	0.85095
671.0344	0.0	+	71	verb	list	3	9	nomatch	grand	-1	1	p	0.85095
671.4343	0.2	plonger	71	verb	list	3	10	nomatch	grand	-1	1	p	0.85095
671.6341	0.0	+	71	verb	list	3	11	nomatch	grand	-1	1	p	0.85095
672.0339	0.0	+	71	verb	list	3	12	nomatch	grand	-1	1	p	0.85095
674.0497	0.0	GRAND	71	verb	list	3	13	nomatch	grand	-1	1	p	0.85095
674.966	0.0	+	71	verb	list	3	14	nomatch	grand	-1	1	p	0.85095
674.9005999999999	0.0	[response]	71	verb	list	3	15	nomatch	grand	-1	1	p	0.85095
684.4451	0.0	+	72	verb	phrase	4	1	match	nager	4	1	y	0.92488
684.9947999999999	0.2	qnhcg	72	verb	phrase	4	2	match	nager	4	1	y	0.92488
685.1947	0.0	+	72	verb	phrase	4	3	match	nager	4	1	y	0.92488
685.5944999999999	0.2	paul	72	verb	phrase	4	4	match	nager	4	1	y	0.92488
685.7945	0.0	+	72	verb	phrase	4	5	match	nager	4	1	y	0.92488
686.1943	0.2	doit	72	verb	phrase	4	6	match	nager	4	1	y	0.92488
686.3942	0.0	+	72	verb	phrase	4	7	match	nager	4	1	y	0.92488
686.794	0.2	nager	72	verb	phrase	4	8	match	nager	4	1	y	0.92488
686.9938999999999	0.0	+	72	verb	phrase	4	9	match	nager	4	1	y	0.92488
687.3937	0.2	ainsi	72	verb	phrase	4	10	match	nager	4	1	y	0.92488
687.5937	0.0	+	72	verb	phrase	4	11	match	nager	4	1	y	0.92488
687.9934999999999	0.0	+	72	verb	phrase	4	12	match	nager	4	1	y	0.92488
689.9925999999999	0.0	NAGER	72	verb	phrase	4	13	match	nager	4	1	y	0.92488
690.9755	0.0	+	72	verb	phrase	4	14	match	nager	4	1	y	0.92488
690.9175000000001	0.0	[response]	72	verb	phrase	4	15	match	nager	4	1	y	0.92488
700.3879	0.0	+	73	verb	list	3	1	nomatch	panier	-1	1	p	1.1091
700.9377	0.2	tbk	73	verb	list	3	2	nomatch	panier	-1	1	p	1.1091
701.1376	0.0	+	73	verb	list	3	3	nomatch	panier	-1	1	p	1.1091
701.5373999999999	0.2	npvf	73	verb	list	3	4	nomatch	panier	-1	1	p	1.1091
701.7373	0.0	+	73	verb	list	3	5	nomatch	panier	-1	1	p	1.1091
702.1372	0.2	leur	73	verb	list	3	6	nomatch	panier	-1	1	p	1.1091
702.3371	0.0	+	73	verb	list	3	7	nomatch	panier	-1	1	p	1.1091
702.7369	0.2	chasser	73	verb	list	3	8	nomatch	panier	-1	1	p	1.1091
702.9368	0.0	+	73	verb	list	3	9	nomatch	panier	-1	1	p	1.1091
703.3366	0.2	rouge	73	verb	list	3	10	nomatch	panier	-1	1	p	1.1091
703.5364999999999	0.0	+	73	verb	list	3	11	nomatch	panier	-1	1	p	1.1091
703.9363	0.0	+	73	verb	list	3	12	nomatch	panier	-1	1	p	1.1091
705.9354999999999	0.0	PANIER	73	verb	list	3	13	nomatch	panier	-1	1	p	1.1091
707.1016	0.0	+	73	verb	list	3	14	nomatch	panier	-1	1	p	1.1091
707.0446	0.0	[response]	73	verb	list	3	15	nomatch	panier	-1	1	p	1.1091
708.3344	0.0	+	74	verb	phrase	3	1	match	parader	4	1	y	1.2255
708.8842	0.2	hrfsd	74	verb	phrase	3	2	match	parader	4	1	y	1.2255
709.0840999999999	0.0	+	74	verb	phrase	3	3	match	parader	4	1	y	1.2255
709.4839	0.2	lgnz	74	verb	phrase	3	4	match	parader	4	1	y	1.2255
709.6838	0.0	+	74	verb	phrase	3	5	match	parader	4	1	y	1.2255
710.0835999999999	0.2	peut	74	verb	phrase	3	6	match	parader	4	1	y	1.2255
710.3002	0.0	+	74	verb	phrase	3	7	match	parader	4	1	y	1.2255
710.6999999999999	0.2	parader	74	verb	phrase	3	8	match	parader	4	1	y	1.2255
710.8999	0.0	+	74	verb	phrase	3	9	match	parader	4	1	y	1.2255
711.2997	0.2	loin	74	verb	phrase	3	10	match	parader	4	1	y	1.2255
711.4996	0.0	+	74	verb	phrase	3	11	match	parader	4	1	y	1.2255
711.8995	0.0	+	74	verb	phrase	3	12	match	parader	4	1	y	1.2255
713.8986	0.0	PARADER	74	verb	phrase	3	13	match	parader	4	1	y	1.2255
715.1813	0.0	+	74	verb	phrase	3	14	match	parader	4	1	y	1.2255
715.1241000000001	0.0	[response]	74	verb	phrase	3	15	match	parader	4	1	y	1.2255
716.2975	0.0	+	75	verb	phrase	1	1	nomatch	va	-1	0	TIMEOUT	-1.0
716.8473	0.2	hzdqj	75	verb	phrase	1	2	nomatch	va	-1	0	TIMEOUT	-1.0
717.0472	0.0	+	75	verb	phrase	1	3	nomatch	va	-1	0	TIMEOUT	-1.0
717.447	0.2	gjnb	75	verb	phrase	1	4	nomatch	va	-1	0	TIMEOUT	-1.0
717.6469	0.0	+	75	verb	phrase	1	5	nomatch	va	-1	0	TIMEOUT	-1.0
718.0467	0.2	lj	75	verb	phrase	1	6	nomatch	va	-1	0	TIMEOUT	-1.0
718.2466	0.0	+	75	verb	phrase	1	7	nomatch	va	-1	0	TIMEOUT	-1.0
718.6465	0.2	gfxmldq	75	verb	phrase	1	8	nomatch	va	-1	0	TIMEOUT	-1.0
718.8464	0.0	+	75	verb	phrase	1	9	nomatch	va	-1	0	TIMEOUT	-1.0
719.2461999999999	0.2	plus	75	verb	phrase	1	10	nomatch	va	-1	0	TIMEOUT	-1.0
719.4461	0.0	+	75	verb	phrase	1	11	nomatch	va	-1	0	TIMEOUT	-1.0
719.8459	0.0	+	75	verb	phrase	1	12	nomatch	va	-1	0	TIMEOUT	-1.0
721.845	0.0	VA	75	verb	phrase	1	13	nomatch	va	-1	0	TIMEOUT	-1.0
724.244	0.0	+	76	verb	list	1	1	match	plonger	5	1	y	0.70536
724.8437	0.2	msj	76	verb	list	1	2	match	plonger	5	1	y	0.70536
725.0436	0.0	+	76	verb	list	1	3	match	plonger	5	1	y	0.70536
725.4434	0.2	pklg	76	verb	list	1	4	match	plonger	5	1	y	0.70536
725.6433	0.0	+	76	verb	list	1	5	match	plonger	5	1	y	0.70536
726.0432	0.2	nblj	76	verb	list	1	6	match	plonger	5	1	y	0.70536
726.2431	0.0	+	76	verb	list	1	7	match	plonger	5	1	y	0.70536
726.6428999999999	0.2	dqsxmhv	76	verb	list	1	8	match	plonger	5	1	y	0.70536
726.8428	0.0	+	76	verb	list	1	9	match	plonger	5	1	y	0.70536
727.2425999999999	0.2	plonger	76	verb	list	1	10	match	plonger	5	1	y	0.70536
727.4425	0.0	+	76	verb	list	1	11	match	plonger	5	1	y	0.70536
727.8423	0.0	+	76	verb	list	1	12	match	plonger	5	1	y	0.70536
729.8415	0.0	PLONGER	76	verb	list	1	13	match	plonger	5	1	y	0.70536
730.6078	0.0	+	76	verb	list	1	14	match	plonger	5	1	y	0.70536
730.5468	0.0	[response]	76	verb	list	1	15	match	plonger	5	1	y	0.70536
732.2404	0.0	+	77	verb	phrase	3	1	match	plus	4	1	y	0.87901
732.7900999999999	0.2	slcwjm	77	verb	phrase	3	2	match	plus	4	1	y	0.87901
732.99	0.0	+	77	verb	phrase	3	3	match	plus	4	1	y	0.87901
733.3899	0.2	htzd	77	verb	phrase	3	4	match	plus	4	1	y	0.87901
733.5898	0.0	+	77	verb	phrase	3	5	match	plus	4	1	y	0.87901
733.9896	0.2	doit	77	verb	phrase	3	6	match	plus	4	1	y	0.87901
734.1895	0.0	+	77	verb	phrase	3	7	match	plus	4	1	y	0.87901
734.5893	0.2	plus	77	verb	phrase	3	8	match	plus	4	1	y	0.87901
734.7891999999999	0.0	+	77	verb	phrase	3	9	match	plus	4	1	y	0.87901
735.1890999999999	0.2	jongler	77	verb	phrase	3	10	match	plus	4	1	y	0.87901
735.389	0.0	+	77	verb	phrase	3	11	match	plus	4	1	y	0.87901
735.7887999999999	0.0	+	77	verb	phrase	3	12	match	plus	4	1	y	0.87901
737.7878999999999	0.0	PLUS	77	verb	phrase	3	13	match	plus	4	1	y	0.87901
738.7207999999999	0.0	+	77	verb	phrase	3	14	match	plus	4	1	y	0.87901
738.6668999999999	0.0	[response]	77	verb	phrase	3	15	match	plus	4	1	y	0.87901
740.1868999999999	0.0	+	78	verb	phrase	4	1	nomatch	mon	-1	1	p	1.1854
740.7366	0.2	gjtkq	78	verb	phrase	4	2	nomatch	mon	-1	1	p	1.1854
740.9372	0.0	+	78	verb	phrase	4	3	nomatch	mon	-1	1	p	1.1854
741.3362999999999	0.2	luc	78	verb	phrase	4	4	nomatch	mon	-1	1	p	1.1854
741.5362	0.0	+	78	verb	phrase	4	5	nomatch	mon	-1	1	p	1.1854
741.9361	0.2	va	78	verb	phrase	4	6	nomatch	mon	-1	1	p	1.1854
742.136	0.0	+	78	verb	phrase	4	7	nomatch	mon	-1	1	p	1.1854
742.5358	0.2	voyager	78	verb	phrase	4	8	nomatch	mon	-1	1	p	1.1854
742.7357	0.0	+	78	verb	phrase	4	9	nomatch	mon	-1	1	p	1.1854
743.1355	0.2	loin	78	verb	phrase	4	10	nomatch	mon	-1	1	p	1.1854
743.3353999999999	0.0	+	78	verb	phrase	4	11	nomatch	mon	-1	1	p	1.1854
743.7352999999999	0.0	+	78	verb	phrase	4	12	nomatch	mon	-1	1	p	1.1854
745.7343999999999	0.0	MON	78	verb	phrase	4	13	nomatch	mon	-1	1	p	1.1854
746.9838	0.0	+	78	verb	phrase	4	14	nomatch	mon	-1	1	p	1.1854
746.9198	0.0	[response]	78	verb	phrase	4	15	nomatch	mon	-1	1	p	1.1854
748.1499	0.0	+	79	noun	phrase	1	1	nomatch	voilier	-1	1	p	0.7801700000000001
748.7003	0.2	mtc	79	noun	phrase	1	2	nomatch	voilier	-1	1	p	0.7801700000000001
748.8996	0.0	+	79	noun	phrase	1	3	nomatch	voilier	-1	1	p	0.7801700000000001
749.3	0.2	rflt	79	noun	phrase	1	4	nomatch	voilier	-1	1	p	0.7801700000000001
749.4993999999999	0.0	+	79	noun	phrase	1	5	nomatch	voilier	-1	1	p	0.7801700000000001
749.8992	0.2	zxd	79	noun	phrase	1	6	nomatch	voilier	-1	1	p	0.7801700000000001
750.0991	0.0	+	79	noun	phrase	1	7	nomatch	voilier	-1	1	p	0.7801700000000001
750.4988999999999	0.2	fvpln	79	noun	phrase	1	8	nomatch	voilier	-1	1	p	0.7801700000000001
750.6988	0.0	+	79	noun	phrase	1	9	nomatch	voilier	-1	1	p	0.7801700000000001
751.0991	0.2	cendrier	79	noun	phrase	1	10	nomatch	voilier	-1	1	p	0.7801700000000001
751.2991	0.0	+	79	noun	phrase	1	11	nomatch	voilier	-1	1	p	0.7801700000000001
751.6984	0.0	+	79	noun	phrase	1	12	nomatch	voilier	-1	1	p	0.7801700000000001
753.6975	0.0	VOILIER	79	noun	phrase	1	13	nomatch	voilier	-1	1	p	0.7801700000000001
754.5304	0.0	+	79	noun	phrase	1	14	nomatch	voilier	-1	1	p	0.7801700000000001
754.4777	0.0	[response]	79	noun	phrase	1	15	nomatch	voilier	-1	1	p	0.7801700000000001
756.0964	0.0	+	80	verb	phrase	4	1	nomatch	adam	-1	1	p	2.2057
756.6460999999999	0.2	kdsbnlw	80	verb	phrase	4	2	nomatch	adam	-1	1	p	2.2057
756.8461	0.0	+	80	verb	phrase	4	3	nomatch	adam	-1	1	p	2.2057
757.2459	0.2	jean	80	verb	phrase	4	4	nomatch	adam	-1	1	p	2.2057
757.4458	0.0	+	80	verb	phrase	4	5	nomatch	adam	-1	1	p	2.2057
757.8456	0.2	doit	80	verb	phrase	4	6	nomatch	adam	-1	1	p	2.2057
758.0455	0.0	+	80	verb	phrase	4	7	nomatch	adam	-1	1	p	2.2057
758.4454	0.2	trop	80	verb	phrase	4	8	nomatch	adam	-1	1	p	2.2057
758.6453	0.0	+	80	verb	phrase	4	9	nomatch	adam	-1	1	p	2.2057
759.0450999999999	0.2	galoper	80	verb	phrase	4	10	nomatch	adam	-1	1	p	2.2057
759.245	0.0	+	80	verb	phrase	4	11	nomatch	adam	-1	1	p	2.2057
759.6447999999999	0.0	+	80	verb	phrase	4	12	nomatch	adam	-1	1	p	2.2057
761.6439	0.0	ADAM	80	verb	phrase	4	13	nomatch	adam	-1	1	p	2.2057
763.9096	0.0	+	80	verb	phrase	4	14	nomatch	adam	-1	1	p	2.2057
764.0428999999999	0.0	+	80	verb	phrase	4	15	nomatch	adam	-1	1	p	2.2057
764.9924	0.0	+	80	verb	phrase	4	16	nomatch	adam	-1	1	p	2.2057
765.0924	0.0	+	80	verb	phrase	4	17	nomatch	adam	-1	1	p	2.2057
766.5083999999999	0.0	+	80	verb	phrase	4	18	nomatch	adam	-1	1	p	2.2057
766.6084	0.0	+	80	verb	phrase	4	19	nomatch	adam	-1	1	p	2.2057
768.0078	0.0	+	80	verb	phrase	4	20	nomatch	adam	-1	1	p	2.2057
768.1077	0.0	+	80	verb	phrase	4	21	nomatch	adam	-1	1	p	2.2057
769.5070999999999	0.0	+	80	verb	phrase	4	22	nomatch	adam	-1	1	p	2.2057
769.607	0.0	+	80	verb	phrase	4	23	nomatch	adam	-1	1	p	2.2057
771.0064	0.0	+	80	verb	phrase	4	24	nomatch	adam	-1	1	p	2.2057
771.1064	0.0	+	80	verb	phrase	4	25	nomatch	adam	-1	1	p	2.2057
772.5056999999999	0.0	+	80	verb	phrase	4	26	nomatch	adam	-1	1	p	2.2057
772.6057	0.0	+	80	verb	phrase	4	27	nomatch	adam	-1	1	p	2.2057
774.0051	0.0	+	80	verb	phrase	4	28	nomatch	adam	-1	1	p	2.2057
774.105	0.0	+	80	verb	phrase	4	29	nomatch	adam	-1	1	p	2.2057
775.5043999999999	0.0	+	80	verb	phrase	4	30	nomatch	adam	-1	1	p	2.2057
775.6043999999999	0.0	+	80	verb	phrase	4	31	nomatch	adam	-1	1	p	2.2057
777.0037	0.0	+	80	verb	phrase	4	32	nomatch	adam	-1	1	p	2.2057
777.1037	0.0	+	80	verb	phrase	4	33	nomatch	adam	-1	1	p	2.2057
778.5031	0.0	+	80	verb	phrase	4	34	nomatch	adam	-1	1	p	2.2057
778.603	0.0	+	80	verb	phrase	4	35	nomatch	adam	-1	1	p	2.2057
782.9344	0.0	+	80	verb	phrase	4	36	nomatch	adam	-1	1	p	2.2057
763.8496	0.0	[response]	80	verb	phrase	4	37	nomatch	adam	-1	1	p	2.2057
