onset	duration	stim	trial_number	trial_type	trial_structure	trial_length	sequential_position	probe_type	probe	probe_position	response_correct	response_key	response_time
0.0625	0.0	+	1	noun	phrase	1	1	nomatch	jean	-1	0	TIMEOUT	-1.0
0.5456000000000003	0.2	gwj	1	noun	phrase	1	2	nomatch	jean	-1	0	TIMEOUT	-1.0
0.7454999999999998	0.0	+	1	noun	phrase	1	3	nomatch	jean	-1	0	TIMEOUT	-1.0
1.1452999999999989	0.2	nvmf	1	noun	phrase	1	4	nomatch	jean	-1	0	TIMEOUT	-1.0
1.3451999999999984	0.0	+	1	noun	phrase	1	5	nomatch	jean	-1	0	TIMEOUT	-1.0
1.7449999999999974	0.2	xzdl	1	noun	phrase	1	6	nomatch	jean	-1	0	TIMEOUT	-1.0
1.9450000000000003	0.0	+	1	noun	phrase	1	7	nomatch	jean	-1	0	TIMEOUT	-1.0
2.3447999999999993	0.2	thdc	1	noun	phrase	1	8	nomatch	jean	-1	0	TIMEOUT	-1.0
2.544699999999999	0.0	+	1	noun	phrase	1	9	nomatch	jean	-1	0	TIMEOUT	-1.0
2.944499999999998	0.2	tablier	1	noun	phrase	1	10	nomatch	jean	-1	0	TIMEOUT	-1.0
3.1443999999999974	0.0	+	1	noun	phrase	1	11	nomatch	jean	-1	0	TIMEOUT	-1.0
3.5443	0.0	+	1	noun	phrase	1	12	nomatch	jean	-1	0	TIMEOUT	-1.0
5.543299999999995	0.0	JEAN	1	noun	phrase	1	13	nomatch	jean	-1	0	TIMEOUT	-1.0
7.942299999999996	0.0	+	2	noun	phrase	4	1	match	leur	3	0	p	1.9991
8.541999999999994	0.2	npjt	2	noun	phrase	4	2	match	leur	3	0	p	1.9991
8.741900000000001	0.0	+	2	noun	phrase	4	3	match	leur	3	0	p	1.9991
9.142299999999999	0.2	dans	2	noun	phrase	4	4	match	leur	3	0	p	1.9991
9.341699999999996	0.0	+	2	noun	phrase	4	5	match	leur	3	0	p	1.9991
9.741499999999995	0.2	leur	2	noun	phrase	4	6	match	leur	3	0	p	1.9991
9.941399999999994	0.0	+	2	noun	phrase	4	7	match	leur	3	0	p	1.9991
10.3412	0.2	voilier	2	noun	phrase	4	8	match	leur	3	0	p	1.9991
10.5411	0.0	+	2	noun	phrase	4	9	match	leur	3	0	p	1.9991
10.9409	0.2	bleu	2	noun	phrase	4	10	match	leur	3	0	p	1.9991
11.140899999999995	0.0	+	2	noun	phrase	4	11	match	leur	3	0	p	1.9991
11.5411	0.0	+	2	noun	phrase	4	12	match	leur	3	0	p	1.9991
13.5398	0.0	LEUR	2	noun	phrase	4	13	match	leur	3	0	p	1.9991
15.605499999999992	0.0	+	2	noun	phrase	4	14	match	leur	3	0	p	1.9991
15.538899999999998	0.0	[response]	2	noun	phrase	4	15	match	leur	3	0	p	1.9991
15.938699999999997	0.0	+	3	noun	list	2	1	match	clavier	5	1	y	0.48989
16.489199999999997	0.2	qhpdw	3	noun	list	2	2	match	clavier	5	1	y	0.48989
16.6884	0.0	+	3	noun	list	2	3	match	clavier	5	1	y	0.48989
17.0882	0.2	gtzv	3	noun	list	2	4	match	clavier	5	1	y	0.48989
17.2881	0.0	+	3	noun	list	2	5	match	clavier	5	1	y	0.48989
17.6879	0.2	wqp	3	noun	list	2	6	match	clavier	5	1	y	0.48989
17.8878	0.0	+	3	noun	list	2	7	match	clavier	5	1	y	0.48989
18.2877	0.2	moins	3	noun	list	2	8	match	clavier	5	1	y	0.48989
18.4876	0.0	+	3	noun	list	2	9	match	clavier	5	1	y	0.48989
18.8874	0.2	clavier	3	noun	list	2	10	match	clavier	5	1	y	0.48989
19.0873	0.0	+	3	noun	list	2	11	match	clavier	5	1	y	0.48989
19.487099999999998	0.0	+	3	noun	list	2	12	match	clavier	5	1	y	0.48989
21.486199999999997	0.0	CLAVIER	3	noun	list	2	13	match	clavier	5	1	y	0.48989
22.036	0.0	+	3	noun	list	2	14	match	clavier	5	1	y	0.48989
21.976100000000017	0.0	[response]	3	noun	list	2	15	match	clavier	5	1	y	0.48989
23.885199999999998	0.0	+	4	noun	phrase	3	1	nomatch	bleu	-1	1	p	0.70105
24.4349	0.2	xjhpfb	4	noun	phrase	3	2	nomatch	bleu	-1	1	p	0.70105
24.6348	0.0	+	4	noun	phrase	3	3	nomatch	bleu	-1	1	p	0.70105
25.034800000000004	0.2	hqjx	4	noun	phrase	3	4	nomatch	bleu	-1	1	p	0.70105
25.2346	0.0	+	4	noun	phrase	3	5	nomatch	bleu	-1	1	p	0.70105
25.6344	0.2	leur	4	noun	phrase	3	6	nomatch	bleu	-1	1	p	0.70105
25.8343	0.0	+	4	noun	phrase	3	7	nomatch	bleu	-1	1	p	0.70105
26.234099999999998	0.2	voilier	4	noun	phrase	3	8	nomatch	bleu	-1	1	p	0.70105
26.433999999999997	0.0	+	4	noun	phrase	3	9	nomatch	bleu	-1	1	p	0.70105
26.8339	0.2	noir	4	noun	phrase	3	10	nomatch	bleu	-1	1	p	0.70105
27.0338	0.0	+	4	noun	phrase	3	11	nomatch	bleu	-1	1	p	0.70105
27.4336	0.0	+	4	noun	phrase	3	12	nomatch	bleu	-1	1	p	0.70105
29.449399999999997	0.0	BLEU	4	noun	phrase	3	13	nomatch	bleu	-1	1	p	0.70105
30.2157	0.0	+	4	noun	phrase	3	14	nomatch	bleu	-1	1	p	0.70105
30.150400000000005	0.0	[response]	4	noun	phrase	3	15	nomatch	bleu	-1	1	p	0.70105
39.8447	0.0	+	5	noun	list	1	1	nomatch	doit	-1	1	p	0.56417
40.4113	0.2	zhgfpcv	5	noun	list	1	2	nomatch	doit	-1	1	p	0.56417
40.59439999999999	0.0	+	5	noun	list	1	3	nomatch	doit	-1	1	p	0.56417
40.994699999999995	0.2	gtzv	5	noun	list	1	4	nomatch	doit	-1	1	p	0.56417
41.194199999999995	0.0	+	5	noun	list	1	5	nomatch	doit	-1	1	p	0.56417
41.59389999999999	0.2	xzdl	5	noun	list	1	6	nomatch	doit	-1	1	p	0.56417
41.793899999999994	0.0	+	5	noun	list	1	7	nomatch	doit	-1	1	p	0.56417
42.19369999999999	0.2	kbnfm	5	noun	list	1	8	nomatch	doit	-1	1	p	0.56417
42.39359999999999	0.0	+	5	noun	list	1	9	nomatch	doit	-1	1	p	0.56417
42.79339999999999	0.2	sablier	5	noun	list	1	10	nomatch	doit	-1	1	p	0.56417
42.99329999999999	0.0	+	5	noun	list	1	11	nomatch	doit	-1	1	p	0.56417
43.393100000000004	0.0	+	5	noun	list	1	12	nomatch	doit	-1	1	p	0.56417
45.40899999999999	0.0	DOIT	5	noun	list	1	13	nomatch	doit	-1	1	p	0.56417
46.075900000000004	0.0	+	5	noun	list	1	14	nomatch	doit	-1	1	p	0.56417
45.97319999999999	0.0	[response]	5	noun	list	1	15	nomatch	doit	-1	1	p	0.56417
47.791399999999996	0.0	+	6	noun	list	1	1	match	loin	5	1	y	0.45842000000000005
48.340999999999994	0.2	kmgq	6	noun	list	1	2	match	loin	5	1	y	0.45842000000000005
48.54129999999999	0.0	+	6	noun	list	1	3	match	loin	5	1	y	0.45842000000000005
48.94069999999999	0.2	vrzh	6	noun	list	1	4	match	loin	5	1	y	0.45842000000000005
49.14059999999999	0.0	+	6	noun	list	1	5	match	loin	5	1	y	0.45842000000000005
49.54039999999999	0.2	vcmh	6	noun	list	1	6	match	loin	5	1	y	0.45842000000000005
49.740300000000005	0.0	+	6	noun	list	1	7	match	loin	5	1	y	0.45842000000000005
50.140100000000004	0.2	kgcwht	6	noun	list	1	8	match	loin	5	1	y	0.45842000000000005
50.34	0.0	+	6	noun	list	1	9	match	loin	5	1	y	0.45842000000000005
50.73989999999999	0.2	loin	6	noun	list	1	10	match	loin	5	1	y	0.45842000000000005
50.93979999999999	0.0	+	6	noun	list	1	11	match	loin	5	1	y	0.45842000000000005
51.339600000000004	0.0	+	6	noun	list	1	12	match	loin	5	1	y	0.45842000000000005
53.33919999999999	0.0	LOIN	6	noun	list	1	13	match	loin	5	1	y	0.45842000000000005
53.85509999999999	0.0	+	6	noun	list	1	14	match	loin	5	1	y	0.45842000000000005
53.79760000000002	0.0	[response]	6	noun	list	1	15	match	loin	5	1	y	0.45842000000000005
79.74359999999999	0.0	+	7	noun	list	1	1	nomatch	boîtier	-1	1	p	0.60472
80.29339999999999	0.2	rkcdv	7	noun	list	1	2	nomatch	boîtier	-1	1	p	0.60472
80.4933	0.0	+	7	noun	list	1	3	nomatch	boîtier	-1	1	p	0.60472
80.8931	0.2	tgcf	7	noun	list	1	4	nomatch	boîtier	-1	1	p	0.60472
81.1104	0.0	+	7	noun	list	1	5	nomatch	boîtier	-1	1	p	0.60472
81.4932	0.2	rdq	7	noun	list	1	6	nomatch	boîtier	-1	1	p	0.60472
81.69309999999999	0.0	+	7	noun	list	1	7	nomatch	boîtier	-1	1	p	0.60472
82.0932	0.2	rbwc	7	noun	list	1	8	nomatch	boîtier	-1	1	p	0.60472
82.293	0.0	+	7	noun	list	1	9	nomatch	boîtier	-1	1	p	0.60472
82.69229999999999	0.2	voilier	7	noun	list	1	10	nomatch	boîtier	-1	1	p	0.60472
82.8922	0.0	+	7	noun	list	1	11	nomatch	boîtier	-1	1	p	0.60472
83.292	0.0	+	7	noun	list	1	12	nomatch	boîtier	-1	1	p	0.60472
85.2911	0.0	BOÎTIER	7	noun	list	1	13	nomatch	boîtier	-1	1	p	0.60472
85.95750000000001	0.0	+	7	noun	list	1	14	nomatch	boîtier	-1	1	p	0.60472
85.89590000000001	0.0	[response]	7	noun	list	1	15	nomatch	boîtier	-1	1	p	0.60472
87.6901	0.0	+	8	noun	phrase	1	1	nomatch	nouveau	-1	1	p	0.71175
88.2398	0.2	bwxdpm	8	noun	phrase	1	2	nomatch	nouveau	-1	1	p	0.71175
88.43969999999999	0.0	+	8	noun	phrase	1	3	nomatch	nouveau	-1	1	p	0.71175
88.8401	0.2	ctdq	8	noun	phrase	1	4	nomatch	nouveau	-1	1	p	0.71175
89.03979999999999	0.0	+	8	noun	phrase	1	5	nomatch	nouveau	-1	1	p	0.71175
89.43979999999999	0.2	wqp	8	noun	phrase	1	6	nomatch	nouveau	-1	1	p	0.71175
89.63919999999999	0.0	+	8	noun	phrase	1	7	nomatch	nouveau	-1	1	p	0.71175
90.03899999999999	0.2	kgcwht	8	noun	phrase	1	8	nomatch	nouveau	-1	1	p	0.71175
90.2389	0.0	+	8	noun	phrase	1	9	nomatch	nouveau	-1	1	p	0.71175
90.6387	0.2	vieux	8	noun	phrase	1	10	nomatch	nouveau	-1	1	p	0.71175
90.83869999999999	0.0	+	8	noun	phrase	1	11	nomatch	nouveau	-1	1	p	0.71175
91.23849999999999	0.0	+	8	noun	phrase	1	12	nomatch	nouveau	-1	1	p	0.71175
93.23759999999999	0.0	NOUVEAU	8	noun	phrase	1	13	nomatch	nouveau	-1	1	p	0.71175
94.00389999999999	0.0	+	8	noun	phrase	1	14	nomatch	nouveau	-1	1	p	0.71175
93.9493	0.0	[response]	8	noun	phrase	1	15	nomatch	nouveau	-1	1	p	0.71175
95.63649999999998	0.0	+	9	noun	phrase	3	1	match	boîtier	4	1	y	0.77651
96.18629999999999	0.2	wlgqp	9	noun	phrase	3	2	match	boîtier	4	1	y	0.77651
96.3862	0.0	+	9	noun	phrase	3	3	match	boîtier	4	1	y	0.77651
96.786	0.2	hqjx	9	noun	phrase	3	4	match	boîtier	4	1	y	0.77651
96.98589999999999	0.0	+	9	noun	phrase	3	5	match	boîtier	4	1	y	0.77651
97.40289999999999	0.2	mon	9	noun	phrase	3	6	match	boîtier	4	1	y	0.77651
97.6027	0.0	+	9	noun	phrase	3	7	match	boîtier	4	1	y	0.77651
97.98570000000001	0.2	boîtier	9	noun	phrase	3	8	match	boîtier	4	1	y	0.77651
98.186	0.0	+	9	noun	phrase	3	9	match	boîtier	4	1	y	0.77651
98.60220000000001	0.2	vert	9	noun	phrase	3	10	match	boîtier	4	1	y	0.77651
98.7851	0.0	+	9	noun	phrase	3	11	match	boîtier	4	1	y	0.77651
99.1849	0.0	+	9	noun	phrase	3	12	match	boîtier	4	1	y	0.77651
101.184	0.0	BOÎTIER	9	noun	phrase	3	13	match	boîtier	4	1	y	0.77651
102.017	0.0	+	9	noun	phrase	3	14	match	boîtier	4	1	y	0.77651
101.9606	0.0	[response]	9	noun	phrase	3	15	match	boîtier	4	1	y	0.77651
103.59969999999998	0.0	+	10	verb	phrase	1	1	match	ainsi	5	1	y	0.48705
104.14959999999999	0.2	lqtnbc	10	verb	phrase	1	2	match	ainsi	5	1	y	0.48705
104.3493	0.0	+	10	verb	phrase	1	3	match	ainsi	5	1	y	0.48705
104.7491	0.2	gxnp	10	verb	phrase	1	4	match	ainsi	5	1	y	0.48705
104.94899999999998	0.0	+	10	verb	phrase	1	5	match	ainsi	5	1	y	0.48705
105.34889999999999	0.2	sk	10	verb	phrase	1	6	match	ainsi	5	1	y	0.48705
105.5488	0.0	+	10	verb	phrase	1	7	match	ainsi	5	1	y	0.48705
105.9486	0.2	prtlzhs	10	verb	phrase	1	8	match	ainsi	5	1	y	0.48705
106.14849999999998	0.0	+	10	verb	phrase	1	9	match	ainsi	5	1	y	0.48705
106.54830000000001	0.2	ainsi	10	verb	phrase	1	10	match	ainsi	5	1	y	0.48705
106.7482	0.0	+	10	verb	phrase	1	11	match	ainsi	5	1	y	0.48705
107.148	0.0	+	10	verb	phrase	1	12	match	ainsi	5	1	y	0.48705
109.1472	0.0	AINSI	10	verb	phrase	1	13	match	ainsi	5	1	y	0.48705
109.6969	0.0	+	10	verb	phrase	1	14	match	ainsi	5	1	y	0.48705
109.63419999999999	0.0	[response]	10	verb	phrase	1	15	match	ainsi	5	1	y	0.48705
111.5461	0.0	+	11	noun	list	3	1	nomatch	paul	-1	1	p	1.8637
112.0959	0.2	jzfg	11	noun	list	3	2	nomatch	paul	-1	1	p	1.8637
112.2964	0.0	+	11	noun	list	3	3	nomatch	paul	-1	1	p	1.8637
112.69579999999999	0.2	hqjx	11	noun	list	3	4	nomatch	paul	-1	1	p	1.8637
112.91290000000001	0.0	+	11	noun	list	3	5	nomatch	paul	-1	1	p	1.8637
113.29589999999999	0.2	doit	11	noun	list	3	6	nomatch	paul	-1	1	p	1.8637
113.49520000000001	0.0	+	11	noun	list	3	7	nomatch	paul	-1	1	p	1.8637
113.89500000000001	0.2	rocher	11	noun	list	3	8	nomatch	paul	-1	1	p	1.8637
114.095	0.0	+	11	noun	list	3	9	nomatch	paul	-1	1	p	1.8637
114.4948	0.2	loin	11	noun	list	3	10	nomatch	paul	-1	1	p	1.8637
114.69470000000001	0.0	+	11	noun	list	3	11	nomatch	paul	-1	1	p	1.8637
115.09450000000001	0.0	+	11	noun	list	3	12	nomatch	paul	-1	1	p	1.8637
117.09360000000001	0.0	PAUL	11	noun	list	3	13	nomatch	paul	-1	1	p	1.8637
119.0094	0.0	+	11	noun	list	3	14	nomatch	paul	-1	1	p	1.8637
118.9573	0.0	[response]	11	noun	list	3	15	nomatch	paul	-1	1	p	1.8637
119.49260000000001	0.0	+	12	noun	phrase	1	1	match	sablier	5	1	y	0.39999
120.04230000000001	0.2	nwbmpht	12	noun	phrase	1	2	match	sablier	5	1	y	0.39999
120.2422	0.0	+	12	noun	phrase	1	3	match	sablier	5	1	y	0.39999
120.642	0.2	jqbv	12	noun	phrase	1	4	match	sablier	5	1	y	0.39999
120.84199999999998	0.0	+	12	noun	phrase	1	5	match	sablier	5	1	y	0.39999
121.24180000000001	0.2	wqp	12	noun	phrase	1	6	match	sablier	5	1	y	0.39999
121.4417	0.0	+	12	noun	phrase	1	7	match	sablier	5	1	y	0.39999
121.8415	0.2	nlrpk	12	noun	phrase	1	8	match	sablier	5	1	y	0.39999
122.04140000000001	0.0	+	12	noun	phrase	1	9	match	sablier	5	1	y	0.39999
122.44120000000001	0.2	sablier	12	noun	phrase	1	10	match	sablier	5	1	y	0.39999
122.6411	0.0	+	12	noun	phrase	1	11	match	sablier	5	1	y	0.39999
123.0409	0.0	+	12	noun	phrase	1	12	match	sablier	5	1	y	0.39999
125.0401	0.0	SABLIER	12	noun	phrase	1	13	match	sablier	5	1	y	0.39999
125.50649999999999	0.0	+	12	noun	phrase	1	14	match	sablier	5	1	y	0.39999
125.4401	0.0	[response]	12	noun	phrase	1	15	match	sablier	5	1	y	0.39999
135.4354	0.0	+	13	verb	list	3	1	match	blanc	5	1	y	0.89392
135.9852	0.2	rbnkfgx	13	verb	list	3	2	match	blanc	5	1	y	0.89392
136.1851	0.0	+	13	verb	list	3	3	match	blanc	5	1	y	0.89392
136.5849	0.2	gpqk	13	verb	list	3	4	match	blanc	5	1	y	0.89392
136.7848	0.0	+	13	verb	list	3	5	match	blanc	5	1	y	0.89392
137.1847	0.2	mon	13	verb	list	3	6	match	blanc	5	1	y	0.89392
137.4017	0.0	+	13	verb	list	3	7	match	blanc	5	1	y	0.89392
137.7849	0.2	voyager	13	verb	list	3	8	match	blanc	5	1	y	0.89392
137.98499999999999	0.0	+	13	verb	list	3	9	match	blanc	5	1	y	0.89392
138.38479999999998	0.2	blanc	13	verb	list	3	10	match	blanc	5	1	y	0.89392
138.601	0.0	+	13	verb	list	3	11	match	blanc	5	1	y	0.89392
138.9839	0.0	+	13	verb	list	3	12	match	blanc	5	1	y	0.89392
140.9996	0.0	BLANC	13	verb	list	3	13	match	blanc	5	1	y	0.89392
141.9492	0.0	+	13	verb	list	3	14	match	blanc	5	1	y	0.89392
141.8935	0.0	[response]	13	verb	list	3	15	match	blanc	5	1	y	0.89392
143.3986	0.0	+	14	noun	phrase	2	1	nomatch	va	-1	1	p	0.69868
143.9483	0.2	tlq	14	noun	phrase	2	2	nomatch	va	-1	1	p	0.69868
144.1484	0.0	+	14	noun	phrase	2	3	nomatch	va	-1	1	p	0.69868
144.548	0.2	ctdq	14	noun	phrase	2	4	nomatch	va	-1	1	p	0.69868
144.748	0.0	+	14	noun	phrase	2	5	nomatch	va	-1	1	p	0.69868
145.1484	0.2	wqp	14	noun	phrase	2	6	nomatch	va	-1	1	p	0.69868
145.3478	0.0	+	14	noun	phrase	2	7	nomatch	va	-1	1	p	0.69868
145.7482	0.2	clavier	14	noun	phrase	2	8	nomatch	va	-1	1	p	0.69868
145.9645	0.0	+	14	noun	phrase	2	9	nomatch	va	-1	1	p	0.69868
146.3473	0.2	bleu	14	noun	phrase	2	10	nomatch	va	-1	1	p	0.69868
146.5472	0.0	+	14	noun	phrase	2	11	nomatch	va	-1	1	p	0.69868
146.947	0.0	+	14	noun	phrase	2	12	nomatch	va	-1	1	p	0.69868
148.9461	0.0	VA	14	noun	phrase	2	13	nomatch	va	-1	1	p	0.69868
149.7124	0.0	+	14	noun	phrase	2	14	nomatch	va	-1	1	p	0.69868
149.6448	0.0	[response]	14	noun	phrase	2	15	nomatch	va	-1	1	p	0.69868
151.345	0.0	+	15	noun	list	2	1	match	mieux	4	1	y	0.92499
151.8948	0.2	rmfdtxn	15	noun	list	2	2	match	mieux	4	1	y	0.92499
152.09539999999998	0.0	+	15	noun	list	2	3	match	mieux	4	1	y	0.92499
152.5116	0.2	qsdf	15	noun	list	2	4	match	mieux	4	1	y	0.92499
152.6946	0.0	+	15	noun	list	2	5	match	mieux	4	1	y	0.92499
153.0949	0.2	xzdl	15	noun	list	2	6	match	mieux	4	1	y	0.92499
153.2947	0.0	+	15	noun	list	2	7	match	mieux	4	1	y	0.92499
153.694	0.2	mieux	15	noun	list	2	8	match	mieux	4	1	y	0.92499
153.8939	0.0	+	15	noun	list	2	9	match	mieux	4	1	y	0.92499
154.2937	0.2	voilier	15	noun	list	2	10	match	mieux	4	1	y	0.92499
154.4936	0.0	+	15	noun	list	2	11	match	mieux	4	1	y	0.92499
154.89339999999999	0.0	+	15	noun	list	2	12	match	mieux	4	1	y	0.92499
156.89249999999998	0.0	MIEUX	15	noun	list	2	13	match	mieux	4	1	y	0.92499
157.87539999999998	0.0	+	15	noun	list	2	14	match	mieux	4	1	y	0.92499
157.8175	0.0	[response]	15	noun	list	2	15	match	mieux	4	1	y	0.92499
167.2879	0.0	+	16	noun	list	2	1	match	loin	5	1	y	0.47183
167.83769999999998	0.2	ghfnpcr	16	noun	list	2	2	match	loin	5	1	y	0.47183
168.0376	0.0	+	16	noun	list	2	3	match	loin	5	1	y	0.47183
168.4374	0.2	ctdq	16	noun	list	2	4	match	loin	5	1	y	0.47183
168.6373	0.0	+	16	noun	list	2	5	match	loin	5	1	y	0.47183
169.0371	0.2	sk	16	noun	list	2	6	match	loin	5	1	y	0.47183
169.237	0.0	+	16	noun	list	2	7	match	loin	5	1	y	0.47183
169.6369	0.2	rocher	16	noun	list	2	8	match	loin	5	1	y	0.47183
169.8368	0.0	+	16	noun	list	2	9	match	loin	5	1	y	0.47183
170.2366	0.2	loin	16	noun	list	2	10	match	loin	5	1	y	0.47183
170.4372	0.0	+	16	noun	list	2	11	match	loin	5	1	y	0.47183
170.83689999999999	0.0	+	16	noun	list	2	12	match	loin	5	1	y	0.47183
172.8354	0.0	LOIN	16	noun	list	2	13	match	loin	5	1	y	0.47183
173.3685	0.0	+	16	noun	list	2	14	match	loin	5	1	y	0.47183
173.3073	0.0	[response]	16	noun	list	2	15	match	loin	5	1	y	0.47183
183.2814	0.0	+	17	noun	list	4	1	nomatch	voyager	-1	1	p	0.64537
183.7979	0.2	gwtdnb	17	noun	list	4	2	nomatch	voyager	-1	1	p	0.64537
184.0144	0.0	+	17	noun	list	4	3	nomatch	voyager	-1	1	p	0.64537
184.3973	0.2	yves	17	noun	list	4	4	nomatch	voyager	-1	1	p	0.64537
184.5969	0.0	+	17	noun	list	4	5	nomatch	voyager	-1	1	p	0.64537
184.9967	0.2	leur	17	noun	list	4	6	nomatch	voyager	-1	1	p	0.64537
185.1966	0.0	+	17	noun	list	4	7	nomatch	voyager	-1	1	p	0.64537
185.5964	0.2	trop	17	noun	list	4	8	nomatch	voyager	-1	1	p	0.64537
185.7963	0.0	+	17	noun	list	4	9	nomatch	voyager	-1	1	p	0.64537
186.1961	0.2	sablier	17	noun	list	4	10	nomatch	voyager	-1	1	p	0.64537
186.3961	0.0	+	17	noun	list	4	11	nomatch	voyager	-1	1	p	0.64537
186.7965	0.0	+	17	noun	list	4	12	nomatch	voyager	-1	1	p	0.64537
188.795	0.0	VOYAGER	17	noun	list	4	13	nomatch	voyager	-1	1	p	0.64537
189.4947	0.0	+	17	noun	list	4	14	nomatch	voyager	-1	1	p	0.64537
189.4404	0.0	[response]	17	noun	list	4	15	nomatch	voyager	-1	1	p	0.64537
191.19389999999999	0.0	+	18	verb	phrase	2	1	nomatch	plonger	-1	1	p	0.6306200000000001
191.7437	0.2	qcbjdw	18	verb	phrase	2	2	nomatch	plonger	-1	1	p	0.6306200000000001
191.9436	0.0	+	18	verb	phrase	2	3	nomatch	plonger	-1	1	p	0.6306200000000001
192.3434	0.2	gpqk	18	verb	phrase	2	4	nomatch	plonger	-1	1	p	0.6306200000000001
192.5433	0.0	+	18	verb	phrase	2	5	nomatch	plonger	-1	1	p	0.6306200000000001
192.9432	0.2	sk	18	verb	phrase	2	6	nomatch	plonger	-1	1	p	0.6306200000000001
193.1431	0.0	+	18	verb	phrase	2	7	nomatch	plonger	-1	1	p	0.6306200000000001
193.5433	0.2	moins	18	verb	phrase	2	8	nomatch	plonger	-1	1	p	0.6306200000000001
193.7428	0.0	+	18	verb	phrase	2	9	nomatch	plonger	-1	1	p	0.6306200000000001
194.1426	0.2	rouler	18	verb	phrase	2	10	nomatch	plonger	-1	1	p	0.6306200000000001
194.3425	0.0	+	18	verb	phrase	2	11	nomatch	plonger	-1	1	p	0.6306200000000001
194.7423	0.0	+	18	verb	phrase	2	12	nomatch	plonger	-1	1	p	0.6306200000000001
196.7414	0.0	PLONGER	18	verb	phrase	2	13	nomatch	plonger	-1	1	p	0.6306200000000001
197.4245	0.0	+	18	verb	phrase	2	14	nomatch	plonger	-1	1	p	0.6306200000000001
197.3721	0.0	[response]	18	verb	phrase	2	15	nomatch	plonger	-1	1	p	0.6306200000000001
199.1404	0.0	+	19	noun	phrase	4	1	match	sablier	4	1	y	1.0487
199.6901	0.2	svrt	19	noun	phrase	4	2	match	sablier	4	1	y	1.0487
199.89	0.0	+	19	noun	phrase	4	3	match	sablier	4	1	y	1.0487
200.2903	0.2	sur	19	noun	phrase	4	4	match	sablier	4	1	y	1.0487
200.4899	0.0	+	19	noun	phrase	4	5	match	sablier	4	1	y	1.0487
200.8903	0.2	mon	19	noun	phrase	4	6	match	sablier	4	1	y	1.0487
201.09	0.0	+	19	noun	phrase	4	7	match	sablier	4	1	y	1.0487
201.4893	0.2	sablier	19	noun	phrase	4	8	match	sablier	4	1	y	1.0487
201.6892	0.0	+	19	noun	phrase	4	9	match	sablier	4	1	y	1.0487
202.0891	0.2	vert	19	noun	phrase	4	10	match	sablier	4	1	y	1.0487
202.289	0.0	+	19	noun	phrase	4	11	match	sablier	4	1	y	1.0487
202.6888	0.0	+	19	noun	phrase	4	12	match	sablier	4	1	y	1.0487
204.6886	0.0	SABLIER	19	noun	phrase	4	13	match	sablier	4	1	y	1.0487
205.8041	0.0	+	19	noun	phrase	4	14	match	sablier	4	1	y	1.0487
205.7373	0.0	[response]	19	noun	phrase	4	15	match	sablier	4	1	y	1.0487
207.08679999999998	0.0	+	20	noun	phrase	3	1	match	clavier	4	1	y	0.93174
207.6366	0.2	lcqjk	20	noun	phrase	3	2	match	clavier	4	1	y	0.93174
207.8365	0.0	+	20	noun	phrase	3	3	match	clavier	4	1	y	0.93174
208.23629999999997	0.2	jqbv	20	noun	phrase	3	4	match	clavier	4	1	y	0.93174
208.43619999999999	0.0	+	20	noun	phrase	3	5	match	clavier	4	1	y	0.93174
208.836	0.2	son	20	noun	phrase	3	6	match	clavier	4	1	y	0.93174
209.036	0.0	+	20	noun	phrase	3	7	match	clavier	4	1	y	0.93174
209.43579999999997	0.2	clavier	20	noun	phrase	3	8	match	clavier	4	1	y	0.93174
209.63569999999999	0.0	+	20	noun	phrase	3	9	match	clavier	4	1	y	0.93174
210.0523	0.2	rouge	20	noun	phrase	3	10	match	clavier	4	1	y	0.93174
210.23610000000002	0.0	+	20	noun	phrase	3	11	match	clavier	4	1	y	0.93174
210.6352	0.0	+	20	noun	phrase	3	12	match	clavier	4	1	y	0.93174
212.6347	0.0	CLAVIER	20	noun	phrase	3	13	match	clavier	4	1	y	0.93174
213.7172	0.0	+	20	noun	phrase	3	14	match	clavier	4	1	y	0.93174
213.56650000000002	0.0	[response]	20	noun	phrase	3	15	match	clavier	4	1	y	0.93174
215.05	0.0	+	21	verb	phrase	4	1	nomatch	sous	-1	1	p	0.82038
215.59969999999998	0.2	gkp	21	verb	phrase	4	2	nomatch	sous	-1	1	p	0.82038
215.7996	0.0	+	21	verb	phrase	4	3	nomatch	sous	-1	1	p	0.82038
216.1997	0.2	paul	21	verb	phrase	4	4	nomatch	sous	-1	1	p	0.82038
216.3997	0.0	+	21	verb	phrase	4	5	nomatch	sous	-1	1	p	0.82038
216.79919999999998	0.2	doit	21	verb	phrase	4	6	nomatch	sous	-1	1	p	0.82038
217.01639999999998	0.0	+	21	verb	phrase	4	7	nomatch	sous	-1	1	p	0.82038
217.39909999999998	0.2	plus	21	verb	phrase	4	8	nomatch	sous	-1	1	p	0.82038
217.59879999999998	0.0	+	21	verb	phrase	4	9	nomatch	sous	-1	1	p	0.82038
217.9986	0.2	parader	21	verb	phrase	4	10	nomatch	sous	-1	1	p	0.82038
218.19850000000002	0.0	+	21	verb	phrase	4	11	nomatch	sous	-1	1	p	0.82038
218.59839999999997	0.0	+	21	verb	phrase	4	12	nomatch	sous	-1	1	p	0.82038
220.59750000000003	0.0	SOUS	21	verb	phrase	4	13	nomatch	sous	-1	1	p	0.82038
221.48039999999997	0.0	+	21	verb	phrase	4	14	nomatch	sous	-1	1	p	0.82038
221.4178	0.0	[response]	21	verb	phrase	4	15	nomatch	sous	-1	1	p	0.82038
222.9964	0.0	+	22	noun	list	4	1	match	loin	5	1	y	1.0624
223.5462	0.2	mjwkv	22	noun	list	4	2	match	loin	5	1	y	1.0624
223.7461	0.0	+	22	noun	list	4	3	match	loin	5	1	y	1.0624
224.1628	0.2	pour	22	noun	list	4	4	match	loin	5	1	y	1.0624
224.3458	0.0	+	22	noun	list	4	5	match	loin	5	1	y	1.0624
224.74560000000002	0.2	peut	22	noun	list	4	6	match	loin	5	1	y	1.0624
224.94549999999998	0.0	+	22	noun	list	4	7	match	loin	5	1	y	1.0624
225.3453	0.2	sablier	22	noun	list	4	8	match	loin	5	1	y	1.0624
225.5453	0.0	+	22	noun	list	4	9	match	loin	5	1	y	1.0624
225.94510000000002	0.2	loin	22	noun	list	4	10	match	loin	5	1	y	1.0624
226.14530000000002	0.0	+	22	noun	list	4	11	match	loin	5	1	y	1.0624
226.5448	0.0	+	22	noun	list	4	12	match	loin	5	1	y	1.0624
228.5439	0.0	LOIN	22	noun	list	4	13	match	loin	5	1	y	1.0624
229.6601	0.0	+	22	noun	list	4	14	match	loin	5	1	y	1.0624
229.6064	0.0	[response]	22	noun	list	4	15	match	loin	5	1	y	1.0624
230.94279999999998	0.0	+	23	noun	list	1	1	nomatch	voilier	-1	1	p	2.0054
231.49259999999998	0.2	pxkgzfh	23	noun	list	1	2	nomatch	voilier	-1	1	p	2.0054
231.6925	0.0	+	23	noun	list	1	3	nomatch	voilier	-1	1	p	2.0054
232.09230000000002	0.2	vqf	23	noun	list	1	4	nomatch	voilier	-1	1	p	2.0054
232.2926	0.0	+	23	noun	list	1	5	nomatch	voilier	-1	1	p	2.0054
232.6922	0.2	wqp	23	noun	list	1	6	nomatch	voilier	-1	1	p	2.0054
232.8927	0.0	+	23	noun	list	1	7	nomatch	voilier	-1	1	p	2.0054
233.30900000000003	0.2	wjpk	23	noun	list	1	8	nomatch	voilier	-1	1	p	2.0054
233.49169999999998	0.0	+	23	noun	list	1	9	nomatch	voilier	-1	1	p	2.0054
233.8915	0.2	rocher	23	noun	list	1	10	nomatch	voilier	-1	1	p	2.0054
234.0915	0.0	+	23	noun	list	1	11	nomatch	voilier	-1	1	p	2.0054
234.49130000000002	0.0	+	23	noun	list	1	12	nomatch	voilier	-1	1	p	2.0054
236.49040000000002	0.0	VOILIER	23	noun	list	1	13	nomatch	voilier	-1	1	p	2.0054
238.55610000000001	0.0	+	23	noun	list	1	14	nomatch	voilier	-1	1	p	2.0054
238.49579999999997	0.0	[response]	23	noun	list	1	15	nomatch	voilier	-1	1	p	2.0054
238.8893	0.0	+	24	noun	phrase	1	1	match	tablier	5	1	y	0.74915
239.4391	0.2	prtszjb	24	noun	phrase	1	2	match	tablier	5	1	y	0.74915
239.639	0.0	+	24	noun	phrase	1	3	match	tablier	5	1	y	0.74915
240.03879999999998	0.2	hqjx	24	noun	phrase	1	4	match	tablier	5	1	y	0.74915
240.2387	0.0	+	24	noun	phrase	1	5	match	tablier	5	1	y	0.74915
240.63850000000002	0.2	xzdl	24	noun	phrase	1	6	match	tablier	5	1	y	0.74915
240.83839999999998	0.0	+	24	noun	phrase	1	7	match	tablier	5	1	y	0.74915
241.23829999999998	0.2	cvqgt	24	noun	phrase	1	8	match	tablier	5	1	y	0.74915
241.4384	0.0	+	24	noun	phrase	1	9	match	tablier	5	1	y	0.74915
241.83870000000002	0.2	tablier	24	noun	phrase	1	10	match	tablier	5	1	y	0.74915
242.038	0.0	+	24	noun	phrase	1	11	match	tablier	5	1	y	0.74915
242.45499999999998	0.0	+	24	noun	phrase	1	12	match	tablier	5	1	y	0.74915
244.4368	0.0	TABLIER	24	noun	phrase	1	13	match	tablier	5	1	y	0.74915
245.2532	0.0	+	24	noun	phrase	1	14	match	tablier	5	1	y	0.74915
245.18599999999998	0.0	[response]	24	noun	phrase	1	15	match	tablier	5	1	y	0.74915
246.8358	0.0	+	25	verb	list	1	1	nomatch	blanc	-1	1	p	0.6831500000000001
247.38549999999998	0.2	dxcl	25	verb	list	1	2	nomatch	blanc	-1	1	p	0.6831500000000001
247.5854	0.0	+	25	verb	list	1	3	nomatch	blanc	-1	1	p	0.6831500000000001
247.98579999999998	0.2	nvmf	25	verb	list	1	4	nomatch	blanc	-1	1	p	0.6831500000000001
248.1857	0.0	+	25	verb	list	1	5	nomatch	blanc	-1	1	p	0.6831500000000001
248.58499999999998	0.2	vcmh	25	verb	list	1	6	nomatch	blanc	-1	1	p	0.6831500000000001
248.7849	0.0	+	25	verb	list	1	7	nomatch	blanc	-1	1	p	0.6831500000000001
249.18470000000002	0.2	wjbklpx	25	verb	list	1	8	nomatch	blanc	-1	1	p	0.6831500000000001
249.38459999999998	0.0	+	25	verb	list	1	9	nomatch	blanc	-1	1	p	0.6831500000000001
249.78449999999998	0.2	vieux	25	verb	list	1	10	nomatch	blanc	-1	1	p	0.6831500000000001
249.9844	0.0	+	25	verb	list	1	11	nomatch	blanc	-1	1	p	0.6831500000000001
250.38420000000002	0.0	+	25	verb	list	1	12	nomatch	blanc	-1	1	p	0.6831500000000001
252.39999999999998	0.0	BLANC	25	verb	list	1	13	nomatch	blanc	-1	1	p	0.6831500000000001
253.14960000000002	0.0	+	25	verb	list	1	14	nomatch	blanc	-1	1	p	0.6831500000000001
253.0831	0.0	[response]	25	verb	list	1	15	nomatch	blanc	-1	1	p	0.6831500000000001
254.7989	0.0	+	26	verb	list	1	1	nomatch	panier	-1	1	p	0.68872
255.3487	0.2	bntjz	26	verb	list	1	2	nomatch	panier	-1	1	p	0.68872
255.54860000000002	0.0	+	26	verb	list	1	3	nomatch	panier	-1	1	p	0.68872
255.9484	0.2	jqbv	26	verb	list	1	4	nomatch	panier	-1	1	p	0.68872
256.1483	0.0	+	26	verb	list	1	5	nomatch	panier	-1	1	p	0.68872
256.5481	0.2	bzct	26	verb	list	1	6	nomatch	panier	-1	1	p	0.68872
256.748	0.0	+	26	verb	list	1	7	nomatch	panier	-1	1	p	0.68872
257.1485	0.2	xbgvhml	26	verb	list	1	8	nomatch	panier	-1	1	p	0.68872
257.3482	0.0	+	26	verb	list	1	9	nomatch	panier	-1	1	p	0.68872
257.7476	0.2	plonger	26	verb	list	1	10	nomatch	panier	-1	1	p	0.68872
257.9475	0.0	+	26	verb	list	1	11	nomatch	panier	-1	1	p	0.68872
258.3473	0.0	+	26	verb	list	1	12	nomatch	panier	-1	1	p	0.68872
260.3464	0.0	PANIER	26	verb	list	1	13	nomatch	panier	-1	1	p	0.68872
261.0961	0.0	+	26	verb	list	1	14	nomatch	panier	-1	1	p	0.68872
261.0352	0.0	[response]	26	verb	list	1	15	nomatch	panier	-1	1	p	0.68872
262.7453	0.0	+	27	noun	list	4	1	nomatch	tôt	-1	1	p	0.8382
263.2951	0.2	bsxjn	27	noun	list	4	2	nomatch	tôt	-1	1	p	0.8382
263.495	0.0	+	27	noun	list	4	3	nomatch	tôt	-1	1	p	0.8382
263.89549999999997	0.2	vers	27	noun	list	4	4	nomatch	tôt	-1	1	p	0.8382
264.0954	0.0	+	27	noun	list	4	5	nomatch	tôt	-1	1	p	0.8382
264.4949	0.2	doit	27	noun	list	4	6	nomatch	tôt	-1	1	p	0.8382
264.6945	0.0	+	27	noun	list	4	7	nomatch	tôt	-1	1	p	0.8382
265.0943	0.2	clavier	27	noun	list	4	8	nomatch	tôt	-1	1	p	0.8382
265.2947	0.0	+	27	noun	list	4	9	nomatch	tôt	-1	1	p	0.8382
265.694	0.2	loin	27	noun	list	4	10	nomatch	tôt	-1	1	p	0.8382
265.894	0.0	+	27	noun	list	4	11	nomatch	tôt	-1	1	p	0.8382
266.2943	0.0	+	27	noun	list	4	12	nomatch	tôt	-1	1	p	0.8382
268.2929	0.0	TÔT	27	noun	list	4	13	nomatch	tôt	-1	1	p	0.8382
269.1925	0.0	+	27	noun	list	4	14	nomatch	tôt	-1	1	p	0.8382
269.1311	0.0	[response]	27	noun	list	4	15	nomatch	tôt	-1	1	p	0.8382
278.6882	0.0	+	28	noun	phrase	3	1	match	son	3	1	y	0.7008800000000001
279.238	0.2	nfpxjhk	28	noun	phrase	3	2	match	son	3	1	y	0.7008800000000001
279.4379	0.0	+	28	noun	phrase	3	3	match	son	3	1	y	0.7008800000000001
279.8377	0.2	rkh	28	noun	phrase	3	4	match	son	3	1	y	0.7008800000000001
280.0377	0.0	+	28	noun	phrase	3	5	match	son	3	1	y	0.7008800000000001
280.4381	0.2	son	28	noun	phrase	3	6	match	son	3	1	y	0.7008800000000001
280.6379	0.0	+	28	noun	phrase	3	7	match	son	3	1	y	0.7008800000000001
281.0373	0.2	panier	28	noun	phrase	3	8	match	son	3	1	y	0.7008800000000001
281.2374	0.0	+	28	noun	phrase	3	9	match	son	3	1	y	0.7008800000000001
281.6369	0.2	bleu	28	noun	phrase	3	10	match	son	3	1	y	0.7008800000000001
281.8368	0.0	+	28	noun	phrase	3	11	match	son	3	1	y	0.7008800000000001
282.2366	0.0	+	28	noun	phrase	3	12	match	son	3	1	y	0.7008800000000001
284.2365	0.0	SON	28	noun	phrase	3	13	match	son	3	1	y	0.7008800000000001
285.0354	0.0	+	28	noun	phrase	3	14	match	son	3	1	y	0.7008800000000001
284.9374	0.0	[response]	28	noun	phrase	3	15	match	son	3	1	y	0.7008800000000001
286.6347	0.0	+	29	noun	phrase	2	1	nomatch	sous	-1	1	p	0.68587
287.185	0.2	sdblxt	29	noun	phrase	2	2	nomatch	sous	-1	1	p	0.68587
287.3847	0.0	+	29	noun	phrase	2	3	nomatch	sous	-1	1	p	0.68587
287.7842	0.2	ctdq	29	noun	phrase	2	4	nomatch	sous	-1	1	p	0.68587
287.9846	0.0	+	29	noun	phrase	2	5	nomatch	sous	-1	1	p	0.68587
288.3842	0.2	rdq	29	noun	phrase	2	6	nomatch	sous	-1	1	p	0.68587
288.5838	0.0	+	29	noun	phrase	2	7	nomatch	sous	-1	1	p	0.68587
288.9836	0.2	petit	29	noun	phrase	2	8	nomatch	sous	-1	1	p	0.68587
289.1836	0.0	+	29	noun	phrase	2	9	nomatch	sous	-1	1	p	0.68587
289.6	0.2	boîtier	29	noun	phrase	2	10	nomatch	sous	-1	1	p	0.68587
289.7999	0.0	+	29	noun	phrase	2	11	nomatch	sous	-1	1	p	0.68587
290.1998	0.0	+	29	noun	phrase	2	12	nomatch	sous	-1	1	p	0.68587
292.1989	0.0	SOUS	29	noun	phrase	2	13	nomatch	sous	-1	1	p	0.68587
292.9486	0.0	+	29	noun	phrase	2	14	nomatch	sous	-1	1	p	0.68587
292.8847	0.0	[response]	29	noun	phrase	2	15	nomatch	sous	-1	1	p	0.68587
294.5978	0.0	+	30	noun	phrase	1	1	nomatch	beau	-1	1	p	0.71351
295.1476	0.2	bdhr	30	noun	phrase	1	2	nomatch	beau	-1	1	p	0.71351
295.3475	0.0	+	30	noun	phrase	1	3	nomatch	beau	-1	1	p	0.71351
295.7473	0.2	hqjx	30	noun	phrase	1	4	nomatch	beau	-1	1	p	0.71351
295.9472	0.0	+	30	noun	phrase	1	5	nomatch	beau	-1	1	p	0.71351
296.3638	0.2	wqp	30	noun	phrase	1	6	nomatch	beau	-1	1	p	0.71351
296.5476	0.0	+	30	noun	phrase	1	7	nomatch	beau	-1	1	p	0.71351
296.9471	0.2	fnvpbld	30	noun	phrase	1	8	nomatch	beau	-1	1	p	0.71351
297.164	0.0	+	30	noun	phrase	1	9	nomatch	beau	-1	1	p	0.71351
297.5471	0.2	nouveau	30	noun	phrase	1	10	nomatch	beau	-1	1	p	0.71351
297.7464	0.0	+	30	noun	phrase	1	11	nomatch	beau	-1	1	p	0.71351
298.1462	0.0	+	30	noun	phrase	1	12	nomatch	beau	-1	1	p	0.71351
300.1453	0.0	BEAU	30	noun	phrase	1	13	nomatch	beau	-1	1	p	0.71351
300.9117	0.0	+	30	noun	phrase	1	14	nomatch	beau	-1	1	p	0.71351
300.8588	0.0	[response]	30	noun	phrase	1	15	nomatch	beau	-1	1	p	0.71351
302.5443	0.0	+	31	noun	list	1	1	match	sablier	5	1	y	0.94144
303.094	0.2	kxlbzjm	31	noun	list	1	2	match	sablier	5	1	y	0.94144
303.2939	0.0	+	31	noun	list	1	3	match	sablier	5	1	y	0.94144
303.6938	0.2	hrms	31	noun	list	1	4	match	sablier	5	1	y	0.94144
303.8937	0.0	+	31	noun	list	1	5	match	sablier	5	1	y	0.94144
304.2935	0.2	bzct	31	noun	list	1	6	match	sablier	5	1	y	0.94144
304.4934	0.0	+	31	noun	list	1	7	match	sablier	5	1	y	0.94144
304.8932	0.2	zfkw	31	noun	list	1	8	match	sablier	5	1	y	0.94144
305.0931	0.0	+	31	noun	list	1	9	match	sablier	5	1	y	0.94144
305.4936	0.2	sablier	31	noun	list	1	10	match	sablier	5	1	y	0.94144
305.71	0.0	+	31	noun	list	1	11	match	sablier	5	1	y	0.94144
306.0927	0.0	+	31	noun	list	1	12	match	sablier	5	1	y	0.94144
308.0918	0.0	SABLIER	31	noun	list	1	13	match	sablier	5	1	y	0.94144
309.0913	0.0	+	31	noun	list	1	14	match	sablier	5	1	y	0.94144
309.0332000000001	0.0	[response]	31	noun	list	1	15	match	sablier	5	1	y	0.94144
310.4907	0.0	+	32	noun	phrase	2	1	match	rocher	5	1	y	0.84086
311.0405	0.2	cvbfsr	32	noun	phrase	2	2	match	rocher	5	1	y	0.84086
311.2404	0.0	+	32	noun	phrase	2	3	match	rocher	5	1	y	0.84086
311.6402	0.2	nvmf	32	noun	phrase	2	4	match	rocher	5	1	y	0.84086
311.8401	0.0	+	32	noun	phrase	2	5	match	rocher	5	1	y	0.84086
312.2568	0.2	xzdl	32	noun	phrase	2	6	match	rocher	5	1	y	0.84086
312.4399	0.0	+	32	noun	phrase	2	7	match	rocher	5	1	y	0.84086
312.8397	0.2	petit	32	noun	phrase	2	8	match	rocher	5	1	y	0.84086
313.0396	0.0	+	32	noun	phrase	2	9	match	rocher	5	1	y	0.84086
313.4394	0.2	rocher	32	noun	phrase	2	10	match	rocher	5	1	y	0.84086
313.6393	0.0	+	32	noun	phrase	2	11	match	rocher	5	1	y	0.84086
314.0391	0.0	+	32	noun	phrase	2	12	match	rocher	5	1	y	0.84086
316.0382	0.0	ROCHER	32	noun	phrase	2	13	match	rocher	5	1	y	0.84086
316.9378	0.0	+	32	noun	phrase	2	14	match	rocher	5	1	y	0.84086
316.8791	0.0	[response]	32	noun	phrase	2	15	match	rocher	5	1	y	0.84086
326.45029999999997	0.0	+	33	verb	phrase	2	1	nomatch	luc	-1	1	p	0.82154
327.0	0.2	mqzhgpk	33	verb	phrase	2	2	nomatch	luc	-1	1	p	0.82154
327.2004	0.0	+	33	verb	phrase	2	3	nomatch	luc	-1	1	p	0.82154
327.6002	0.2	tgcf	33	verb	phrase	2	4	nomatch	luc	-1	1	p	0.82154
327.7997	0.0	+	33	verb	phrase	2	5	nomatch	luc	-1	1	p	0.82154
328.1995	0.2	bzct	33	verb	phrase	2	6	nomatch	luc	-1	1	p	0.82154
328.3994	0.0	+	33	verb	phrase	2	7	nomatch	luc	-1	1	p	0.82154
328.7992	0.2	patiner	33	verb	phrase	2	8	nomatch	luc	-1	1	p	0.82154
328.9991	0.0	+	33	verb	phrase	2	9	nomatch	luc	-1	1	p	0.82154
329.399	0.2	tard	33	verb	phrase	2	10	nomatch	luc	-1	1	p	0.82154
329.5989	0.0	+	33	verb	phrase	2	11	nomatch	luc	-1	1	p	0.82154
329.9987	0.0	+	33	verb	phrase	2	12	nomatch	luc	-1	1	p	0.82154
331.9983	0.0	LUC	33	verb	phrase	2	13	nomatch	luc	-1	1	p	0.82154
332.8807	0.0	+	33	verb	phrase	2	14	nomatch	luc	-1	1	p	0.82154
332.8199	0.0	[response]	33	verb	phrase	2	15	nomatch	luc	-1	1	p	0.82154
342.3932	0.0	+	34	noun	phrase	1	1	match	noir	5	1	y	1.1340000000000001
342.9429	0.2	ntjkg	34	noun	phrase	1	2	match	noir	5	1	y	1.1340000000000001
343.1428	0.0	+	34	noun	phrase	1	3	match	noir	5	1	y	1.1340000000000001
343.5427	0.2	hqjx	34	noun	phrase	1	4	match	noir	5	1	y	1.1340000000000001
343.7426	0.0	+	34	noun	phrase	1	5	match	noir	5	1	y	1.1340000000000001
344.1424	0.2	xzdl	34	noun	phrase	1	6	match	noir	5	1	y	1.1340000000000001
344.3423	0.0	+	34	noun	phrase	1	7	match	noir	5	1	y	1.1340000000000001
344.7421	0.2	czfkhd	34	noun	phrase	1	8	match	noir	5	1	y	1.1340000000000001
344.942	0.0	+	34	noun	phrase	1	9	match	noir	5	1	y	1.1340000000000001
345.3419	0.2	noir	34	noun	phrase	1	10	match	noir	5	1	y	1.1340000000000001
345.5418	0.0	+	34	noun	phrase	1	11	match	noir	5	1	y	1.1340000000000001
345.9416	0.0	+	34	noun	phrase	1	12	match	noir	5	1	y	1.1340000000000001
347.9407	0.0	NOIR	34	noun	phrase	1	13	match	noir	5	1	y	1.1340000000000001
349.1402	0.0	+	34	noun	phrase	1	14	match	noir	5	1	y	1.1340000000000001
349.0747	0.0	[response]	34	noun	phrase	1	15	match	noir	5	1	y	1.1340000000000001
350.3396	0.0	+	35	verb	phrase	1	1	nomatch	vert	-1	1	p	0.53662
350.8894	0.2	ckqvrfz	35	verb	phrase	1	2	nomatch	vert	-1	1	p	0.53662
351.0893	0.0	+	35	verb	phrase	1	3	nomatch	vert	-1	1	p	0.53662
351.4891	0.2	qsdf	35	verb	phrase	1	4	nomatch	vert	-1	1	p	0.53662
351.689	0.0	+	35	verb	phrase	1	5	nomatch	vert	-1	1	p	0.53662
352.0888	0.2	bzct	35	verb	phrase	1	6	nomatch	vert	-1	1	p	0.53662
352.2887	0.0	+	35	verb	phrase	1	7	nomatch	vert	-1	1	p	0.53662
352.7059	0.2	brkds	35	verb	phrase	1	8	nomatch	vert	-1	1	p	0.53662
352.889	0.0	+	35	verb	phrase	1	9	nomatch	vert	-1	1	p	0.53662
353.2885	0.2	voyager	35	verb	phrase	1	10	nomatch	vert	-1	1	p	0.53662
353.4889	0.0	+	35	verb	phrase	1	11	nomatch	vert	-1	1	p	0.53662
353.888	0.0	+	35	verb	phrase	1	12	nomatch	vert	-1	1	p	0.53662
355.8871	0.0	VERT	35	verb	phrase	1	13	nomatch	vert	-1	1	p	0.53662
356.5537	0.0	+	35	verb	phrase	1	14	nomatch	vert	-1	1	p	0.53662
356.42379999999997	0.0	[response]	35	verb	phrase	1	15	nomatch	vert	-1	1	p	0.53662
366.2992	0.0	+	36	noun	list	1	1	nomatch	beaucoup	-1	1	p	0.53279
366.8489	0.2	lftvq	36	noun	list	1	2	nomatch	beaucoup	-1	1	p	0.53279
367.04879999999997	0.0	+	36	noun	list	1	3	nomatch	beaucoup	-1	1	p	0.53279
367.449	0.2	gtzv	36	noun	list	1	4	nomatch	beaucoup	-1	1	p	0.53279
367.6488	0.0	+	36	noun	list	1	5	nomatch	beaucoup	-1	1	p	0.53279
368.0491	0.2	rdq	36	noun	list	1	6	nomatch	beaucoup	-1	1	p	0.53279
368.2655	0.0	+	36	noun	list	1	7	nomatch	beaucoup	-1	1	p	0.53279
368.6481	0.2	gmszdxh	36	noun	list	1	8	nomatch	beaucoup	-1	1	p	0.53279
368.848	0.0	+	36	noun	list	1	9	nomatch	beaucoup	-1	1	p	0.53279
369.2479	0.2	plus	36	noun	list	1	10	nomatch	beaucoup	-1	1	p	0.53279
369.4478	0.0	+	36	noun	list	1	11	nomatch	beaucoup	-1	1	p	0.53279
369.8476	0.0	+	36	noun	list	1	12	nomatch	beaucoup	-1	1	p	0.53279
371.8467	0.0	BEAUCOUP	36	noun	list	1	13	nomatch	beaucoup	-1	1	p	0.53279
372.4968	0.0	+	36	noun	list	1	14	nomatch	beaucoup	-1	1	p	0.53279
372.37950000000006	0.0	[response]	36	noun	list	1	15	nomatch	beaucoup	-1	1	p	0.53279
374.2456	0.0	+	37	verb	phrase	1	1	nomatch	moins	-1	1	p	0.69993
374.7954	0.2	blwt	37	verb	phrase	1	2	nomatch	moins	-1	1	p	0.69993
374.9953	0.0	+	37	verb	phrase	1	3	nomatch	moins	-1	1	p	0.69993
375.3951	0.2	vqf	37	verb	phrase	1	4	nomatch	moins	-1	1	p	0.69993
375.59499999999997	0.0	+	37	verb	phrase	1	5	nomatch	moins	-1	1	p	0.69993
375.9948	0.2	vcmh	37	verb	phrase	1	6	nomatch	moins	-1	1	p	0.69993
376.1948	0.0	+	37	verb	phrase	1	7	nomatch	moins	-1	1	p	0.69993
376.59499999999997	0.2	dlwxn	37	verb	phrase	1	8	nomatch	moins	-1	1	p	0.69993
376.79449999999997	0.0	+	37	verb	phrase	1	9	nomatch	moins	-1	1	p	0.69993
377.1949	0.2	rouler	37	verb	phrase	1	10	nomatch	moins	-1	1	p	0.69993
377.41089999999997	0.0	+	37	verb	phrase	1	11	nomatch	moins	-1	1	p	0.69993
377.7941	0.0	+	37	verb	phrase	1	12	nomatch	moins	-1	1	p	0.69993
379.7932	0.0	MOINS	37	verb	phrase	1	13	nomatch	moins	-1	1	p	0.69993
380.5595	0.0	+	37	verb	phrase	1	14	nomatch	moins	-1	1	p	0.69993
380.49309999999997	0.0	[response]	37	verb	phrase	1	15	nomatch	moins	-1	1	p	0.69993
382.1921	0.0	+	38	verb	list	1	1	nomatch	parader	-1	1	p	0.52403
382.7587	0.2	kqzfmg	38	verb	list	1	2	nomatch	parader	-1	1	p	0.52403
382.9418	0.0	+	38	verb	list	1	3	nomatch	parader	-1	1	p	0.52403
383.3421	0.2	nvmf	38	verb	list	1	4	nomatch	parader	-1	1	p	0.52403
383.5415	0.0	+	38	verb	list	1	5	nomatch	parader	-1	1	p	0.52403
383.9413	0.2	sk	38	verb	list	1	6	nomatch	parader	-1	1	p	0.52403
384.1412	0.0	+	38	verb	list	1	7	nomatch	parader	-1	1	p	0.52403
384.541	0.2	cvqgt	38	verb	list	1	8	nomatch	parader	-1	1	p	0.52403
384.7409	0.0	+	38	verb	list	1	9	nomatch	parader	-1	1	p	0.52403
385.1408	0.2	galoper	38	verb	list	1	10	nomatch	parader	-1	1	p	0.52403
385.34069999999997	0.0	+	38	verb	list	1	11	nomatch	parader	-1	1	p	0.52403
385.7411	0.0	+	38	verb	list	1	12	nomatch	parader	-1	1	p	0.52403
387.7396	0.0	PARADER	38	verb	list	1	13	nomatch	parader	-1	1	p	0.52403
388.3227	0.0	+	38	verb	list	1	14	nomatch	parader	-1	1	p	0.52403
388.2636	0.0	[response]	38	verb	list	1	15	nomatch	parader	-1	1	p	0.52403
390.1385	0.0	+	39	verb	phrase	3	1	nomatch	blanc	-1	1	p	0.91494
390.68829999999997	0.2	nqz	39	verb	phrase	3	2	nomatch	blanc	-1	1	p	0.91494
390.8882	0.0	+	39	verb	phrase	3	3	nomatch	blanc	-1	1	p	0.91494
391.288	0.2	gpqk	39	verb	phrase	3	4	nomatch	blanc	-1	1	p	0.91494
391.4879	0.0	+	39	verb	phrase	3	5	nomatch	blanc	-1	1	p	0.91494
391.905	0.2	peut	39	verb	phrase	3	6	nomatch	blanc	-1	1	p	0.91494
392.088	0.0	+	39	verb	phrase	3	7	nomatch	blanc	-1	1	p	0.91494
392.488	0.2	plus	39	verb	phrase	3	8	nomatch	blanc	-1	1	p	0.91494
392.6874	0.0	+	39	verb	phrase	3	9	nomatch	blanc	-1	1	p	0.91494
393.0872	0.2	rouler	39	verb	phrase	3	10	nomatch	blanc	-1	1	p	0.91494
393.2871	0.0	+	39	verb	phrase	3	11	nomatch	blanc	-1	1	p	0.91494
393.687	0.0	+	39	verb	phrase	3	12	nomatch	blanc	-1	1	p	0.91494
395.6861	0.0	BLANC	39	verb	phrase	3	13	nomatch	blanc	-1	1	p	0.91494
396.6523	0.0	+	39	verb	phrase	3	14	nomatch	blanc	-1	1	p	0.91494
396.601	0.0	[response]	39	verb	phrase	3	15	nomatch	blanc	-1	1	p	0.91494
406.0981	0.0	+	40	verb	phrase	3	1	nomatch	moins	-1	1	p	0.57549
406.6479	0.2	vbrltk	40	verb	phrase	3	2	nomatch	moins	-1	1	p	0.57549
406.8478	0.0	+	40	verb	phrase	3	3	nomatch	moins	-1	1	p	0.57549
407.2476	0.2	zndv	40	verb	phrase	3	4	nomatch	moins	-1	1	p	0.57549
407.4477	0.0	+	40	verb	phrase	3	5	nomatch	moins	-1	1	p	0.57549
407.8475	0.2	doit	40	verb	phrase	3	6	nomatch	moins	-1	1	p	0.57549
408.0476	0.0	+	40	verb	phrase	3	7	nomatch	moins	-1	1	p	0.57549
408.4474	0.2	trop	40	verb	phrase	3	8	nomatch	moins	-1	1	p	0.57549
408.6471	0.0	+	40	verb	phrase	3	9	nomatch	moins	-1	1	p	0.57549
409.0468	0.2	parader	40	verb	phrase	3	10	nomatch	moins	-1	1	p	0.57549
409.2467	0.0	+	40	verb	phrase	3	11	nomatch	moins	-1	1	p	0.57549
409.6465	0.0	+	40	verb	phrase	3	12	nomatch	moins	-1	1	p	0.57549
411.6456	0.0	MOINS	40	verb	phrase	3	13	nomatch	moins	-1	1	p	0.57549
412.27909999999997	0.0	+	40	verb	phrase	3	14	nomatch	moins	-1	1	p	0.57549
412.2211	0.0	[response]	40	verb	phrase	3	15	nomatch	moins	-1	1	p	0.57549
414.04449999999997	0.0	+	41	noun	list	4	1	nomatch	mieux	-1	1	p	0.5074
414.5943	0.2	tnf	41	noun	list	4	2	nomatch	mieux	-1	1	p	0.5074
414.7942	0.0	+	41	noun	list	4	3	nomatch	mieux	-1	1	p	0.5074
415.2111	0.2	dans	41	noun	list	4	4	nomatch	mieux	-1	1	p	0.5074
415.3946	0.0	+	41	noun	list	4	5	nomatch	mieux	-1	1	p	0.5074
415.7942	0.2	va	41	noun	list	4	6	nomatch	mieux	-1	1	p	0.5074
415.9944	0.0	+	41	noun	list	4	7	nomatch	mieux	-1	1	p	0.5074
416.4101	0.2	voilier	41	noun	list	4	8	nomatch	mieux	-1	1	p	0.5074
416.5934	0.0	+	41	noun	list	4	9	nomatch	mieux	-1	1	p	0.5074
416.9932	0.2	tard	41	noun	list	4	10	nomatch	mieux	-1	1	p	0.5074
417.1931	0.0	+	41	noun	list	4	11	nomatch	mieux	-1	1	p	0.5074
417.593	0.0	+	41	noun	list	4	12	nomatch	mieux	-1	1	p	0.5074
419.6093	0.0	MIEUX	41	noun	list	4	13	nomatch	mieux	-1	1	p	0.5074
420.1751	0.0	+	41	noun	list	4	14	nomatch	mieux	-1	1	p	0.5074
420.1167	0.0	[response]	41	noun	list	4	15	nomatch	mieux	-1	1	p	0.5074
429.9874	0.0	+	42	verb	phrase	2	1	match	trop	4	1	y	1.1864
430.5372	0.2	zgnbjx	42	verb	phrase	2	2	match	trop	4	1	y	1.1864
430.7371	0.0	+	42	verb	phrase	2	3	match	trop	4	1	y	1.1864
431.1369	0.2	vqf	42	verb	phrase	2	4	match	trop	4	1	y	1.1864
431.3368	0.0	+	42	verb	phrase	2	5	match	trop	4	1	y	1.1864
431.7367	0.2	sk	42	verb	phrase	2	6	match	trop	4	1	y	1.1864
431.9366	0.0	+	42	verb	phrase	2	7	match	trop	4	1	y	1.1864
432.3364	0.2	trop	42	verb	phrase	2	8	match	trop	4	1	y	1.1864
432.5363	0.0	+	42	verb	phrase	2	9	match	trop	4	1	y	1.1864
432.9361	0.2	galoper	42	verb	phrase	2	10	match	trop	4	1	y	1.1864
433.136	0.0	+	42	verb	phrase	2	11	match	trop	4	1	y	1.1864
433.5362	0.0	+	42	verb	phrase	2	12	match	trop	4	1	y	1.1864
435.535	0.0	TROP	42	verb	phrase	2	13	match	trop	4	1	y	1.1864
436.7844	0.0	+	42	verb	phrase	2	14	match	trop	4	1	y	1.1864
436.7214	0.0	[response]	42	verb	phrase	2	15	match	trop	4	1	y	1.1864
437.9339	0.0	+	43	noun	phrase	2	1	match	noir	5	1	y	0.86525
438.4838	0.2	dcvs	43	noun	phrase	2	2	match	noir	5	1	y	0.86525
438.6836	0.0	+	43	noun	phrase	2	3	match	noir	5	1	y	0.86525
439.1001	0.2	nvmf	43	noun	phrase	2	4	match	noir	5	1	y	0.86525
439.3	0.0	+	43	noun	phrase	2	5	match	noir	5	1	y	0.86525
439.6998	0.2	wqp	43	noun	phrase	2	6	match	noir	5	1	y	0.86525
439.8997	0.0	+	43	noun	phrase	2	7	match	noir	5	1	y	0.86525
440.2995	0.2	voilier	43	noun	phrase	2	8	match	noir	5	1	y	0.86525
440.4994	0.0	+	43	noun	phrase	2	9	match	noir	5	1	y	0.86525
440.8992	0.2	noir	43	noun	phrase	2	10	match	noir	5	1	y	0.86525
441.0992	0.0	+	43	noun	phrase	2	11	match	noir	5	1	y	0.86525
441.5162	0.0	+	43	noun	phrase	2	12	match	noir	5	1	y	0.86525
443.4981	0.0	NOIR	43	noun	phrase	2	13	match	noir	5	1	y	0.86525
444.431	0.0	+	43	noun	phrase	2	14	match	noir	5	1	y	0.86525
444.3633	0.0	[response]	43	noun	phrase	2	15	match	noir	5	1	y	0.86525
445.897	0.0	+	44	verb	list	1	1	nomatch	peut	-1	1	p	0.48594
446.447	0.2	csgqbn	44	verb	list	1	2	nomatch	peut	-1	1	p	0.48594
446.6468	0.0	+	44	verb	list	1	3	nomatch	peut	-1	1	p	0.48594
447.0465	0.2	rkh	44	verb	list	1	4	nomatch	peut	-1	1	p	0.48594
447.2468	0.0	+	44	verb	list	1	5	nomatch	peut	-1	1	p	0.48594
447.6462	0.2	bzct	44	verb	list	1	6	nomatch	peut	-1	1	p	0.48594
447.8461	0.0	+	44	verb	list	1	7	nomatch	peut	-1	1	p	0.48594
448.246	0.2	xbgvhml	44	verb	list	1	8	nomatch	peut	-1	1	p	0.48594
448.4459	0.0	+	44	verb	list	1	9	nomatch	peut	-1	1	p	0.48594
448.8457	0.2	parader	44	verb	list	1	10	nomatch	peut	-1	1	p	0.48594
449.0456	0.0	+	44	verb	list	1	11	nomatch	peut	-1	1	p	0.48594
449.4454	0.0	+	44	verb	list	1	12	nomatch	peut	-1	1	p	0.48594
451.4446	0.0	PEUT	44	verb	list	1	13	nomatch	peut	-1	1	p	0.48594
451.9943	0.0	+	44	verb	list	1	14	nomatch	peut	-1	1	p	0.48594
451.9305	0.0	[response]	44	verb	list	1	15	nomatch	peut	-1	1	p	0.48594
453.8435	0.0	+	45	noun	list	3	1	match	leur	3	1	y	1.3261
454.3932	0.2	drnl	45	noun	list	3	2	match	leur	3	1	y	1.3261
454.5931	0.0	+	45	noun	list	3	3	match	leur	3	1	y	1.3261
454.993	0.2	qsdf	45	noun	list	3	4	match	leur	3	1	y	1.3261
455.1929	0.0	+	45	noun	list	3	5	match	leur	3	1	y	1.3261
455.5927	0.2	leur	45	noun	list	3	6	match	leur	3	1	y	1.3261
455.7926	0.0	+	45	noun	list	3	7	match	leur	3	1	y	1.3261
456.1925	0.2	moins	45	noun	list	3	8	match	leur	3	1	y	1.3261
456.393	0.0	+	45	noun	list	3	9	match	leur	3	1	y	1.3261
456.7922	0.2	tablier	45	noun	list	3	10	match	leur	3	1	y	1.3261
456.9921	0.0	+	45	noun	list	3	11	match	leur	3	1	y	1.3261
457.3919	0.0	+	45	noun	list	3	12	match	leur	3	1	y	1.3261
459.39099999999996	0.0	LEUR	45	noun	list	3	13	match	leur	3	1	y	1.3261
460.77369999999996	0.0	+	45	noun	list	3	14	match	leur	3	1	y	1.3261
460.71709999999996	0.0	[response]	45	noun	list	3	15	match	leur	3	1	y	1.3261
469.8365	0.0	+	46	verb	list	4	1	match	plonger	5	0	p	2.1361
470.3361	0.2	zcd	46	verb	list	4	2	match	plonger	5	0	p	2.1361
470.53599999999994	0.0	+	46	verb	list	4	3	match	plonger	5	0	p	2.1361
470.9358	0.2	dans	46	verb	list	4	4	match	plonger	5	0	p	2.1361
471.1358	0.0	+	46	verb	list	4	5	match	plonger	5	0	p	2.1361
471.53560000000004	0.2	va	46	verb	list	4	6	match	plonger	5	0	p	2.1361
471.7355	0.0	+	46	verb	list	4	7	match	plonger	5	0	p	2.1361
472.13559999999995	0.2	petit	46	verb	list	4	8	match	plonger	5	0	p	2.1361
472.33579999999995	0.0	+	46	verb	list	4	9	match	plonger	5	0	p	2.1361
472.7356	0.2	plonger	46	verb	list	4	10	match	plonger	5	0	p	2.1361
472.93539999999996	0.0	+	46	verb	list	4	11	match	plonger	5	0	p	2.1361
473.33540000000005	0.0	+	46	verb	list	4	12	match	plonger	5	0	p	2.1361
475.33389999999997	0.0	PLONGER	46	verb	list	4	13	match	plonger	5	0	p	2.1361
477.53290000000004	0.0	+	46	verb	list	4	14	match	plonger	5	0	p	2.1361
477.46990000000005	0.0	[response]	46	verb	list	4	15	match	plonger	5	0	p	2.1361
477.7495	0.0	+	47	noun	list	2	1	nomatch	clavier	-1	1	p	0.68216
478.29920000000004	0.2	xgvz	47	noun	list	2	2	nomatch	clavier	-1	1	p	0.68216
478.4992	0.0	+	47	noun	list	2	3	nomatch	clavier	-1	1	p	0.68216
478.899	0.2	nvmf	47	noun	list	2	4	nomatch	clavier	-1	1	p	0.68216
479.09889999999996	0.0	+	47	noun	list	2	5	nomatch	clavier	-1	1	p	0.68216
479.49940000000004	0.2	bzct	47	noun	list	2	6	nomatch	clavier	-1	1	p	0.68216
479.69870000000003	0.0	+	47	noun	list	2	7	nomatch	clavier	-1	1	p	0.68216
480.09849999999994	0.2	casier	47	noun	list	2	8	nomatch	clavier	-1	1	p	0.68216
480.299	0.0	+	47	noun	list	2	9	nomatch	clavier	-1	1	p	0.68216
480.69820000000004	0.2	loin	47	noun	list	2	10	nomatch	clavier	-1	1	p	0.68216
480.8981	0.0	+	47	noun	list	2	11	nomatch	clavier	-1	1	p	0.68216
481.2979	0.0	+	47	noun	list	2	12	nomatch	clavier	-1	1	p	0.68216
483.2976	0.0	CLAVIER	47	noun	list	2	13	nomatch	clavier	-1	1	p	0.68216
484.0467	0.0	+	47	noun	list	2	14	nomatch	clavier	-1	1	p	0.68216
483.9797	0.0	[response]	47	noun	list	2	15	nomatch	clavier	-1	1	p	0.68216
485.696	0.0	+	48	noun	list	1	1	match	tablier	5	1	y	0.5807000000000001
486.246	0.2	fdz	48	noun	list	1	2	match	tablier	5	1	y	0.5807000000000001
486.4457	0.0	+	48	noun	list	1	3	match	tablier	5	1	y	0.5807000000000001
486.8628	0.2	hqjx	48	noun	list	1	4	match	tablier	5	1	y	0.5807000000000001
487.0458	0.0	+	48	noun	list	1	5	match	tablier	5	1	y	0.5807000000000001
487.4453	0.2	sk	48	noun	list	1	6	match	tablier	5	1	y	0.5807000000000001
487.64509999999996	0.0	+	48	noun	list	1	7	match	tablier	5	1	y	0.5807000000000001
488.0449	0.2	hrtj	48	noun	list	1	8	match	tablier	5	1	y	0.5807000000000001
488.24479999999994	0.0	+	48	noun	list	1	9	match	tablier	5	1	y	0.5807000000000001
488.64459999999997	0.2	tablier	48	noun	list	1	10	match	tablier	5	1	y	0.5807000000000001
488.84450000000004	0.0	+	48	noun	list	1	11	match	tablier	5	1	y	0.5807000000000001
489.24440000000004	0.0	+	48	noun	list	1	12	match	tablier	5	1	y	0.5807000000000001
491.24350000000004	0.0	TABLIER	48	noun	list	1	13	match	tablier	5	1	y	0.5807000000000001
491.87649999999996	0.0	+	48	noun	list	1	14	match	tablier	5	1	y	0.5807000000000001
491.8242	0.0	[response]	48	noun	list	1	15	match	tablier	5	1	y	0.5807000000000001
493.64239999999995	0.0	+	49	verb	phrase	3	1	match	patiner	5	1	y	0.79821
494.19219999999996	0.2	hvnswkz	49	verb	phrase	3	2	match	patiner	5	1	y	0.79821
494.3921	0.0	+	49	verb	phrase	3	3	match	patiner	5	1	y	0.79821
494.79189999999994	0.2	gpqk	49	verb	phrase	3	4	match	patiner	5	1	y	0.79821
494.9918	0.0	+	49	verb	phrase	3	5	match	patiner	5	1	y	0.79821
495.409	0.2	va	49	verb	phrase	3	6	match	patiner	5	1	y	0.79821
495.592	0.0	+	49	verb	phrase	3	7	match	patiner	5	1	y	0.79821
495.99210000000005	0.2	mieux	49	verb	phrase	3	8	match	patiner	5	1	y	0.79821
496.192	0.0	+	49	verb	phrase	3	9	match	patiner	5	1	y	0.79821
496.59130000000005	0.2	patiner	49	verb	phrase	3	10	match	patiner	5	1	y	0.79821
496.79100000000005	0.0	+	49	verb	phrase	3	11	match	patiner	5	1	y	0.79821
497.19079999999997	0.0	+	49	verb	phrase	3	12	match	patiner	5	1	y	0.79821
499.18989999999997	0.0	PATINER	49	verb	phrase	3	13	match	patiner	5	1	y	0.79821
500.0562	0.0	+	49	verb	phrase	3	14	match	patiner	5	1	y	0.79821
499.98810000000003	0.0	[response]	49	verb	phrase	3	15	match	patiner	5	1	y	0.79821
501.58889999999997	0.0	+	50	noun	list	1	1	nomatch	ainsi	-1	1	p	1.165
502.1386	0.2	pwz	50	noun	list	1	2	nomatch	ainsi	-1	1	p	1.165
502.33849999999995	0.0	+	50	noun	list	1	3	nomatch	ainsi	-1	1	p	1.165
502.7383	0.2	hqjx	50	noun	list	1	4	nomatch	ainsi	-1	1	p	1.165
502.9383	0.0	+	50	noun	list	1	5	nomatch	ainsi	-1	1	p	1.165
503.33810000000005	0.2	sk	50	noun	list	1	6	nomatch	ainsi	-1	1	p	1.165
503.538	0.0	+	50	noun	list	1	7	nomatch	ainsi	-1	1	p	1.165
503.9384	0.2	wltv	50	noun	list	1	8	nomatch	ainsi	-1	1	p	1.165
504.1377	0.0	+	50	noun	list	1	9	nomatch	ainsi	-1	1	p	1.165
504.5375	0.2	clavier	50	noun	list	1	10	nomatch	ainsi	-1	1	p	1.165
504.7374	0.0	+	50	noun	list	1	11	nomatch	ainsi	-1	1	p	1.165
505.1373	0.0	+	50	noun	list	1	12	nomatch	ainsi	-1	1	p	1.165
507.1367	0.0	AINSI	50	noun	list	1	13	nomatch	ainsi	-1	1	p	1.165
508.3692	0.0	+	50	noun	list	1	14	nomatch	ainsi	-1	1	p	1.165
508.3017	0.0	[response]	50	noun	list	1	15	nomatch	ainsi	-1	1	p	1.165
509.5353	0.0	+	51	noun	phrase	4	1	match	leur	3	0	p	0.82167
510.0851	0.2	vxz	51	noun	phrase	4	2	match	leur	3	0	p	0.82167
510.28499999999997	0.0	+	51	noun	phrase	4	3	match	leur	3	0	p	0.82167
510.6848	0.2	sous	51	noun	phrase	4	4	match	leur	3	0	p	0.82167
510.88469999999995	0.0	+	51	noun	phrase	4	5	match	leur	3	0	p	0.82167
511.2845	0.2	leur	51	noun	phrase	4	6	match	leur	3	0	p	0.82167
511.485	0.0	+	51	noun	phrase	4	7	match	leur	3	0	p	0.82167
511.9012	0.2	vieux	51	noun	phrase	4	8	match	leur	3	0	p	0.82167
512.0843	0.0	+	51	noun	phrase	4	9	match	leur	3	0	p	0.82167
512.4845	0.2	sablier	51	noun	phrase	4	10	match	leur	3	0	p	0.82167
512.6843	0.0	+	51	noun	phrase	4	11	match	leur	3	0	p	0.82167
513.0837	0.0	+	51	noun	phrase	4	12	match	leur	3	0	p	0.82167
515.0995	0.0	LEUR	51	noun	phrase	4	13	match	leur	3	0	p	0.82167
515.9824	0.0	+	51	noun	phrase	4	14	match	leur	3	0	p	0.82167
515.9212000000001	0.0	[response]	51	noun	phrase	4	15	match	leur	3	0	p	0.82167
517.4984	0.0	+	52	verb	phrase	2	1	nomatch	patiner	-1	1	p	0.95945
518.0482	0.2	gzp	52	verb	phrase	2	2	nomatch	patiner	-1	1	p	0.95945
518.2481	0.0	+	52	verb	phrase	2	3	nomatch	patiner	-1	1	p	0.95945
518.6479	0.2	tgcf	52	verb	phrase	2	4	nomatch	patiner	-1	1	p	0.95945
518.8478	0.0	+	52	verb	phrase	2	5	nomatch	patiner	-1	1	p	0.95945
519.2481	0.2	vcmh	52	verb	phrase	2	6	nomatch	patiner	-1	1	p	0.95945
519.4481	0.0	+	52	verb	phrase	2	7	nomatch	patiner	-1	1	p	0.95945
519.864	0.2	beaucoup	52	verb	phrase	2	8	nomatch	patiner	-1	1	p	0.95945
520.0479	0.0	+	52	verb	phrase	2	9	nomatch	patiner	-1	1	p	0.95945
520.4472	0.2	voyager	52	verb	phrase	2	10	nomatch	patiner	-1	1	p	0.95945
520.647	0.0	+	52	verb	phrase	2	11	nomatch	patiner	-1	1	p	0.95945
521.0468	0.0	+	52	verb	phrase	2	12	nomatch	patiner	-1	1	p	0.95945
523.0459	0.0	PATINER	52	verb	phrase	2	13	nomatch	patiner	-1	1	p	0.95945
524.0622	0.0	+	52	verb	phrase	2	14	nomatch	patiner	-1	1	p	0.95945
524.0054	0.0	[response]	52	verb	phrase	2	15	nomatch	patiner	-1	1	p	0.95945
525.4449	0.0	+	53	verb	phrase	3	1	match	va	3	1	y	0.76765
525.9946	0.2	gqzvlxm	53	verb	phrase	3	2	match	va	3	1	y	0.76765
526.1945	0.0	+	53	verb	phrase	3	3	match	va	3	1	y	0.76765
526.5944	0.2	vqf	53	verb	phrase	3	4	match	va	3	1	y	0.76765
526.7943	0.0	+	53	verb	phrase	3	5	match	va	3	1	y	0.76765
527.1942	0.2	va	53	verb	phrase	3	6	match	va	3	1	y	0.76765
527.3947	0.0	+	53	verb	phrase	3	7	match	va	3	1	y	0.76765
527.7938	0.2	galoper	53	verb	phrase	3	8	match	va	3	1	y	0.76765
527.9937	0.0	+	53	verb	phrase	3	9	match	va	3	1	y	0.76765
528.3936	0.2	tôt	53	verb	phrase	3	10	match	va	3	1	y	0.76765
528.5935	0.0	+	53	verb	phrase	3	11	match	va	3	1	y	0.76765
528.9933	0.0	+	53	verb	phrase	3	12	match	va	3	1	y	0.76765
530.9924	0.0	VA	53	verb	phrase	3	13	match	va	3	1	y	0.76765
531.8254	0.0	+	53	verb	phrase	3	14	match	va	3	1	y	0.76765
531.7601	0.0	[response]	53	verb	phrase	3	15	match	va	3	1	y	0.76765
533.3913	0.0	+	54	verb	phrase	1	1	nomatch	nager	-1	1	p	0.51414
533.9411	0.2	cgq	54	verb	phrase	1	2	nomatch	nager	-1	1	p	0.51414
534.141	0.0	+	54	verb	phrase	1	3	nomatch	nager	-1	1	p	0.51414
534.5408	0.2	gxnp	54	verb	phrase	1	4	nomatch	nager	-1	1	p	0.51414
534.7407	0.0	+	54	verb	phrase	1	5	nomatch	nager	-1	1	p	0.51414
535.1406	0.2	sk	54	verb	phrase	1	6	nomatch	nager	-1	1	p	0.51414
535.3411	0.0	+	54	verb	phrase	1	7	nomatch	nager	-1	1	p	0.51414
535.7403	0.2	wltv	54	verb	phrase	1	8	nomatch	nager	-1	1	p	0.51414
535.9408999999999	0.0	+	54	verb	phrase	1	9	nomatch	nager	-1	1	p	0.51414
536.3403	0.2	patiner	54	verb	phrase	1	10	nomatch	nager	-1	1	p	0.51414
536.5401	0.0	+	54	verb	phrase	1	11	nomatch	nager	-1	1	p	0.51414
536.9398	0.0	+	54	verb	phrase	1	12	nomatch	nager	-1	1	p	0.51414
538.9389	0.0	NAGER	54	verb	phrase	1	13	nomatch	nager	-1	1	p	0.51414
539.5053	0.0	+	54	verb	phrase	1	14	nomatch	nager	-1	1	p	0.51414
539.453	0.0	[response]	54	verb	phrase	1	15	nomatch	nager	-1	1	p	0.51414
541.3717	0.0	+	55	verb	phrase	1	1	nomatch	plus	-1	1	p	1.8138000000000003
541.8875	0.2	mqnhzw	55	verb	phrase	1	2	nomatch	plus	-1	1	p	1.8138000000000003
542.0875	0.0	+	55	verb	phrase	1	3	nomatch	plus	-1	1	p	1.8138000000000003
542.4879999999999	0.2	vqf	55	verb	phrase	1	4	nomatch	plus	-1	1	p	1.8138000000000003
542.6877	0.0	+	55	verb	phrase	1	5	nomatch	plus	-1	1	p	1.8138000000000003
543.0872	0.2	bzct	55	verb	phrase	1	6	nomatch	plus	-1	1	p	1.8138000000000003
543.3043	0.0	+	55	verb	phrase	1	7	nomatch	plus	-1	1	p	1.8138000000000003
543.704	0.2	wjbklpx	55	verb	phrase	1	8	nomatch	plus	-1	1	p	1.8138000000000003
543.8867	0.0	+	55	verb	phrase	1	9	nomatch	plus	-1	1	p	1.8138000000000003
544.2865	0.2	trop	55	verb	phrase	1	10	nomatch	plus	-1	1	p	1.8138000000000003
544.4864	0.0	+	55	verb	phrase	1	11	nomatch	plus	-1	1	p	1.8138000000000003
544.8862	0.0	+	55	verb	phrase	1	12	nomatch	plus	-1	1	p	1.8138000000000003
546.8853	0.0	PLUS	55	verb	phrase	1	13	nomatch	plus	-1	1	p	1.8138000000000003
548.7512	0.0	+	55	verb	phrase	1	14	nomatch	plus	-1	1	p	1.8138000000000003
548.6991	0.0	[response]	55	verb	phrase	1	15	nomatch	plus	-1	1	p	1.8138000000000003
549.2843	0.0	+	56	verb	list	4	1	match	rouler	4	1	y	0.66131
549.834	0.2	xtcslqj	56	verb	list	4	2	match	rouler	4	1	y	0.66131
550.0339	0.0	+	56	verb	list	4	3	match	rouler	4	1	y	0.66131
550.4337	0.2	jade	56	verb	list	4	4	match	rouler	4	1	y	0.66131
550.6337	0.0	+	56	verb	list	4	5	match	rouler	4	1	y	0.66131
551.0501	0.2	leur	56	verb	list	4	6	match	rouler	4	1	y	0.66131
551.25	0.0	+	56	verb	list	4	7	match	rouler	4	1	y	0.66131
551.6499	0.2	rouler	56	verb	list	4	8	match	rouler	4	1	y	0.66131
551.8498	0.0	+	56	verb	list	4	9	match	rouler	4	1	y	0.66131
552.2496	0.2	noir	56	verb	list	4	10	match	rouler	4	1	y	0.66131
552.4495	0.0	+	56	verb	list	4	11	match	rouler	4	1	y	0.66131
552.8493	0.0	+	56	verb	list	4	12	match	rouler	4	1	y	0.66131
554.8484	0.0	ROULER	56	verb	list	4	13	match	rouler	4	1	y	0.66131
555.5648	0.0	+	56	verb	list	4	14	match	rouler	4	1	y	0.66131
555.5097	0.0	[response]	56	verb	list	4	15	match	rouler	4	1	y	0.66131
557.2812	0.0	+	57	noun	list	3	1	match	son	3	1	y	0.85069
557.7978	0.2	xjqshtz	57	noun	list	3	2	match	son	3	1	y	0.85069
557.9974	0.0	+	57	noun	list	3	3	match	son	3	1	y	0.85069
558.397	0.2	gxnp	57	noun	list	3	4	match	son	3	1	y	0.85069
558.5968	0.0	+	57	noun	list	3	5	match	son	3	1	y	0.85069
558.9966	0.2	son	57	noun	list	3	6	match	son	3	1	y	0.85069
559.1965	0.0	+	57	noun	list	3	7	match	son	3	1	y	0.85069
559.5963	0.2	moins	57	noun	list	3	8	match	son	3	1	y	0.85069
559.7962	0.0	+	57	noun	list	3	9	match	son	3	1	y	0.85069
560.196	0.2	rocher	57	noun	list	3	10	match	son	3	1	y	0.85069
560.396	0.0	+	57	noun	list	3	11	match	son	3	1	y	0.85069
560.7963	0.0	+	57	noun	list	3	12	match	son	3	1	y	0.85069
562.7949	0.0	SON	57	noun	list	3	13	match	son	3	1	y	0.85069
563.7112	0.0	+	57	noun	list	3	14	match	son	3	1	y	0.85069
563.6456	0.0	[response]	57	noun	list	3	15	match	son	3	1	y	0.85069
565.1938	0.0	+	58	verb	phrase	1	1	match	mieux	5	1	y	0.64161
565.7436	0.2	dxblmp	58	verb	phrase	1	2	match	mieux	5	1	y	0.64161
565.9435	0.0	+	58	verb	phrase	1	3	match	mieux	5	1	y	0.64161
566.3433	0.2	gpqk	58	verb	phrase	1	4	match	mieux	5	1	y	0.64161
566.5432	0.0	+	58	verb	phrase	1	5	match	mieux	5	1	y	0.64161
566.943	0.2	vcmh	58	verb	phrase	1	6	match	mieux	5	1	y	0.64161
567.143	0.0	+	58	verb	phrase	1	7	match	mieux	5	1	y	0.64161
567.5427999999999	0.2	nstlxbz	58	verb	phrase	1	8	match	mieux	5	1	y	0.64161
567.7434	0.0	+	58	verb	phrase	1	9	match	mieux	5	1	y	0.64161
568.1431	0.2	mieux	58	verb	phrase	1	10	match	mieux	5	1	y	0.64161
568.3424	0.0	+	58	verb	phrase	1	11	match	mieux	5	1	y	0.64161
568.7422	0.0	+	58	verb	phrase	1	12	match	mieux	5	1	y	0.64161
570.7418	0.0	MIEUX	58	verb	phrase	1	13	match	mieux	5	1	y	0.64161
571.4917	0.0	+	58	verb	phrase	1	14	match	mieux	5	1	y	0.64161
571.3834	0.0	[response]	58	verb	phrase	1	15	match	mieux	5	1	y	0.64161
573.1403	0.0	+	59	verb	list	3	1	match	nager	4	1	y	0.6091000000000001
573.69	0.2	pzvl	59	verb	list	3	2	match	nager	4	1	y	0.6091000000000001
573.8899	0.0	+	59	verb	list	3	3	match	nager	4	1	y	0.6091000000000001
574.2898	0.2	tgcf	59	verb	list	3	4	match	nager	4	1	y	0.6091000000000001
574.4897	0.0	+	59	verb	list	3	5	match	nager	4	1	y	0.6091000000000001
574.8895	0.2	mon	59	verb	list	3	6	match	nager	4	1	y	0.6091000000000001
575.0894	0.0	+	59	verb	list	3	7	match	nager	4	1	y	0.6091000000000001
575.4894	0.2	nager	59	verb	list	3	8	match	nager	4	1	y	0.6091000000000001
575.7065	0.0	+	59	verb	list	3	9	match	nager	4	1	y	0.6091000000000001
576.0893	0.2	rouge	59	verb	list	3	10	match	nager	4	1	y	0.6091000000000001
576.2888	0.0	+	59	verb	list	3	11	match	nager	4	1	y	0.6091000000000001
576.6893	0.0	+	59	verb	list	3	12	match	nager	4	1	y	0.6091000000000001
578.6878	0.0	NAGER	59	verb	list	3	13	match	nager	4	1	y	0.6091000000000001
579.3542	0.0	+	59	verb	list	3	14	match	nager	4	1	y	0.6091000000000001
579.2969	0.0	[response]	59	verb	list	3	15	match	nager	4	1	y	0.6091000000000001
581.0867	0.0	+	60	verb	list	1	1	match	grand	5	1	y	0.5544200000000001
581.6365	0.2	pcl	60	verb	list	1	2	match	grand	5	1	y	0.5544200000000001
581.8364	0.0	+	60	verb	list	1	3	match	grand	5	1	y	0.5544200000000001
582.2362	0.2	jqbv	60	verb	list	1	4	match	grand	5	1	y	0.5544200000000001
582.4361	0.0	+	60	verb	list	1	5	match	grand	5	1	y	0.5544200000000001
582.836	0.2	vcmh	60	verb	list	1	6	match	grand	5	1	y	0.5544200000000001
583.0359	0.0	+	60	verb	list	1	7	match	grand	5	1	y	0.5544200000000001
583.4358	0.2	mktczvs	60	verb	list	1	8	match	grand	5	1	y	0.5544200000000001
583.6526	0.0	+	60	verb	list	1	9	match	grand	5	1	y	0.5544200000000001
584.0361	0.2	grand	60	verb	list	1	10	match	grand	5	1	y	0.5544200000000001
584.236	0.0	+	60	verb	list	1	11	match	grand	5	1	y	0.5544200000000001
584.6351	0.0	+	60	verb	list	1	12	match	grand	5	1	y	0.5544200000000001
586.6348	0.0	GRAND	60	verb	list	1	13	match	grand	5	1	y	0.5544200000000001
587.3339	0.0	+	60	verb	list	1	14	match	grand	5	1	y	0.5544200000000001
587.1892	0.0	[response]	60	verb	list	1	15	match	grand	5	1	y	0.5544200000000001
589.0499	0.0	+	61	verb	list	3	1	match	noir	5	1	y	0.8845900000000001
589.5997	0.2	ftz	61	verb	list	3	2	match	noir	5	1	y	0.8845900000000001
589.8002	0.0	+	61	verb	list	3	3	match	noir	5	1	y	0.8845900000000001
590.2164	0.2	zndv	61	verb	list	3	4	match	noir	5	1	y	0.8845900000000001
590.3994	0.0	+	61	verb	list	3	5	match	noir	5	1	y	0.8845900000000001
590.8164	0.2	son	61	verb	list	3	6	match	noir	5	1	y	0.8845900000000001
590.999	0.0	+	61	verb	list	3	7	match	noir	5	1	y	0.8845900000000001
591.3988	0.2	rouler	61	verb	list	3	8	match	noir	5	1	y	0.8845900000000001
591.5987	0.0	+	61	verb	list	3	9	match	noir	5	1	y	0.8845900000000001
591.9985	0.2	noir	61	verb	list	3	10	match	noir	5	1	y	0.8845900000000001
592.1985	0.0	+	61	verb	list	3	11	match	noir	5	1	y	0.8845900000000001
592.5983	0.0	+	61	verb	list	3	12	match	noir	5	1	y	0.8845900000000001
594.5981	0.0	NOIR	61	verb	list	3	13	match	noir	5	1	y	0.8845900000000001
595.5975999999999	0.0	+	61	verb	list	3	14	match	noir	5	1	y	0.8845900000000001
595.4827	0.0	[response]	61	verb	list	3	15	match	noir	5	1	y	0.8845900000000001
596.9963	0.0	+	62	verb	list	3	1	match	petit	4	1	y	1.0049
597.5461	0.2	dftmqs	62	verb	list	3	2	match	petit	4	1	y	1.0049
597.746	0.0	+	62	verb	list	3	3	match	petit	4	1	y	1.0049
598.1458	0.2	hrms	62	verb	list	3	4	match	petit	4	1	y	1.0049
598.3457	0.0	+	62	verb	list	3	5	match	petit	4	1	y	1.0049
598.7455	0.2	doit	62	verb	list	3	6	match	petit	4	1	y	1.0049
598.9454	0.0	+	62	verb	list	3	7	match	petit	4	1	y	1.0049
599.3458	0.2	petit	62	verb	list	3	8	match	petit	4	1	y	1.0049
599.5456	0.0	+	62	verb	list	3	9	match	petit	4	1	y	1.0049
599.9451	0.2	nager	62	verb	list	3	10	match	petit	4	1	y	1.0049
600.1453	0.0	+	62	verb	list	3	11	match	petit	4	1	y	1.0049
600.5455	0.0	+	62	verb	list	3	12	match	petit	4	1	y	1.0049
602.5438	0.0	PETIT	62	verb	list	3	13	match	petit	4	1	y	1.0049
603.61	0.0	+	62	verb	list	3	14	match	petit	4	1	y	1.0049
603.5488	0.0	[response]	62	verb	list	3	15	match	petit	4	1	y	1.0049
604.9428	0.0	+	63	verb	list	2	1	match	patiner	4	1	y	0.74857
605.4925	0.2	rhq	63	verb	list	2	2	match	patiner	4	1	y	0.74857
605.6924	0.0	+	63	verb	list	2	3	match	patiner	4	1	y	0.74857
606.0923	0.2	vqf	63	verb	list	2	4	match	patiner	4	1	y	0.74857
606.2922	0.0	+	63	verb	list	2	5	match	patiner	4	1	y	0.74857
606.692	0.2	xzdl	63	verb	list	2	6	match	patiner	4	1	y	0.74857
606.8919	0.0	+	63	verb	list	2	7	match	patiner	4	1	y	0.74857
607.3087	0.2	patiner	63	verb	list	2	8	match	patiner	4	1	y	0.74857
607.4917	0.0	+	63	verb	list	2	9	match	patiner	4	1	y	0.74857
607.8919	0.2	bleu	63	verb	list	2	10	match	patiner	4	1	y	0.74857
608.0918	0.0	+	63	verb	list	2	11	match	patiner	4	1	y	0.74857
608.4912	0.0	+	63	verb	list	2	12	match	patiner	4	1	y	0.74857
610.4903	0.0	PATINER	63	verb	list	2	13	match	patiner	4	1	y	0.74857
611.3569	0.0	+	63	verb	list	2	14	match	patiner	4	1	y	0.74857
611.2389000000001	0.0	[response]	63	verb	list	2	15	match	patiner	4	1	y	0.74857
612.8892	0.0	+	64	noun	phrase	1	1	nomatch	sablier	-1	1	p	1.452
613.439	0.2	mcfslb	64	noun	phrase	1	2	nomatch	sablier	-1	1	p	1.452
613.6389	0.0	+	64	noun	phrase	1	3	nomatch	sablier	-1	1	p	1.452
614.0387	0.2	vrzh	64	noun	phrase	1	4	nomatch	sablier	-1	1	p	1.452
614.2554	0.0	+	64	noun	phrase	1	5	nomatch	sablier	-1	1	p	1.452
614.6389	0.2	wqp	64	noun	phrase	1	6	nomatch	sablier	-1	1	p	1.452
614.8386	0.0	+	64	noun	phrase	1	7	nomatch	sablier	-1	1	p	1.452
615.2554	0.2	xshgznc	64	noun	phrase	1	8	nomatch	sablier	-1	1	p	1.452
615.4386	0.0	+	64	noun	phrase	1	9	nomatch	sablier	-1	1	p	1.452
615.8379	0.2	petit	64	noun	phrase	1	10	nomatch	sablier	-1	1	p	1.452
616.0378	0.0	+	64	noun	phrase	1	11	nomatch	sablier	-1	1	p	1.452
616.4376	0.0	+	64	noun	phrase	1	12	nomatch	sablier	-1	1	p	1.452
618.4539	0.0	SABLIER	64	noun	phrase	1	13	nomatch	sablier	-1	1	p	1.452
619.9694	0.0	+	64	noun	phrase	1	14	nomatch	sablier	-1	1	p	1.452
619.906	0.0	[response]	64	noun	phrase	1	15	nomatch	sablier	-1	1	p	1.452
620.8357	0.0	+	65	verb	list	2	1	nomatch	nouveau	-1	1	p	0.67792
621.3854	0.2	qkj	65	verb	list	2	2	nomatch	nouveau	-1	1	p	0.67792
621.5853	0.0	+	65	verb	list	2	3	nomatch	nouveau	-1	1	p	0.67792
621.9852	0.2	tgcf	65	verb	list	2	4	nomatch	nouveau	-1	1	p	0.67792
622.1851	0.0	+	65	verb	list	2	5	nomatch	nouveau	-1	1	p	0.67792
622.5849	0.2	xzdl	65	verb	list	2	6	nomatch	nouveau	-1	1	p	0.67792
622.7848	0.0	+	65	verb	list	2	7	nomatch	nouveau	-1	1	p	0.67792
623.1846	0.2	chasser	65	verb	list	2	8	nomatch	nouveau	-1	1	p	0.67792
623.3845	0.0	+	65	verb	list	2	9	nomatch	nouveau	-1	1	p	0.67792
623.7844	0.2	vert	65	verb	list	2	10	nomatch	nouveau	-1	1	p	0.67792
623.9843	0.0	+	65	verb	list	2	11	nomatch	nouveau	-1	1	p	0.67792
624.3845	0.0	+	65	verb	list	2	12	nomatch	nouveau	-1	1	p	0.67792
626.3999	0.0	NOUVEAU	65	verb	list	2	13	nomatch	nouveau	-1	1	p	0.67792
627.1497	0.0	+	65	verb	list	2	14	nomatch	nouveau	-1	1	p	0.67792
627.0778	0.0	[response]	65	verb	list	2	15	nomatch	nouveau	-1	1	p	0.67792
628.7988	0.0	+	66	noun	list	3	1	match	mon	3	1	y	0.60734
629.3486	0.2	nklb	66	noun	list	3	2	match	mon	3	1	y	0.60734
629.5491	0.0	+	66	noun	list	3	3	match	mon	3	1	y	0.60734
629.9489	0.2	zndv	66	noun	list	3	4	match	mon	3	1	y	0.60734
630.1488	0.0	+	66	noun	list	3	5	match	mon	3	1	y	0.60734
630.5487	0.2	mon	66	noun	list	3	6	match	mon	3	1	y	0.60734
630.765	0.0	+	66	noun	list	3	7	match	mon	3	1	y	0.60734
631.1478	0.2	mieux	66	noun	list	3	8	match	mon	3	1	y	0.60734
631.3477	0.0	+	66	noun	list	3	9	match	mon	3	1	y	0.60734
631.7475	0.2	sablier	66	noun	list	3	10	match	mon	3	1	y	0.60734
631.9474	0.0	+	66	noun	list	3	11	match	mon	3	1	y	0.60734
632.3472	0.0	+	66	noun	list	3	12	match	mon	3	1	y	0.60734
634.347	0.0	MON	66	noun	list	3	13	match	mon	3	1	y	0.60734
635.0127	0.0	+	66	noun	list	3	14	match	mon	3	1	y	0.60734
634.9543	0.0	[response]	66	noun	list	3	15	match	mon	3	1	y	0.60734
636.7452	0.0	+	67	verb	list	1	1	match	vert	5	1	y	0.72385
637.295	0.2	wlb	67	verb	list	1	2	match	vert	5	1	y	0.72385
637.4949	0.0	+	67	verb	list	1	3	match	vert	5	1	y	0.72385
637.8947	0.2	gpqk	67	verb	list	1	4	match	vert	5	1	y	0.72385
638.1119	0.0	+	67	verb	list	1	5	match	vert	5	1	y	0.72385
638.4944	0.2	xzdl	67	verb	list	1	6	match	vert	5	1	y	0.72385
638.6944	0.0	+	67	verb	list	1	7	match	vert	5	1	y	0.72385
639.0942	0.2	wjbklpx	67	verb	list	1	8	match	vert	5	1	y	0.72385
639.2941	0.0	+	67	verb	list	1	9	match	vert	5	1	y	0.72385
639.6939	0.2	vert	67	verb	list	1	10	match	vert	5	1	y	0.72385
639.8937999999999	0.0	+	67	verb	list	1	11	match	vert	5	1	y	0.72385
640.2937	0.0	+	67	verb	list	1	12	match	vert	5	1	y	0.72385
642.3098	0.0	VERT	67	verb	list	1	13	match	vert	5	1	y	0.72385
643.143	0.0	+	67	verb	list	1	14	match	vert	5	1	y	0.72385
643.0337	0.0	[response]	67	verb	list	1	15	match	vert	5	1	y	0.72385
644.6917	0.0	+	68	noun	phrase	4	1	match	sous	2	1	y	0.68695
645.2415	0.2	cvrdhkb	68	noun	phrase	4	2	match	sous	2	1	y	0.68695
645.4414	0.0	+	68	noun	phrase	4	3	match	sous	2	1	y	0.68695
645.8416	0.2	sous	68	noun	phrase	4	4	match	sous	2	1	y	0.68695
646.0414	0.0	+	68	noun	phrase	4	5	match	sous	2	1	y	0.68695
646.4408999999999	0.2	mon	68	noun	phrase	4	6	match	sous	2	1	y	0.68695
646.6408	0.0	+	68	noun	phrase	4	7	match	sous	2	1	y	0.68695
647.0407	0.2	clavier	68	noun	phrase	4	8	match	sous	2	1	y	0.68695
647.2406	0.0	+	68	noun	phrase	4	9	match	sous	2	1	y	0.68695
647.6404	0.2	bleu	68	noun	phrase	4	10	match	sous	2	1	y	0.68695
647.8403	0.0	+	68	noun	phrase	4	11	match	sous	2	1	y	0.68695
648.2401	0.0	+	68	noun	phrase	4	12	match	sous	2	1	y	0.68695
650.2392	0.0	SOUS	68	noun	phrase	4	13	match	sous	2	1	y	0.68695
650.9896	0.0	+	68	noun	phrase	4	14	match	sous	2	1	y	0.68695
650.9262000000001	0.0	[response]	68	noun	phrase	4	15	match	sous	2	1	y	0.68695
652.6382	0.0	+	69	verb	phrase	1	1	nomatch	rouler	-1	1	p	1.1151
653.1879	0.2	mhk	69	verb	phrase	1	2	nomatch	rouler	-1	1	p	1.1151
653.3878	0.0	+	69	verb	phrase	1	3	nomatch	rouler	-1	1	p	1.1151
653.7877	0.2	gtzv	69	verb	phrase	1	4	nomatch	rouler	-1	1	p	1.1151
653.9876	0.0	+	69	verb	phrase	1	5	nomatch	rouler	-1	1	p	1.1151
654.3874	0.2	vcmh	69	verb	phrase	1	6	nomatch	rouler	-1	1	p	1.1151
654.5873	0.0	+	69	verb	phrase	1	7	nomatch	rouler	-1	1	p	1.1151
654.9870999999999	0.2	wjpk	69	verb	phrase	1	8	nomatch	rouler	-1	1	p	1.1151
655.1875	0.0	+	69	verb	phrase	1	9	nomatch	rouler	-1	1	p	1.1151
655.5869	0.2	chasser	69	verb	phrase	1	10	nomatch	rouler	-1	1	p	1.1151
655.7868	0.0	+	69	verb	phrase	1	11	nomatch	rouler	-1	1	p	1.1151
656.1866	0.0	+	69	verb	phrase	1	12	nomatch	rouler	-1	1	p	1.1151
658.1863	0.0	ROULER	69	verb	phrase	1	13	nomatch	rouler	-1	1	p	1.1151
659.3685	0.0	+	69	verb	phrase	1	14	nomatch	rouler	-1	1	p	1.1151
659.3014000000001	0.0	[response]	69	verb	phrase	1	15	nomatch	rouler	-1	1	p	1.1151
660.5846	0.0	+	70	verb	list	2	1	nomatch	avec	-1	1	p	1.3462
661.1344	0.2	rvmp	70	verb	list	2	2	nomatch	avec	-1	1	p	1.3462
661.3343	0.0	+	70	verb	list	2	3	nomatch	avec	-1	1	p	1.3462
661.7341	0.2	gpqk	70	verb	list	2	4	nomatch	avec	-1	1	p	1.3462
661.9346	0.0	+	70	verb	list	2	5	nomatch	avec	-1	1	p	1.3462
662.3339	0.2	wqp	70	verb	list	2	6	nomatch	avec	-1	1	p	1.3462
662.5337	0.0	+	70	verb	list	2	7	nomatch	avec	-1	1	p	1.3462
662.9336	0.2	galoper	70	verb	list	2	8	nomatch	avec	-1	1	p	1.3462
663.1336	0.0	+	70	verb	list	2	9	nomatch	avec	-1	1	p	1.3462
663.55	0.2	noir	70	verb	list	2	10	nomatch	avec	-1	1	p	1.3462
663.7499	0.0	+	70	verb	list	2	11	nomatch	avec	-1	1	p	1.3462
664.1497	0.0	+	70	verb	list	2	12	nomatch	avec	-1	1	p	1.3462
666.1488	0.0	AVEC	70	verb	list	2	13	nomatch	avec	-1	1	p	1.3462
667.5482	0.0	+	70	verb	list	2	14	nomatch	avec	-1	1	p	1.3462
667.495	0.0	[response]	70	verb	list	2	15	nomatch	avec	-1	1	p	1.3462
668.5477	0.0	+	71	verb	phrase	4	1	nomatch	bleu	-1	1	p	1.9759000000000002
669.0975	0.2	zvdkw	71	verb	phrase	4	2	nomatch	bleu	-1	1	p	1.9759000000000002
669.2974	0.0	+	71	verb	phrase	4	3	nomatch	bleu	-1	1	p	1.9759000000000002
669.6972	0.2	yves	71	verb	phrase	4	4	nomatch	bleu	-1	1	p	1.9759000000000002
669.8971	0.0	+	71	verb	phrase	4	5	nomatch	bleu	-1	1	p	1.9759000000000002
670.2973	0.2	va	71	verb	phrase	4	6	nomatch	bleu	-1	1	p	1.9759000000000002
670.4972	0.0	+	71	verb	phrase	4	7	nomatch	bleu	-1	1	p	1.9759000000000002
670.8972	0.2	voyager	71	verb	phrase	4	8	nomatch	bleu	-1	1	p	1.9759000000000002
671.0972	0.0	+	71	verb	phrase	4	9	nomatch	bleu	-1	1	p	1.9759000000000002
671.497	0.2	tard	71	verb	phrase	4	10	nomatch	bleu	-1	1	p	1.9759000000000002
671.6963	0.0	+	71	verb	phrase	4	11	nomatch	bleu	-1	1	p	1.9759000000000002
672.0962	0.0	+	71	verb	phrase	4	12	nomatch	bleu	-1	1	p	1.9759000000000002
674.0953	0.0	BLEU	71	verb	phrase	4	13	nomatch	bleu	-1	1	p	1.9759000000000002
676.1277	0.0	+	71	verb	phrase	4	14	nomatch	bleu	-1	1	p	1.9759000000000002
676.0711	0.0	[response]	71	verb	phrase	4	15	nomatch	bleu	-1	1	p	1.9759000000000002
676.4942	0.0	+	72	verb	list	1	1	nomatch	boîtier	-1	1	p	0.87084
677.0439	0.2	ktlhjs	72	verb	list	1	2	nomatch	boîtier	-1	1	p	0.87084
677.2438	0.0	+	72	verb	list	1	3	nomatch	boîtier	-1	1	p	0.87084
677.6437	0.2	hqjx	72	verb	list	1	4	nomatch	boîtier	-1	1	p	0.87084
677.8436	0.0	+	72	verb	list	1	5	nomatch	boîtier	-1	1	p	0.87084
678.2603	0.2	bzct	72	verb	list	1	6	nomatch	boîtier	-1	1	p	0.87084
678.4434	0.0	+	72	verb	list	1	7	nomatch	boîtier	-1	1	p	0.87084
678.8436	0.2	fhmqprb	72	verb	list	1	8	nomatch	boîtier	-1	1	p	0.87084
679.0437	0.0	+	72	verb	list	1	9	nomatch	boîtier	-1	1	p	0.87084
679.4429	0.2	nouveau	72	verb	list	1	10	nomatch	boîtier	-1	1	p	0.87084
679.6428	0.0	+	72	verb	list	1	11	nomatch	boîtier	-1	1	p	0.87084
680.0426	0.0	+	72	verb	list	1	12	nomatch	boîtier	-1	1	p	0.87084
682.0421	0.0	BOÎTIER	72	verb	list	1	13	nomatch	boîtier	-1	1	p	0.87084
682.9913	0.0	+	72	verb	list	1	14	nomatch	boîtier	-1	1	p	0.87084
682.9129	0.0	[response]	72	verb	list	1	15	nomatch	boîtier	-1	1	p	0.87084
684.4407	0.0	+	73	noun	phrase	1	1	match	clavier	5	1	y	0.75522
684.9904	0.2	bwhgzs	73	noun	phrase	1	2	match	clavier	5	1	y	0.75522
685.191	0.0	+	73	noun	phrase	1	3	match	clavier	5	1	y	0.75522
685.5902	0.2	ctdq	73	noun	phrase	1	4	match	clavier	5	1	y	0.75522
685.8071	0.0	+	73	noun	phrase	1	5	match	clavier	5	1	y	0.75522
686.1905	0.2	wqp	73	noun	phrase	1	6	match	clavier	5	1	y	0.75522
686.3902	0.0	+	73	noun	phrase	1	7	match	clavier	5	1	y	0.75522
686.7896	0.2	fkql	73	noun	phrase	1	8	match	clavier	5	1	y	0.75522
686.9895	0.0	+	73	noun	phrase	1	9	match	clavier	5	1	y	0.75522
687.3893	0.2	clavier	73	noun	phrase	1	10	match	clavier	5	1	y	0.75522
687.5892	0.0	+	73	noun	phrase	1	11	match	clavier	5	1	y	0.75522
687.9891	0.0	+	73	noun	phrase	1	12	match	clavier	5	1	y	0.75522
689.9882	0.0	CLAVIER	73	noun	phrase	1	13	match	clavier	5	1	y	0.75522
690.8045	0.0	+	73	noun	phrase	1	14	match	clavier	5	1	y	0.75522
690.7434000000001	0.0	[response]	73	noun	phrase	1	15	match	clavier	5	1	y	0.75522
692.3871	0.0	+	74	verb	phrase	4	1	match	moins	4	0	p	0.57981
692.9369	0.2	gpnthq	74	verb	phrase	4	2	match	moins	4	0	p	0.57981
693.1368	0.0	+	74	verb	phrase	4	3	match	moins	4	0	p	0.57981
693.5366	0.2	adam	74	verb	phrase	4	4	match	moins	4	0	p	0.57981
693.7365	0.0	+	74	verb	phrase	4	5	match	moins	4	0	p	0.57981
694.1363	0.2	doit	74	verb	phrase	4	6	match	moins	4	0	p	0.57981
694.3362	0.0	+	74	verb	phrase	4	7	match	moins	4	0	p	0.57981
694.7361	0.2	moins	74	verb	phrase	4	8	match	moins	4	0	p	0.57981
694.9364	0.0	+	74	verb	phrase	4	9	match	moins	4	0	p	0.57981
695.3529	0.2	voyager	74	verb	phrase	4	10	match	moins	4	0	p	0.57981
695.5529	0.0	+	74	verb	phrase	4	11	match	moins	4	0	p	0.57981
695.9359	0.0	+	74	verb	phrase	4	12	match	moins	4	0	p	0.57981
697.9346	0.0	MOINS	74	verb	phrase	4	13	match	moins	4	0	p	0.57981
698.5844	0.0	+	74	verb	phrase	4	14	match	moins	4	0	p	0.57981
698.5144	0.0	[response]	74	verb	phrase	4	15	match	moins	4	0	p	0.57981
700.3336	0.0	+	75	verb	phrase	4	1	match	plus	4	0	p	1.1988000000000003
700.9	0.2	vdfqb	75	verb	phrase	4	2	match	plus	4	0	p	1.1988000000000003
701.0999	0.0	+	75	verb	phrase	4	3	match	plus	4	0	p	1.1988000000000003
701.4997	0.2	luc	75	verb	phrase	4	4	match	plus	4	0	p	1.1988000000000003
701.6996	0.0	+	75	verb	phrase	4	5	match	plus	4	0	p	1.1988000000000003
702.0995	0.2	peut	75	verb	phrase	4	6	match	plus	4	0	p	1.1988000000000003
702.2993	0.0	+	75	verb	phrase	4	7	match	plus	4	0	p	1.1988000000000003
702.6992	0.2	plus	75	verb	phrase	4	8	match	plus	4	0	p	1.1988000000000003
702.8991	0.0	+	75	verb	phrase	4	9	match	plus	4	0	p	1.1988000000000003
703.2989	0.2	plonger	75	verb	phrase	4	10	match	plus	4	0	p	1.1988000000000003
703.4993	0.0	+	75	verb	phrase	4	11	match	plus	4	0	p	1.1988000000000003
703.8987	0.0	+	75	verb	phrase	4	12	match	plus	4	0	p	1.1988000000000003
705.8977	0.0	PLUS	75	verb	phrase	4	13	match	plus	4	0	p	1.1988000000000003
707.1638	0.0	+	75	verb	phrase	4	14	match	plus	4	0	p	1.1988000000000003
707.0966	0.0	[response]	75	verb	phrase	4	15	match	plus	4	0	p	1.1988000000000003
724.2896	0.0	+	76	verb	list	2	1	match	parader	4	1	y	0.42327
724.8397	0.2	cktjdp	76	verb	list	2	2	match	parader	4	1	y	0.42327
725.0399	0.0	+	76	verb	list	2	3	match	parader	4	1	y	0.42327
725.4396	0.2	zndv	76	verb	list	2	4	match	parader	4	1	y	0.42327
725.6396	0.0	+	76	verb	list	2	5	match	parader	4	1	y	0.42327
726.0388	0.2	rdq	76	verb	list	2	6	match	parader	4	1	y	0.42327
726.2387	0.0	+	76	verb	list	2	7	match	parader	4	1	y	0.42327
726.6385	0.2	parader	76	verb	list	2	8	match	parader	4	1	y	0.42327
726.8384	0.0	+	76	verb	list	2	9	match	parader	4	1	y	0.42327
727.2382	0.2	rouge	76	verb	list	2	10	match	parader	4	1	y	0.42327
727.4381	0.0	+	76	verb	list	2	11	match	parader	4	1	y	0.42327
727.838	0.0	+	76	verb	list	2	12	match	parader	4	1	y	0.42327
729.8539	0.0	PARADER	76	verb	list	2	13	match	parader	4	1	y	0.42327
730.4202	0.0	+	76	verb	list	2	14	match	parader	4	1	y	0.42327
730.2772000000001	0.0	[response]	76	verb	list	2	15	match	parader	4	1	y	0.42327
732.236	0.0	+	77	verb	phrase	1	1	nomatch	dans	-1	1	p	0.61025
732.7857	0.2	jmqvfs	77	verb	phrase	1	2	nomatch	dans	-1	1	p	0.61025
732.9857	0.0	+	77	verb	phrase	1	3	nomatch	dans	-1	1	p	0.61025
733.3855	0.2	vqf	77	verb	phrase	1	4	nomatch	dans	-1	1	p	0.61025
733.5854	0.0	+	77	verb	phrase	1	5	nomatch	dans	-1	1	p	0.61025
733.9852	0.2	sk	77	verb	phrase	1	6	nomatch	dans	-1	1	p	0.61025
734.1851	0.0	+	77	verb	phrase	1	7	nomatch	dans	-1	1	p	0.61025
734.5853	0.2	fhmqprb	77	verb	phrase	1	8	nomatch	dans	-1	1	p	0.61025
734.8022	0.0	+	77	verb	phrase	1	9	nomatch	dans	-1	1	p	0.61025
735.1851	0.2	loin	77	verb	phrase	1	10	nomatch	dans	-1	1	p	0.61025
735.4016	0.0	+	77	verb	phrase	1	11	nomatch	dans	-1	1	p	0.61025
735.7844	0.0	+	77	verb	phrase	1	12	nomatch	dans	-1	1	p	0.61025
737.7836	0.0	DANS	77	verb	phrase	1	13	nomatch	dans	-1	1	p	0.61025
738.4499	0.0	+	77	verb	phrase	1	14	nomatch	dans	-1	1	p	0.61025
738.3939	0.0	[response]	77	verb	phrase	1	15	nomatch	dans	-1	1	p	0.61025
740.1991	0.0	+	78	verb	list	4	1	match	doit	3	1	y	0.5640600000000001
740.7489	0.2	wvz	78	verb	list	4	2	match	doit	3	1	y	0.5640600000000001
740.9488	0.0	+	78	verb	list	4	3	match	doit	3	1	y	0.5640600000000001
741.3493	0.2	avec	78	verb	list	4	4	match	doit	3	1	y	0.5640600000000001
741.5491	0.0	+	78	verb	list	4	5	match	doit	3	1	y	0.5640600000000001
741.9485999999999	0.2	doit	78	verb	list	4	6	match	doit	3	1	y	0.5640600000000001
742.149	0.0	+	78	verb	list	4	7	match	doit	3	1	y	0.5640600000000001
742.5481	0.2	nouveau	78	verb	list	4	8	match	doit	3	1	y	0.5640600000000001
742.748	0.0	+	78	verb	list	4	9	match	doit	3	1	y	0.5640600000000001
743.1478	0.2	patiner	78	verb	list	4	10	match	doit	3	1	y	0.5640600000000001
743.3477	0.0	+	78	verb	list	4	11	match	doit	3	1	y	0.5640600000000001
743.7475	0.0	+	78	verb	list	4	12	match	doit	3	1	y	0.5640600000000001
745.7467	0.0	DOIT	78	verb	list	4	13	match	doit	3	1	y	0.5640600000000001
746.397	0.0	+	78	verb	list	4	14	match	doit	3	1	y	0.5640600000000001
746.3107000000001	0.0	[response]	78	verb	list	4	15	match	doit	3	1	y	0.5640600000000001
748.1456	0.0	+	79	verb	list	4	1	match	sans	2	1	y	0.5768800000000001
748.6953	0.2	tfckgmh	79	verb	list	4	2	match	sans	2	1	y	0.5768800000000001
748.8953	0.0	+	79	verb	list	4	3	match	sans	2	1	y	0.5768800000000001
749.2954	0.2	sans	79	verb	list	4	4	match	sans	2	1	y	0.5768800000000001
749.5119	0.0	+	79	verb	list	4	5	match	sans	2	1	y	0.5768800000000001
749.8949	0.2	peut	79	verb	list	4	6	match	sans	2	1	y	0.5768800000000001
750.0952	0.0	+	79	verb	list	4	7	match	sans	2	1	y	0.5768800000000001
750.4945	0.2	vieux	79	verb	list	4	8	match	sans	2	1	y	0.5768800000000001
750.6944	0.0	+	79	verb	list	4	9	match	sans	2	1	y	0.5768800000000001
751.0943	0.2	nager	79	verb	list	4	10	match	sans	2	1	y	0.5768800000000001
751.2942	0.0	+	79	verb	list	4	11	match	sans	2	1	y	0.5768800000000001
751.694	0.0	+	79	verb	list	4	12	match	sans	2	1	y	0.5768800000000001
753.6939	0.0	SANS	79	verb	list	4	13	match	sans	2	1	y	0.5768800000000001
754.3262	0.0	+	79	verb	list	4	14	match	sans	2	1	y	0.5768800000000001
754.2707	0.0	[response]	79	verb	list	4	15	match	sans	2	1	y	0.5768800000000001
756.0924	0.0	+	80	verb	list	1	1	match	beau	5	1	y	0.73687
756.6423	0.2	hmpf	80	verb	list	1	2	match	beau	5	1	y	0.73687
756.8421	0.0	+	80	verb	list	1	3	match	beau	5	1	y	0.73687
757.2422	0.2	vrzh	80	verb	list	1	4	match	beau	5	1	y	0.73687
757.4421	0.0	+	80	verb	list	1	5	match	beau	5	1	y	0.73687
757.8413	0.2	sk	80	verb	list	1	6	match	beau	5	1	y	0.73687
758.0412	0.0	+	80	verb	list	1	7	match	beau	5	1	y	0.73687
758.441	0.2	prtlzhs	80	verb	list	1	8	match	beau	5	1	y	0.73687
758.6409	0.0	+	80	verb	list	1	9	match	beau	5	1	y	0.73687
759.0407	0.2	beau	80	verb	list	1	10	match	beau	5	1	y	0.73687
759.2406	0.0	+	80	verb	list	1	11	match	beau	5	1	y	0.73687
759.6405	0.0	+	80	verb	list	1	12	match	beau	5	1	y	0.73687
761.6396	0.0	BEAU	80	verb	list	1	13	match	beau	5	1	y	0.73687
762.4392	0.0	+	80	verb	list	1	14	match	beau	5	1	y	0.73687
764.0385	0.0	+	80	verb	list	1	15	match	beau	5	1	y	0.73687
765.0047	0.0	+	80	verb	list	1	16	match	beau	5	1	y	0.73687
765.1047	0.0	+	80	verb	list	1	17	match	beau	5	1	y	0.73687
766.5042	0.0	+	80	verb	list	1	18	match	beau	5	1	y	0.73687
766.604	0.0	+	80	verb	list	1	19	match	beau	5	1	y	0.73687
768.0201	0.0	+	80	verb	list	1	20	match	beau	5	1	y	0.73687
768.12	0.0	+	80	verb	list	1	21	match	beau	5	1	y	0.73687
769.5194	0.0	+	80	verb	list	1	22	match	beau	5	1	y	0.73687
769.6193	0.0	+	80	verb	list	1	23	match	beau	5	1	y	0.73687
771.0187	0.0	+	80	verb	list	1	24	match	beau	5	1	y	0.73687
771.1187	0.0	+	80	verb	list	1	25	match	beau	5	1	y	0.73687
772.518	0.0	+	80	verb	list	1	26	match	beau	5	1	y	0.73687
772.618	0.0	+	80	verb	list	1	27	match	beau	5	1	y	0.73687
774.0174	0.0	+	80	verb	list	1	28	match	beau	5	1	y	0.73687
774.1173	0.0	+	80	verb	list	1	29	match	beau	5	1	y	0.73687
775.5167	0.0	+	80	verb	list	1	30	match	beau	5	1	y	0.73687
775.6167	0.0	+	80	verb	list	1	31	match	beau	5	1	y	0.73687
777.016	0.0	+	80	verb	list	1	32	match	beau	5	1	y	0.73687
777.116	0.0	+	80	verb	list	1	33	match	beau	5	1	y	0.73687
778.5154	0.0	+	80	verb	list	1	34	match	beau	5	1	y	0.73687
778.6153	0.0	+	80	verb	list	1	35	match	beau	5	1	y	0.73687
784.9625	0.0	+	80	verb	list	1	36	match	beau	5	1	y	0.73687
762.3764	0.0	[response]	80	verb	list	1	37	match	beau	5	1	y	0.73687
