onset	duration	stim	trial_number	trial_type	trial_structure	trial_length	sequential_position	probe_type	probe	probe_position	response_correct	response_key	response_time
0.06609999999999872	0.0	+	1	noun	phrase	2	1	match	grand	4	1	y	0.5182300000000001
0.549199999999999	0.2	lgwrx	1	noun	phrase	2	2	match	grand	4	1	y	0.5182300000000001
0.7492000000000019	0.0	+	1	noun	phrase	2	3	match	grand	4	1	y	0.5182300000000001
1.149000000000001	0.2	nvmf	1	noun	phrase	2	4	match	grand	4	1	y	0.5182300000000001
1.3489000000000004	0.0	+	1	noun	phrase	2	5	match	grand	4	1	y	0.5182300000000001
1.7486999999999995	0.2	wqp	1	noun	phrase	2	6	match	grand	4	1	y	0.5182300000000001
1.948599999999999	0.0	+	1	noun	phrase	2	7	match	grand	4	1	y	0.5182300000000001
2.348399999999998	0.2	grand	1	noun	phrase	2	8	match	grand	4	1	y	0.5182300000000001
2.548400000000001	0.0	+	1	noun	phrase	2	9	match	grand	4	1	y	0.5182300000000001
2.9482	0.2	tablier	1	noun	phrase	2	10	match	grand	4	1	y	0.5182300000000001
3.1480999999999995	0.0	+	1	noun	phrase	2	11	match	grand	4	1	y	0.5182300000000001
3.548500000000004	0.0	+	1	noun	phrase	2	12	match	grand	4	1	y	0.5182300000000001
5.547000000000004	0.0	GRAND	1	noun	phrase	2	13	match	grand	4	1	y	0.5182300000000001
6.146799999999999	0.0	+	1	noun	phrase	2	14	match	grand	4	1	y	0.5182300000000001
6.065300000000008	0.0	[response]	1	noun	phrase	2	15	match	grand	4	1	y	0.5182300000000001
7.945900000000002	0.0	+	2	verb	phrase	2	1	match	voyager	4	1	y	0.41124
8.4957	0.2	szwjc	2	verb	phrase	2	2	match	voyager	4	1	y	0.41124
8.695599999999999	0.0	+	2	verb	phrase	2	3	match	voyager	4	1	y	0.41124
9.095399999999998	0.2	gxnp	2	verb	phrase	2	4	match	voyager	4	1	y	0.41124
9.2954	0.0	+	2	verb	phrase	2	5	match	voyager	4	1	y	0.41124
9.695300000000003	0.2	vcmh	2	verb	phrase	2	6	match	voyager	4	1	y	0.41124
9.895299999999999	0.0	+	2	verb	phrase	2	7	match	voyager	4	1	y	0.41124
10.2954	0.2	voyager	2	verb	phrase	2	8	match	voyager	4	1	y	0.41124
10.4951	0.0	+	2	verb	phrase	2	9	match	voyager	4	1	y	0.41124
10.895400000000002	0.2	tard	2	verb	phrase	2	10	match	voyager	4	1	y	0.41124
11.094500000000004	0.0	+	2	verb	phrase	2	11	match	voyager	4	1	y	0.41124
11.494400000000006	0.0	+	2	verb	phrase	2	12	match	voyager	4	1	y	0.41124
13.493699999999997	0.0	VOYAGER	2	verb	phrase	2	13	match	voyager	4	1	y	0.41124
13.96	0.0	+	2	verb	phrase	2	14	match	voyager	4	1	y	0.41124
13.904900000000005	0.0	[response]	2	verb	phrase	2	15	match	voyager	4	1	y	0.41124
15.892400000000002	0.0	+	3	verb	phrase	4	1	nomatch	va	-1	1	p	0.67312
16.442200000000007	0.2	lxb	3	verb	phrase	4	2	nomatch	va	-1	1	p	0.67312
16.659399999999998	0.0	+	3	verb	phrase	4	3	nomatch	va	-1	1	p	0.67312
17.0422	0.2	jade	3	verb	phrase	4	4	nomatch	va	-1	1	p	0.67312
17.258699999999997	0.0	+	3	verb	phrase	4	5	nomatch	va	-1	1	p	0.67312
17.641600000000004	0.2	doit	3	verb	phrase	4	6	nomatch	va	-1	1	p	0.67312
17.841500000000003	0.0	+	3	verb	phrase	4	7	nomatch	va	-1	1	p	0.67312
18.241400000000006	0.2	rouler	3	verb	phrase	4	8	nomatch	va	-1	1	p	0.67312
18.441300000000005	0.0	+	3	verb	phrase	4	9	nomatch	va	-1	1	p	0.67312
18.841100000000004	0.2	loin	3	verb	phrase	4	10	nomatch	va	-1	1	p	0.67312
19.041000000000004	0.0	+	3	verb	phrase	4	11	nomatch	va	-1	1	p	0.67312
19.440800000000003	0.0	+	3	verb	phrase	4	12	nomatch	va	-1	1	p	0.67312
21.440500000000007	0.0	VA	3	verb	phrase	4	13	nomatch	va	-1	1	p	0.67312
22.239600000000003	0.0	+	3	verb	phrase	4	14	nomatch	va	-1	1	p	0.67312
22.113599999999998	0.0	[response]	3	verb	phrase	4	15	nomatch	va	-1	1	p	0.67312
23.838900000000002	0.0	+	4	noun	list	3	1	nomatch	mieux	-1	1	p	0.9078400000000001
24.388600000000004	0.2	dqftb	4	noun	list	3	2	nomatch	mieux	-1	1	p	0.9078400000000001
24.588500000000003	0.0	+	4	noun	list	3	3	nomatch	mieux	-1	1	p	0.9078400000000001
24.988300000000002	0.2	gtzv	4	noun	list	3	4	nomatch	mieux	-1	1	p	0.9078400000000001
25.188300000000005	0.0	+	4	noun	list	3	5	nomatch	mieux	-1	1	p	0.9078400000000001
25.588100000000004	0.2	mon	4	noun	list	3	6	nomatch	mieux	-1	1	p	0.9078400000000001
25.788100000000007	0.0	+	4	noun	list	3	7	nomatch	mieux	-1	1	p	0.9078400000000001
26.1881	0.2	plus	4	noun	list	3	8	nomatch	mieux	-1	1	p	0.9078400000000001
26.387800000000006	0.0	+	4	noun	list	3	9	nomatch	mieux	-1	1	p	0.9078400000000001
26.787600000000005	0.2	clavier	4	noun	list	3	10	nomatch	mieux	-1	1	p	0.9078400000000001
26.987500000000004	0.0	+	4	noun	list	3	11	nomatch	mieux	-1	1	p	0.9078400000000001
27.387300000000003	0.0	+	4	noun	list	3	12	nomatch	mieux	-1	1	p	0.9078400000000001
29.386400000000002	0.0	MIEUX	4	noun	list	3	13	nomatch	mieux	-1	1	p	0.9078400000000001
30.352600000000002	0.0	+	4	noun	list	3	14	nomatch	mieux	-1	1	p	0.9078400000000001
30.294199999999996	0.0	[response]	4	noun	list	3	15	nomatch	mieux	-1	1	p	0.9078400000000001
31.7853	0.0	+	5	noun	list	1	1	nomatch	son	-1	1	p	0.7417700000000002
32.335100000000004	0.2	gwdn	5	noun	list	1	2	nomatch	son	-1	1	p	0.7417700000000002
32.535000000000004	0.0	+	5	noun	list	1	3	nomatch	son	-1	1	p	0.7417700000000002
32.9351	0.2	nvmf	5	noun	list	1	4	nomatch	son	-1	1	p	0.7417700000000002
33.1347	0.0	+	5	noun	list	1	5	nomatch	son	-1	1	p	0.7417700000000002
33.5345	0.2	bzct	5	noun	list	1	6	nomatch	son	-1	1	p	0.7417700000000002
33.734500000000004	0.0	+	5	noun	list	1	7	nomatch	son	-1	1	p	0.7417700000000002
34.1343	0.2	dxt	5	noun	list	1	8	nomatch	son	-1	1	p	0.7417700000000002
34.3345	0.0	+	5	noun	list	1	9	nomatch	son	-1	1	p	0.7417700000000002
34.734500000000004	0.2	boîtier	5	noun	list	1	10	nomatch	son	-1	1	p	0.7417700000000002
34.9339	0.0	+	5	noun	list	1	11	nomatch	son	-1	1	p	0.7417700000000002
35.3337	0.0	+	5	noun	list	1	12	nomatch	son	-1	1	p	0.7417700000000002
37.35020000000001	0.0	SON	5	noun	list	1	13	nomatch	son	-1	1	p	0.7417700000000002
38.2664	0.0	+	5	noun	list	1	14	nomatch	son	-1	1	p	0.7417700000000002
38.092000000000006	0.0	[response]	5	noun	list	1	15	nomatch	son	-1	1	p	0.7417700000000002
39.7484	0.0	+	6	noun	phrase	2	1	nomatch	voilier	-1	1	p	0.69934
40.2982	0.2	szmv	6	noun	phrase	2	2	nomatch	voilier	-1	1	p	0.69934
40.4981	0.0	+	6	noun	phrase	2	3	nomatch	voilier	-1	1	p	0.69934
40.898599999999995	0.2	rkh	6	noun	phrase	2	4	nomatch	voilier	-1	1	p	0.69934
41.0978	0.0	+	6	noun	phrase	2	5	nomatch	voilier	-1	1	p	0.69934
41.4977	0.2	wqp	6	noun	phrase	2	6	nomatch	voilier	-1	1	p	0.69934
41.69780000000001	0.0	+	6	noun	phrase	2	7	nomatch	voilier	-1	1	p	0.69934
42.0974	0.2	nouveau	6	noun	phrase	2	8	nomatch	voilier	-1	1	p	0.69934
42.2973	0.0	+	6	noun	phrase	2	9	nomatch	voilier	-1	1	p	0.69934
42.6971	0.2	sablier	6	noun	phrase	2	10	nomatch	voilier	-1	1	p	0.69934
42.897	0.0	+	6	noun	phrase	2	11	nomatch	voilier	-1	1	p	0.69934
43.2969	0.0	+	6	noun	phrase	2	12	nomatch	voilier	-1	1	p	0.69934
45.2965	0.0	VOILIER	6	noun	phrase	2	13	nomatch	voilier	-1	1	p	0.69934
46.0623	0.0	+	6	noun	phrase	2	14	nomatch	voilier	-1	1	p	0.69934
45.995799999999996	0.0	[response]	6	noun	phrase	2	15	nomatch	voilier	-1	1	p	0.69934
47.7117	0.0	+	7	noun	list	1	1	match	clavier	5	1	y	0.60001
48.261599999999994	0.2	jhw	7	noun	list	1	2	match	clavier	5	1	y	0.60001
48.44480000000001	0.0	+	7	noun	list	1	3	match	clavier	5	1	y	0.60001
48.8449	0.2	qsdf	7	noun	list	1	4	match	clavier	5	1	y	0.60001
49.0443	0.0	+	7	noun	list	1	5	match	clavier	5	1	y	0.60001
49.4441	0.2	rdq	7	noun	list	1	6	match	clavier	5	1	y	0.60001
49.644	0.0	+	7	noun	list	1	7	match	clavier	5	1	y	0.60001
50.0438	0.2	wjpk	7	noun	list	1	8	match	clavier	5	1	y	0.60001
50.2438	0.0	+	7	noun	list	1	9	match	clavier	5	1	y	0.60001
50.6436	0.2	clavier	7	noun	list	1	10	match	clavier	5	1	y	0.60001
50.8435	0.0	+	7	noun	list	1	11	match	clavier	5	1	y	0.60001
51.24400000000001	0.0	+	7	noun	list	1	12	match	clavier	5	1	y	0.60001
53.242399999999996	0.0	CLAVIER	7	noun	list	1	13	match	clavier	5	1	y	0.60001
53.90880000000001	0.0	+	7	noun	list	1	14	match	clavier	5	1	y	0.60001
53.842400000000005	0.0	[response]	7	noun	list	1	15	match	clavier	5	1	y	0.60001
55.641299999999994	0.0	+	8	verb	list	1	1	nomatch	chasser	-1	0	TIMEOUT	-1.0
56.1911	0.2	xtzjv	8	verb	list	1	2	nomatch	chasser	-1	0	TIMEOUT	-1.0
56.391	0.0	+	8	verb	list	1	3	nomatch	chasser	-1	0	TIMEOUT	-1.0
56.7908	0.2	tgcf	8	verb	list	1	4	nomatch	chasser	-1	0	TIMEOUT	-1.0
56.9907	0.0	+	8	verb	list	1	5	nomatch	chasser	-1	0	TIMEOUT	-1.0
57.3906	0.2	wqp	8	verb	list	1	6	nomatch	chasser	-1	0	TIMEOUT	-1.0
57.5909	0.0	+	8	verb	list	1	7	nomatch	chasser	-1	0	TIMEOUT	-1.0
57.9904	0.2	thdc	8	verb	list	1	8	nomatch	chasser	-1	0	TIMEOUT	-1.0
58.1902	0.0	+	8	verb	list	1	9	nomatch	chasser	-1	0	TIMEOUT	-1.0
58.589999999999996	0.2	voyager	8	verb	list	1	10	nomatch	chasser	-1	0	TIMEOUT	-1.0
58.789899999999996	0.0	+	8	verb	list	1	11	nomatch	chasser	-1	0	TIMEOUT	-1.0
59.1903	0.0	+	8	verb	list	1	12	nomatch	chasser	-1	0	TIMEOUT	-1.0
61.1889	0.0	CHASSER	8	verb	list	1	13	nomatch	chasser	-1	0	TIMEOUT	-1.0
63.587799999999994	0.0	+	9	verb	phrase	3	1	match	tard	5	1	y	0.72655
64.1875	0.2	vdplx	9	verb	phrase	3	2	match	tard	5	1	y	0.72655
64.38740000000001	0.0	+	9	verb	phrase	3	3	match	tard	5	1	y	0.72655
64.78729999999999	0.2	gpqk	9	verb	phrase	3	4	match	tard	5	1	y	0.72655
64.9872	0.0	+	9	verb	phrase	3	5	match	tard	5	1	y	0.72655
65.387	0.2	peut	9	verb	phrase	3	6	match	tard	5	1	y	0.72655
65.58690000000001	0.0	+	9	verb	phrase	3	7	match	tard	5	1	y	0.72655
65.98670000000001	0.2	nager	9	verb	phrase	3	8	match	tard	5	1	y	0.72655
66.1867	0.0	+	9	verb	phrase	3	9	match	tard	5	1	y	0.72655
66.5865	0.2	tard	9	verb	phrase	3	10	match	tard	5	1	y	0.72655
66.78640000000001	0.0	+	9	verb	phrase	3	11	match	tard	5	1	y	0.72655
67.18620000000001	0.0	+	9	verb	phrase	3	12	match	tard	5	1	y	0.72655
69.18530000000001	0.0	TARD	9	verb	phrase	3	13	match	tard	5	1	y	0.72655
69.9683	0.0	+	9	verb	phrase	3	14	match	tard	5	1	y	0.72655
69.9119	0.0	[response]	9	verb	phrase	3	15	match	tard	5	1	y	0.72655
71.58420000000001	0.0	+	10	noun	phrase	2	1	nomatch	trop	-1	1	p	1.6529
72.13400000000001	0.2	mcgjbqw	10	noun	phrase	2	2	nomatch	trop	-1	1	p	1.6529
72.3339	0.0	+	10	noun	phrase	2	3	nomatch	trop	-1	1	p	1.6529
72.7337	0.2	rkh	10	noun	phrase	2	4	nomatch	trop	-1	1	p	1.6529
72.95089999999999	0.0	+	10	noun	phrase	2	5	nomatch	trop	-1	1	p	1.6529
73.3674	0.2	wqp	10	noun	phrase	2	6	nomatch	trop	-1	1	p	1.6529
73.55000000000001	0.0	+	10	noun	phrase	2	7	nomatch	trop	-1	1	p	1.6529
73.94999999999999	0.2	vieux	10	noun	phrase	2	8	nomatch	trop	-1	1	p	1.6529
74.1498	0.0	+	10	noun	phrase	2	9	nomatch	trop	-1	1	p	1.6529
74.5496	0.2	clavier	10	noun	phrase	2	10	nomatch	trop	-1	1	p	1.6529
74.74949999999998	0.0	+	10	noun	phrase	2	11	nomatch	trop	-1	1	p	1.6529
75.14929999999998	0.0	+	10	noun	phrase	2	12	nomatch	trop	-1	1	p	1.6529
77.14839999999998	0.0	TROP	10	noun	phrase	2	13	nomatch	trop	-1	1	p	1.6529
78.86429999999999	0.0	+	10	noun	phrase	2	14	nomatch	trop	-1	1	p	1.6529
78.8014	0.0	[response]	10	noun	phrase	2	15	nomatch	trop	-1	1	p	1.6529
79.54739999999998	0.0	+	11	verb	list	1	1	match	nager	5	1	y	0.97705
80.09709999999998	0.2	pmwscz	11	verb	list	1	2	match	nager	5	1	y	0.97705
80.297	0.0	+	11	verb	list	1	3	match	nager	5	1	y	0.97705
80.6968	0.2	tgcf	11	verb	list	1	4	match	nager	5	1	y	0.97705
80.89679999999998	0.0	+	11	verb	list	1	5	match	nager	5	1	y	0.97705
81.29659999999998	0.2	xzdl	11	verb	list	1	6	match	nager	5	1	y	0.97705
81.4965	0.0	+	11	verb	list	1	7	match	nager	5	1	y	0.97705
81.8963	0.2	zgbqn	11	verb	list	1	8	match	nager	5	1	y	0.97705
82.0969	0.0	+	11	verb	list	1	9	match	nager	5	1	y	0.97705
82.4964	0.2	nager	11	verb	list	1	10	match	nager	5	1	y	0.97705
82.71289999999999	0.0	+	11	verb	list	1	11	match	nager	5	1	y	0.97705
83.1131	0.0	+	11	verb	list	1	12	match	nager	5	1	y	0.97705
85.0949	0.0	NAGER	11	verb	list	1	13	match	nager	5	1	y	0.97705
86.14509999999999	0.0	+	11	verb	list	1	14	match	nager	5	1	y	0.97705
86.0719	0.0	[response]	11	verb	list	1	15	match	nager	5	1	y	0.97705
87.4938	0.0	+	12	noun	phrase	4	1	nomatch	jade	-1	0	TIMEOUT	-1.0
88.0436	0.2	jdnq	12	noun	phrase	4	2	nomatch	jade	-1	0	TIMEOUT	-1.0
88.24349999999998	0.0	+	12	noun	phrase	4	3	nomatch	jade	-1	0	TIMEOUT	-1.0
88.64329999999998	0.2	sur	12	noun	phrase	4	4	nomatch	jade	-1	0	TIMEOUT	-1.0
88.8432	0.0	+	12	noun	phrase	4	5	nomatch	jade	-1	0	TIMEOUT	-1.0
89.243	0.2	son	12	noun	phrase	4	6	nomatch	jade	-1	0	TIMEOUT	-1.0
89.44289999999998	0.0	+	12	noun	phrase	4	7	nomatch	jade	-1	0	TIMEOUT	-1.0
89.8432	0.2	tablier	12	noun	phrase	4	8	nomatch	jade	-1	0	TIMEOUT	-1.0
90.043	0.0	+	12	noun	phrase	4	9	nomatch	jade	-1	0	TIMEOUT	-1.0
90.44289999999998	0.2	blanc	12	noun	phrase	4	10	nomatch	jade	-1	0	TIMEOUT	-1.0
90.643	0.0	+	12	noun	phrase	4	11	nomatch	jade	-1	0	TIMEOUT	-1.0
91.04249999999999	0.0	+	12	noun	phrase	4	12	nomatch	jade	-1	0	TIMEOUT	-1.0
93.04149999999998	0.0	JADE	12	noun	phrase	4	13	nomatch	jade	-1	0	TIMEOUT	-1.0
95.44030000000001	0.0	+	13	noun	phrase	1	1	nomatch	panier	-1	1	p	1.0313
96.03999999999999	0.2	kqhjrbd	13	noun	phrase	1	2	nomatch	panier	-1	1	p	1.0313
96.2399	0.0	+	13	noun	phrase	1	3	nomatch	panier	-1	1	p	1.0313
96.6397	0.2	nvmf	13	noun	phrase	1	4	nomatch	panier	-1	1	p	1.0313
96.83959999999999	0.0	+	13	noun	phrase	1	5	nomatch	panier	-1	1	p	1.0313
97.23949999999999	0.2	xzdl	13	noun	phrase	1	6	nomatch	panier	-1	1	p	1.0313
97.4394	0.0	+	13	noun	phrase	1	7	nomatch	panier	-1	1	p	1.0313
97.8392	0.2	xbgvhml	13	noun	phrase	1	8	nomatch	panier	-1	1	p	1.0313
98.03909999999999	0.0	+	13	noun	phrase	1	9	nomatch	panier	-1	1	p	1.0313
98.43889999999999	0.2	rocher	13	noun	phrase	1	10	nomatch	panier	-1	1	p	1.0313
98.6389	0.0	+	13	noun	phrase	1	11	nomatch	panier	-1	1	p	1.0313
99.0387	0.0	+	13	noun	phrase	1	12	nomatch	panier	-1	1	p	1.0313
101.0378	0.0	PANIER	13	noun	phrase	1	13	nomatch	panier	-1	1	p	1.0313
102.1206	0.0	+	13	noun	phrase	1	14	nomatch	panier	-1	1	p	1.0313
102.06909999999999	0.0	[response]	13	noun	phrase	1	15	nomatch	panier	-1	1	p	1.0313
103.4367	0.0	+	14	noun	phrase	2	1	match	blanc	5	1	y	0.80103
103.9865	0.2	rgpltx	14	noun	phrase	2	2	match	blanc	5	1	y	0.80103
104.18639999999999	0.0	+	14	noun	phrase	2	3	match	blanc	5	1	y	0.80103
104.60299999999998	0.2	vrzh	14	noun	phrase	2	4	match	blanc	5	1	y	0.80103
104.7867	0.0	+	14	noun	phrase	2	5	match	blanc	5	1	y	0.80103
105.186	0.2	wqp	14	noun	phrase	2	6	match	blanc	5	1	y	0.80103
105.3862	0.0	+	14	noun	phrase	2	7	match	blanc	5	1	y	0.80103
105.78639999999999	0.2	boîtier	14	noun	phrase	2	8	match	blanc	5	1	y	0.80103
105.9856	0.0	+	14	noun	phrase	2	9	match	blanc	5	1	y	0.80103
106.3854	0.2	blanc	14	noun	phrase	2	10	match	blanc	5	1	y	0.80103
106.58529999999999	0.0	+	14	noun	phrase	2	11	match	blanc	5	1	y	0.80103
106.98509999999999	0.0	+	14	noun	phrase	2	12	match	blanc	5	1	y	0.80103
108.9847	0.0	BLANC	14	noun	phrase	2	13	match	blanc	5	1	y	0.80103
109.85049999999998	0.0	+	14	noun	phrase	2	14	match	blanc	5	1	y	0.80103
109.7858	0.0	[response]	14	noun	phrase	2	15	match	blanc	5	1	y	0.80103
111.3998	0.0	+	15	noun	list	3	1	match	leur	3	1	y	0.62805
111.9497	0.2	mvhwsgq	15	noun	list	3	2	match	leur	3	1	y	0.62805
112.15019999999998	0.0	+	15	noun	list	3	3	match	leur	3	1	y	0.62805
112.54990000000001	0.2	vqf	15	noun	list	3	4	match	leur	3	1	y	0.62805
112.76659999999998	0.0	+	15	noun	list	3	5	match	leur	3	1	y	0.62805
113.149	0.2	leur	15	noun	list	3	6	match	leur	3	1	y	0.62805
113.34899999999999	0.0	+	15	noun	list	3	7	match	leur	3	1	y	0.62805
113.74879999999999	0.2	trop	15	noun	list	3	8	match	leur	3	1	y	0.62805
113.9487	0.0	+	15	noun	list	3	9	match	leur	3	1	y	0.62805
114.3485	0.2	casier	15	noun	list	3	10	match	leur	3	1	y	0.62805
114.54839999999999	0.0	+	15	noun	list	3	11	match	leur	3	1	y	0.62805
114.94819999999999	0.0	+	15	noun	list	3	12	match	leur	3	1	y	0.62805
116.94729999999998	0.0	LEUR	15	noun	list	3	13	match	leur	3	1	y	0.62805
117.63039999999998	0.0	+	15	noun	list	3	14	match	leur	3	1	y	0.62805
117.5754	0.0	[response]	15	noun	list	3	15	match	leur	3	1	y	0.62805
119.34629999999999	0.0	+	16	noun	phrase	1	1	match	voilier	5	1	y	0.73188
119.89599999999999	0.2	lxsgd	16	noun	phrase	1	2	match	voilier	5	1	y	0.73188
120.0959	0.0	+	16	noun	phrase	1	3	match	voilier	5	1	y	0.73188
120.4958	0.2	rkh	16	noun	phrase	1	4	match	voilier	5	1	y	0.73188
120.69569999999999	0.0	+	16	noun	phrase	1	5	match	voilier	5	1	y	0.73188
121.09549999999999	0.2	rdq	16	noun	phrase	1	6	match	voilier	5	1	y	0.73188
121.2954	0.0	+	16	noun	phrase	1	7	match	voilier	5	1	y	0.73188
121.71209999999999	0.2	mgvc	16	noun	phrase	1	8	match	voilier	5	1	y	0.73188
121.89589999999998	0.0	+	16	noun	phrase	1	9	match	voilier	5	1	y	0.73188
122.29499999999999	0.2	voilier	16	noun	phrase	1	10	match	voilier	5	1	y	0.73188
122.4949	0.0	+	16	noun	phrase	1	11	match	voilier	5	1	y	0.73188
122.8949	0.0	+	16	noun	phrase	1	12	match	voilier	5	1	y	0.73188
124.8938	0.0	VOILIER	16	noun	phrase	1	13	match	voilier	5	1	y	0.73188
125.6935	0.0	+	16	noun	phrase	1	14	match	voilier	5	1	y	0.73188
125.62570000000002	0.0	[response]	16	noun	phrase	1	15	match	voilier	5	1	y	0.73188
127.2927	0.0	+	17	verb	list	2	1	match	grand	4	1	y	0.68848
127.8425	0.2	pfxwh	17	verb	list	2	2	match	grand	4	1	y	0.68848
128.0424	0.0	+	17	verb	list	2	3	match	grand	4	1	y	0.68848
128.44219999999999	0.2	nvmf	17	verb	list	2	4	match	grand	4	1	y	0.68848
128.6421	0.0	+	17	verb	list	2	5	match	grand	4	1	y	0.68848
129.042	0.2	vcmh	17	verb	list	2	6	match	grand	4	1	y	0.68848
129.2588	0.0	+	17	verb	list	2	7	match	grand	4	1	y	0.68848
129.659	0.2	grand	17	verb	list	2	8	match	grand	4	1	y	0.68848
129.8416	0.0	+	17	verb	list	2	9	match	grand	4	1	y	0.68848
130.2414	0.2	plonger	17	verb	list	2	10	match	grand	4	1	y	0.68848
130.44129999999998	0.0	+	17	verb	list	2	11	match	grand	4	1	y	0.68848
130.8412	0.0	+	17	verb	list	2	12	match	grand	4	1	y	0.68848
132.8408	0.0	GRAND	17	verb	list	2	13	match	grand	4	1	y	0.68848
133.5899	0.0	+	17	verb	list	2	14	match	grand	4	1	y	0.68848
133.5293	0.0	[response]	17	verb	list	2	15	match	grand	4	1	y	0.68848
151.24869999999999	0.0	+	18	verb	phrase	3	1	match	va	3	1	y	0.53436
151.7985	0.2	rfzvhx	18	verb	phrase	3	2	match	va	3	1	y	0.53436
151.9984	0.0	+	18	verb	phrase	3	3	match	va	3	1	y	0.53436
152.3982	0.2	tgcf	18	verb	phrase	3	4	match	va	3	1	y	0.53436
152.5981	0.0	+	18	verb	phrase	3	5	match	va	3	1	y	0.53436
152.9979	0.2	va	18	verb	phrase	3	6	match	va	3	1	y	0.53436
153.1978	0.0	+	18	verb	phrase	3	7	match	va	3	1	y	0.53436
153.5977	0.2	voyager	18	verb	phrase	3	8	match	va	3	1	y	0.53436
153.8148	0.0	+	18	verb	phrase	3	9	match	va	3	1	y	0.53436
154.1976	0.2	tôt	18	verb	phrase	3	10	match	va	3	1	y	0.53436
154.39759999999998	0.0	+	18	verb	phrase	3	11	match	va	3	1	y	0.53436
154.8144	0.0	+	18	verb	phrase	3	12	match	va	3	1	y	0.53436
156.7962	0.0	VA	18	verb	phrase	3	13	match	va	3	1	y	0.53436
157.396	0.0	+	18	verb	phrase	3	14	match	va	3	1	y	0.53436
157.3306	0.0	[response]	18	verb	phrase	3	15	match	va	3	1	y	0.53436
159.1952	0.0	+	19	noun	list	1	1	nomatch	nouveau	-1	1	p	0.45137
159.7449	0.2	gxvswhr	19	noun	list	1	2	nomatch	nouveau	-1	1	p	0.45137
159.9448	0.0	+	19	noun	list	1	3	nomatch	nouveau	-1	1	p	0.45137
160.3447	0.2	nvmf	19	noun	list	1	4	nomatch	nouveau	-1	1	p	0.45137
160.5446	0.0	+	19	noun	list	1	5	nomatch	nouveau	-1	1	p	0.45137
160.9449	0.2	bzct	19	noun	list	1	6	nomatch	nouveau	-1	1	p	0.45137
161.14499999999998	0.0	+	19	noun	list	1	7	nomatch	nouveau	-1	1	p	0.45137
161.5445	0.2	czfkhd	19	noun	list	1	8	nomatch	nouveau	-1	1	p	0.45137
161.76139999999998	0.0	+	19	noun	list	1	9	nomatch	nouveau	-1	1	p	0.45137
162.1445	0.2	ainsi	19	noun	list	1	10	nomatch	nouveau	-1	1	p	0.45137
162.3438	0.0	+	19	noun	list	1	11	nomatch	nouveau	-1	1	p	0.45137
162.7436	0.0	+	19	noun	list	1	12	nomatch	nouveau	-1	1	p	0.45137
164.74269999999999	0.0	NOUVEAU	19	noun	list	1	13	nomatch	nouveau	-1	1	p	0.45137
165.2591	0.0	+	19	noun	list	1	14	nomatch	nouveau	-1	1	p	0.45137
165.1941	0.0	[response]	19	noun	list	1	15	nomatch	nouveau	-1	1	p	0.45137
167.14159999999998	0.0	+	20	noun	phrase	1	1	nomatch	bleu	-1	1	p	1.0534
167.6914	0.2	xfwtdlh	20	noun	phrase	1	2	nomatch	bleu	-1	1	p	1.0534
167.8913	0.0	+	20	noun	phrase	1	3	nomatch	bleu	-1	1	p	1.0534
168.2911	0.2	hqjx	20	noun	phrase	1	4	nomatch	bleu	-1	1	p	1.0534
168.49099999999999	0.0	+	20	noun	phrase	1	5	nomatch	bleu	-1	1	p	1.0534
168.9081	0.2	wqp	20	noun	phrase	1	6	nomatch	bleu	-1	1	p	1.0534
169.09109999999998	0.0	+	20	noun	phrase	1	7	nomatch	bleu	-1	1	p	1.0534
169.5073	0.2	trdnjzw	20	noun	phrase	1	8	nomatch	bleu	-1	1	p	1.0534
169.6909	0.0	+	20	noun	phrase	1	9	nomatch	bleu	-1	1	p	1.0534
170.09029999999998	0.2	noir	20	noun	phrase	1	10	nomatch	bleu	-1	1	p	1.0534
170.2902	0.0	+	20	noun	phrase	1	11	nomatch	bleu	-1	1	p	1.0534
170.6901	0.0	+	20	noun	phrase	1	12	nomatch	bleu	-1	1	p	1.0534
172.7064	0.0	BLEU	20	noun	phrase	1	13	nomatch	bleu	-1	1	p	1.0534
173.822	0.0	+	20	noun	phrase	1	14	nomatch	bleu	-1	1	p	1.0534
173.75979999999998	0.0	[response]	20	noun	phrase	1	15	nomatch	bleu	-1	1	p	1.0534
183.118	0.0	+	21	noun	list	4	1	match	beaucoup	4	1	y	0.90398
183.6344	0.2	fkr	21	noun	list	4	2	match	beaucoup	4	1	y	0.90398
183.83419999999998	0.0	+	21	noun	list	4	3	match	beaucoup	4	1	y	0.90398
184.23399999999998	0.2	luc	21	noun	list	4	4	match	beaucoup	4	1	y	0.90398
184.4339	0.0	+	21	noun	list	4	5	match	beaucoup	4	1	y	0.90398
184.8337	0.2	mon	21	noun	list	4	6	match	beaucoup	4	1	y	0.90398
185.03369999999998	0.0	+	21	noun	list	4	7	match	beaucoup	4	1	y	0.90398
185.43359999999998	0.2	beaucoup	21	noun	list	4	8	match	beaucoup	4	1	y	0.90398
185.65009999999998	0.0	+	21	noun	list	4	9	match	beaucoup	4	1	y	0.90398
186.0499	0.2	clavier	21	noun	list	4	10	match	beaucoup	4	1	y	0.90398
186.267	0.0	+	21	noun	list	4	11	match	beaucoup	4	1	y	0.90398
186.6498	0.0	+	21	noun	list	4	12	match	beaucoup	4	1	y	0.90398
188.6487	0.0	BEAUCOUP	21	noun	list	4	13	match	beaucoup	4	1	y	0.90398
189.6156	0.0	+	21	noun	list	4	14	match	beaucoup	4	1	y	0.90398
189.5527	0.0	[response]	21	noun	list	4	15	match	beaucoup	4	1	y	0.90398
191.0476	0.0	+	22	noun	list	4	1	nomatch	pour	-1	1	p	0.61235
191.5974	0.2	qspdf	22	noun	list	4	2	nomatch	pour	-1	1	p	0.61235
191.7973	0.0	+	22	noun	list	4	3	nomatch	pour	-1	1	p	0.61235
192.1971	0.2	adam	22	noun	list	4	4	nomatch	pour	-1	1	p	0.61235
192.397	0.0	+	22	noun	list	4	5	nomatch	pour	-1	1	p	0.61235
192.7969	0.2	leur	22	noun	list	4	6	nomatch	pour	-1	1	p	0.61235
192.9968	0.0	+	22	noun	list	4	7	nomatch	pour	-1	1	p	0.61235
193.3966	0.2	mieux	22	noun	list	4	8	nomatch	pour	-1	1	p	0.61235
193.5965	0.0	+	22	noun	list	4	9	nomatch	pour	-1	1	p	0.61235
193.99689999999998	0.2	casier	22	noun	list	4	10	nomatch	pour	-1	1	p	0.61235
194.1969	0.0	+	22	noun	list	4	11	nomatch	pour	-1	1	p	0.61235
194.5968	0.0	+	22	noun	list	4	12	nomatch	pour	-1	1	p	0.61235
196.5952	0.0	POUR	22	noun	list	4	13	nomatch	pour	-1	1	p	0.61235
197.26149999999998	0.0	+	22	noun	list	4	14	nomatch	pour	-1	1	p	0.61235
197.2075	0.0	[response]	22	noun	list	4	15	nomatch	pour	-1	1	p	0.61235
198.9941	0.0	+	23	noun	list	1	1	match	rocher	5	1	y	0.5063
199.5438	0.2	zmvnsfj	23	noun	list	1	2	match	rocher	5	1	y	0.5063
199.7438	0.0	+	23	noun	list	1	3	match	rocher	5	1	y	0.5063
200.1436	0.2	rkh	23	noun	list	1	4	match	rocher	5	1	y	0.5063
200.3435	0.0	+	23	noun	list	1	5	match	rocher	5	1	y	0.5063
200.7433	0.2	vcmh	23	noun	list	1	6	match	rocher	5	1	y	0.5063
200.9432	0.0	+	23	noun	list	1	7	match	rocher	5	1	y	0.5063
201.343	0.2	dxt	23	noun	list	1	8	match	rocher	5	1	y	0.5063
201.543	0.0	+	23	noun	list	1	9	match	rocher	5	1	y	0.5063
201.9431	0.2	rocher	23	noun	list	1	10	match	rocher	5	1	y	0.5063
202.14329999999998	0.0	+	23	noun	list	1	11	match	rocher	5	1	y	0.5063
202.5429	0.0	+	23	noun	list	1	12	match	rocher	5	1	y	0.5063
204.5416	0.0	ROCHER	23	noun	list	1	13	match	rocher	5	1	y	0.5063
205.10850000000002	0.0	+	23	noun	list	1	14	match	rocher	5	1	y	0.5063
205.0479	0.0	[response]	23	noun	list	1	15	match	rocher	5	1	y	0.5063
214.9542	0.0	+	24	verb	phrase	1	1	match	chasser	5	1	y	0.72852
215.50409999999997	0.2	ckgzwm	24	verb	phrase	1	2	match	chasser	5	1	y	0.72852
215.6872	0.0	+	24	verb	phrase	1	3	match	chasser	5	1	y	0.72852
216.10369999999998	0.2	gxnp	24	verb	phrase	1	4	match	chasser	5	1	y	0.72852
216.28709999999998	0.0	+	24	verb	phrase	1	5	match	chasser	5	1	y	0.72852
216.6862	0.2	bzct	24	verb	phrase	1	6	match	chasser	5	1	y	0.72852
216.88609999999997	0.0	+	24	verb	phrase	1	7	match	chasser	5	1	y	0.72852
217.2859	0.2	wltv	24	verb	phrase	1	8	match	chasser	5	1	y	0.72852
217.4859	0.0	+	24	verb	phrase	1	9	match	chasser	5	1	y	0.72852
217.8857	0.2	chasser	24	verb	phrase	1	10	match	chasser	5	1	y	0.72852
218.08559999999997	0.0	+	24	verb	phrase	1	11	match	chasser	5	1	y	0.72852
218.4854	0.0	+	24	verb	phrase	1	12	match	chasser	5	1	y	0.72852
220.4852	0.0	CHASSER	24	verb	phrase	1	13	match	chasser	5	1	y	0.72852
221.3008	0.0	+	24	verb	phrase	1	14	match	chasser	5	1	y	0.72852
221.2137	0.0	[response]	24	verb	phrase	1	15	match	chasser	5	1	y	0.72852
230.8966	0.0	+	25	verb	phrase	2	1	match	plonger	4	1	y	0.56248
231.44629999999998	0.2	hpqnz	25	verb	phrase	2	2	match	plonger	4	1	y	0.56248
231.6462	0.0	+	25	verb	phrase	2	3	match	plonger	4	1	y	0.56248
232.0465	0.2	gpqk	25	verb	phrase	2	4	match	plonger	4	1	y	0.56248
232.24620000000002	0.0	+	25	verb	phrase	2	5	match	plonger	4	1	y	0.56248
232.64649999999997	0.2	vcmh	25	verb	phrase	2	6	match	plonger	4	1	y	0.56248
232.84619999999998	0.0	+	25	verb	phrase	2	7	match	plonger	4	1	y	0.56248
233.24550000000002	0.2	plonger	25	verb	phrase	2	8	match	plonger	4	1	y	0.56248
233.44539999999998	0.0	+	25	verb	phrase	2	9	match	plonger	4	1	y	0.56248
233.8452	0.2	loin	25	verb	phrase	2	10	match	plonger	4	1	y	0.56248
234.04510000000002	0.0	+	25	verb	phrase	2	11	match	plonger	4	1	y	0.56248
234.44500000000002	0.0	+	25	verb	phrase	2	12	match	plonger	4	1	y	0.56248
236.44410000000002	0.0	PLONGER	25	verb	phrase	2	13	match	plonger	4	1	y	0.56248
237.11069999999998	0.0	+	25	verb	phrase	2	14	match	plonger	4	1	y	0.56248
237.0065	0.0	[response]	25	verb	phrase	2	15	match	plonger	4	1	y	0.56248
246.85639999999998	0.0	+	26	noun	list	3	1	nomatch	noir	-1	1	p	0.56752
247.40630000000002	0.2	qsbprnj	26	noun	list	3	2	nomatch	noir	-1	1	p	0.56752
247.6061	0.0	+	26	noun	list	3	3	nomatch	noir	-1	1	p	0.56752
247.98889999999997	0.2	ctdq	26	noun	list	3	4	nomatch	noir	-1	1	p	0.56752
248.1888	0.0	+	26	noun	list	3	5	nomatch	noir	-1	1	p	0.56752
248.5887	0.2	peut	26	noun	list	3	6	nomatch	noir	-1	1	p	0.56752
248.7886	0.0	+	26	noun	list	3	7	nomatch	noir	-1	1	p	0.56752
249.18839999999997	0.2	sablier	26	noun	list	3	8	nomatch	noir	-1	1	p	0.56752
249.3883	0.0	+	26	noun	list	3	9	nomatch	noir	-1	1	p	0.56752
249.78810000000001	0.2	tard	26	noun	list	3	10	nomatch	noir	-1	1	p	0.56752
249.98799999999997	0.0	+	26	noun	list	3	11	nomatch	noir	-1	1	p	0.56752
250.3885	0.0	+	26	noun	list	3	12	nomatch	noir	-1	1	p	0.56752
252.38699999999997	0.0	NOIR	26	noun	list	3	13	nomatch	noir	-1	1	p	0.56752
253.02	0.0	+	26	noun	list	3	14	nomatch	noir	-1	1	p	0.56752
252.95450000000002	0.0	[response]	26	noun	list	3	15	nomatch	noir	-1	1	p	0.56752
270.8122	0.0	+	27	noun	list	1	1	nomatch	marc	-1	1	p	0.45761
271.34520000000003	0.2	gvlrnwk	27	noun	list	1	2	nomatch	marc	-1	1	p	0.45761
271.54510000000005	0.0	+	27	noun	list	1	3	nomatch	marc	-1	1	p	0.45761
271.9449	0.2	gtzv	27	noun	list	1	4	nomatch	marc	-1	1	p	0.45761
272.14480000000003	0.0	+	27	noun	list	1	5	nomatch	marc	-1	1	p	0.45761
272.5446	0.2	xzdl	27	noun	list	1	6	nomatch	marc	-1	1	p	0.45761
272.74460000000005	0.0	+	27	noun	list	1	7	nomatch	marc	-1	1	p	0.45761
273.1444	0.2	brkds	27	noun	list	1	8	nomatch	marc	-1	1	p	0.45761
273.34430000000003	0.0	+	27	noun	list	1	9	nomatch	marc	-1	1	p	0.45761
273.7441	0.2	boîtier	27	noun	list	1	10	nomatch	marc	-1	1	p	0.45761
273.944	0.0	+	27	noun	list	1	11	nomatch	marc	-1	1	p	0.45761
274.34380000000004	0.0	+	27	noun	list	1	12	nomatch	marc	-1	1	p	0.45761
276.34290000000004	0.0	MARC	27	noun	list	1	13	nomatch	marc	-1	1	p	0.45761
276.85940000000005	0.0	+	27	noun	list	1	14	nomatch	marc	-1	1	p	0.45761
276.80050000000006	0.0	[response]	27	noun	list	1	15	nomatch	marc	-1	1	p	0.45761
278.74190000000004	0.0	+	28	noun	list	2	1	match	plus	4	1	y	0.5994300000000001
279.2916	0.2	mqldn	28	noun	list	2	2	match	plus	4	1	y	0.5994300000000001
279.49150000000003	0.0	+	28	noun	list	2	3	match	plus	4	1	y	0.5994300000000001
279.8919	0.2	zndv	28	noun	list	2	4	match	plus	4	1	y	0.5994300000000001
280.0916	0.0	+	28	noun	list	2	5	match	plus	4	1	y	0.5994300000000001
280.4918	0.2	rdq	28	noun	list	2	6	match	plus	4	1	y	0.5994300000000001
280.6916	0.0	+	28	noun	list	2	7	match	plus	4	1	y	0.5994300000000001
281.0908	0.2	plus	28	noun	list	2	8	match	plus	4	1	y	0.5994300000000001
281.2907	0.0	+	28	noun	list	2	9	match	plus	4	1	y	0.5994300000000001
281.6906	0.2	tablier	28	noun	list	2	10	match	plus	4	1	y	0.5994300000000001
281.89050000000003	0.0	+	28	noun	list	2	11	match	plus	4	1	y	0.5994300000000001
282.2903	0.0	+	28	noun	list	2	12	match	plus	4	1	y	0.5994300000000001
284.2894	0.0	PLUS	28	noun	list	2	13	match	plus	4	1	y	0.5994300000000001
284.9558	0.0	+	28	noun	list	2	14	match	plus	4	1	y	0.5994300000000001
284.8888	0.0	[response]	28	noun	list	2	15	match	plus	4	1	y	0.5994300000000001
286.6883	0.0	+	29	noun	phrase	3	1	match	son	3	1	y	0.68902
287.23810000000003	0.2	mfkv	29	noun	phrase	3	2	match	son	3	1	y	0.68902
287.4386	0.0	+	29	noun	phrase	3	3	match	son	3	1	y	0.68902
287.8381	0.2	jqbv	29	noun	phrase	3	4	match	son	3	1	y	0.68902
288.03810000000004	0.0	+	29	noun	phrase	3	5	match	son	3	1	y	0.68902
288.43760000000003	0.2	son	29	noun	phrase	3	6	match	son	3	1	y	0.68902
288.63750000000005	0.0	+	29	noun	phrase	3	7	match	son	3	1	y	0.68902
289.0373	0.2	petit	29	noun	phrase	3	8	match	son	3	1	y	0.68902
289.23720000000003	0.0	+	29	noun	phrase	3	9	match	son	3	1	y	0.68902
289.637	0.2	casier	29	noun	phrase	3	10	match	son	3	1	y	0.68902
289.8369	0.0	+	29	noun	phrase	3	11	match	son	3	1	y	0.68902
290.254	0.0	+	29	noun	phrase	3	12	match	son	3	1	y	0.68902
292.2359	0.0	SON	29	noun	phrase	3	13	match	son	3	1	y	0.68902
292.9855	0.0	+	29	noun	phrase	3	14	match	son	3	1	y	0.68902
292.92490000000004	0.0	[response]	29	noun	phrase	3	15	match	son	3	1	y	0.68902
310.6616	0.0	+	30	verb	phrase	3	1	nomatch	vers	-1	1	p	0.6179200000000001
311.19480000000004	0.2	hpkg	30	verb	phrase	3	2	nomatch	vers	-1	1	p	0.6179200000000001
311.394	0.0	+	30	verb	phrase	3	3	nomatch	vers	-1	1	p	0.6179200000000001
311.79380000000003	0.2	qsdf	30	verb	phrase	3	4	nomatch	vers	-1	1	p	0.6179200000000001
311.99370000000005	0.0	+	30	verb	phrase	3	5	nomatch	vers	-1	1	p	0.6179200000000001
312.3935	0.2	doit	30	verb	phrase	3	6	nomatch	vers	-1	1	p	0.6179200000000001
312.59340000000003	0.0	+	30	verb	phrase	3	7	nomatch	vers	-1	1	p	0.6179200000000001
312.99330000000003	0.2	plonger	30	verb	phrase	3	8	nomatch	vers	-1	1	p	0.6179200000000001
313.19320000000005	0.0	+	30	verb	phrase	3	9	nomatch	vers	-1	1	p	0.6179200000000001
313.593	0.2	loin	30	verb	phrase	3	10	nomatch	vers	-1	1	p	0.6179200000000001
313.79290000000003	0.0	+	30	verb	phrase	3	11	nomatch	vers	-1	1	p	0.6179200000000001
314.1927	0.0	+	30	verb	phrase	3	12	nomatch	vers	-1	1	p	0.6179200000000001
316.1918	0.0	VERS	30	verb	phrase	3	13	nomatch	vers	-1	1	p	0.6179200000000001
316.8749	0.0	+	30	verb	phrase	3	14	nomatch	vers	-1	1	p	0.6179200000000001
316.8098	0.0	[response]	30	verb	phrase	3	15	nomatch	vers	-1	1	p	0.6179200000000001
318.5908	0.0	+	31	noun	list	2	1	match	boîtier	4	1	y	1.4701
319.14050000000003	0.2	lxkjb	31	noun	list	2	2	match	boîtier	4	1	y	1.4701
319.34040000000005	0.0	+	31	noun	list	2	3	match	boîtier	4	1	y	1.4701
319.75710000000004	0.2	vrzh	31	noun	list	2	4	match	boîtier	4	1	y	1.4701
319.9574	0.0	+	31	noun	list	2	5	match	boîtier	4	1	y	1.4701
320.34020000000004	0.2	vcmh	31	noun	list	2	6	match	boîtier	4	1	y	1.4701
320.55670000000003	0.0	+	31	noun	list	2	7	match	boîtier	4	1	y	1.4701
320.95700000000005	0.2	boîtier	31	noun	list	2	8	match	boîtier	4	1	y	1.4701
321.13960000000003	0.0	+	31	noun	list	2	9	match	boîtier	4	1	y	1.4701
321.53950000000003	0.2	tôt	31	noun	list	2	10	match	boîtier	4	1	y	1.4701
321.73940000000005	0.0	+	31	noun	list	2	11	match	boîtier	4	1	y	1.4701
322.1392	0.0	+	31	noun	list	2	12	match	boîtier	4	1	y	1.4701
324.1383	0.0	BOÎTIER	31	noun	list	2	13	match	boîtier	4	1	y	1.4701
325.6709	0.0	+	31	noun	list	2	14	match	boîtier	4	1	y	1.4701
325.6084000000001	0.0	[response]	31	noun	list	2	15	match	boîtier	4	1	y	1.4701
326.53720000000004	0.0	+	32	noun	list	3	1	nomatch	trop	-1	1	p	1.0387
327.08700000000005	0.2	sxl	32	noun	list	3	2	nomatch	trop	-1	1	p	1.0387
327.2869	0.0	+	32	noun	list	3	3	nomatch	trop	-1	1	p	1.0387
327.68670000000003	0.2	hrms	32	noun	list	3	4	nomatch	trop	-1	1	p	1.0387
327.88660000000004	0.0	+	32	noun	list	3	5	nomatch	trop	-1	1	p	1.0387
328.28650000000005	0.2	peut	32	noun	list	3	6	nomatch	trop	-1	1	p	1.0387
328.4864	0.0	+	32	noun	list	3	7	nomatch	trop	-1	1	p	1.0387
328.88620000000003	0.2	voilier	32	noun	list	3	8	nomatch	trop	-1	1	p	1.0387
329.08610000000004	0.0	+	32	noun	list	3	9	nomatch	trop	-1	1	p	1.0387
329.4859	0.2	vite	32	noun	list	3	10	nomatch	trop	-1	1	p	1.0387
329.68620000000004	0.0	+	32	noun	list	3	11	nomatch	trop	-1	1	p	1.0387
330.1025	0.0	+	32	noun	list	3	12	nomatch	trop	-1	1	p	1.0387
332.08480000000003	0.0	TROP	32	noun	list	3	13	nomatch	trop	-1	1	p	1.0387
333.1843	0.0	+	32	noun	list	3	14	nomatch	trop	-1	1	p	1.0387
333.12350000000004	0.0	[response]	32	noun	list	3	15	nomatch	trop	-1	1	p	1.0387
334.4837	0.0	+	33	noun	list	2	1	nomatch	sablier	-1	1	p	1.7212
335.05010000000004	0.2	pcxlfb	33	noun	list	2	2	nomatch	sablier	-1	1	p	1.7212
335.25	0.0	+	33	noun	list	2	3	nomatch	sablier	-1	1	p	1.7212
335.6498	0.2	gxnp	33	noun	list	2	4	nomatch	sablier	-1	1	p	1.7212
335.8505	0.0	+	33	noun	list	2	5	nomatch	sablier	-1	1	p	1.7212
336.2667	0.2	wqp	33	noun	list	2	6	nomatch	sablier	-1	1	p	1.7212
336.4497	0.0	+	33	noun	list	2	7	nomatch	sablier	-1	1	p	1.7212
336.84990000000005	0.2	moins	33	noun	list	2	8	nomatch	sablier	-1	1	p	1.7212
337.0498	0.0	+	33	noun	list	2	9	nomatch	sablier	-1	1	p	1.7212
337.449	0.2	casier	33	noun	list	2	10	nomatch	sablier	-1	1	p	1.7212
337.6489	0.0	+	33	noun	list	2	11	nomatch	sablier	-1	1	p	1.7212
338.0488	0.0	+	33	noun	list	2	12	nomatch	sablier	-1	1	p	1.7212
340.0479	0.0	SABLIER	33	noun	list	2	13	nomatch	sablier	-1	1	p	1.7212
341.8304	0.0	+	33	noun	list	2	14	nomatch	sablier	-1	1	p	1.7212
341.76910000000004	0.0	[response]	33	noun	list	2	15	nomatch	sablier	-1	1	p	1.7212
342.4468	0.0	+	34	noun	list	4	1	match	mon	3	1	y	0.76169
342.9966	0.2	kmsc	34	noun	list	4	2	match	mon	3	1	y	0.76169
343.1965	0.0	+	34	noun	list	4	3	match	mon	3	1	y	0.76169
343.59630000000004	0.2	marc	34	noun	list	4	4	match	mon	3	1	y	0.76169
343.79690000000005	0.0	+	34	noun	list	4	5	match	mon	3	1	y	0.76169
344.1961	0.2	mon	34	noun	list	4	6	match	mon	3	1	y	0.76169
344.39660000000003	0.0	+	34	noun	list	4	7	match	mon	3	1	y	0.76169
344.7961	0.2	plus	34	noun	list	4	8	match	mon	3	1	y	0.76169
344.9957	0.0	+	34	noun	list	4	9	match	mon	3	1	y	0.76169
345.3955	0.2	boîtier	34	noun	list	4	10	match	mon	3	1	y	0.76169
345.59540000000004	0.0	+	34	noun	list	4	11	match	mon	3	1	y	0.76169
345.9952	0.0	+	34	noun	list	4	12	match	mon	3	1	y	0.76169
347.9943	0.0	MON	34	noun	list	4	13	match	mon	3	1	y	0.76169
348.8106	0.0	+	34	noun	list	4	14	match	mon	3	1	y	0.76169
348.75600000000003	0.0	[response]	34	noun	list	4	15	match	mon	3	1	y	0.76169
350.3933	0.0	+	35	noun	phrase	1	1	nomatch	clavier	-1	1	p	0.70042
350.94300000000004	0.2	chmvjfn	35	noun	phrase	1	2	nomatch	clavier	-1	1	p	0.70042
351.1429	0.0	+	35	noun	phrase	1	3	nomatch	clavier	-1	1	p	0.70042
351.543	0.2	nvmf	35	noun	phrase	1	4	nomatch	clavier	-1	1	p	0.70042
351.7429	0.0	+	35	noun	phrase	1	5	nomatch	clavier	-1	1	p	0.70042
352.14250000000004	0.2	rdq	35	noun	phrase	1	6	nomatch	clavier	-1	1	p	0.70042
352.3424	0.0	+	35	noun	phrase	1	7	nomatch	clavier	-1	1	p	0.70042
352.7422	0.2	cvqgt	35	noun	phrase	1	8	nomatch	clavier	-1	1	p	0.70042
352.94210000000004	0.0	+	35	noun	phrase	1	9	nomatch	clavier	-1	1	p	0.70042
353.34200000000004	0.2	voilier	35	noun	phrase	1	10	nomatch	clavier	-1	1	p	0.70042
353.5418	0.0	+	35	noun	phrase	1	11	nomatch	clavier	-1	1	p	0.70042
353.9417	0.0	+	35	noun	phrase	1	12	nomatch	clavier	-1	1	p	0.70042
355.9408	0.0	CLAVIER	35	noun	phrase	1	13	nomatch	clavier	-1	1	p	0.70042
356.7071	0.0	+	35	noun	phrase	1	14	nomatch	clavier	-1	1	p	0.70042
356.6413	0.0	[response]	35	noun	phrase	1	15	nomatch	clavier	-1	1	p	0.70042
358.33970000000005	0.0	+	36	noun	list	4	1	match	sous	2	1	y	0.39873
358.8895	0.2	wlvj	36	noun	list	4	2	match	sous	2	1	y	0.39873
359.0894	0.0	+	36	noun	list	4	3	match	sous	2	1	y	0.39873
359.48920000000004	0.2	sous	36	noun	list	4	4	match	sous	2	1	y	0.39873
359.6891	0.0	+	36	noun	list	4	5	match	sous	2	1	y	0.39873
360.08970000000005	0.2	peut	36	noun	list	4	6	match	sous	2	1	y	0.39873
360.2889	0.0	+	36	noun	list	4	7	match	sous	2	1	y	0.39873
360.68870000000004	0.2	casier	36	noun	list	4	8	match	sous	2	1	y	0.39873
360.90560000000005	0.0	+	36	noun	list	4	9	match	sous	2	1	y	0.39873
361.2884	0.2	ainsi	36	noun	list	4	10	match	sous	2	1	y	0.39873
361.48830000000004	0.0	+	36	noun	list	4	11	match	sous	2	1	y	0.39873
361.8881	0.0	+	36	noun	list	4	12	match	sous	2	1	y	0.39873
363.8872	0.0	SOUS	36	noun	list	4	13	match	sous	2	1	y	0.39873
364.3537	0.0	+	36	noun	list	4	14	match	sous	2	1	y	0.39873
364.28600000000006	0.0	[response]	36	noun	list	4	15	match	sous	2	1	y	0.39873
366.2862	0.0	+	37	verb	list	3	1	nomatch	sur	-1	1	p	0.64331
366.836	0.2	dpwn	37	verb	list	3	2	nomatch	sur	-1	1	p	0.64331
367.0358	0.0	+	37	verb	list	3	3	nomatch	sur	-1	1	p	0.64331
367.4357	0.2	nvmf	37	verb	list	3	4	nomatch	sur	-1	1	p	0.64331
367.6356	0.0	+	37	verb	list	3	5	nomatch	sur	-1	1	p	0.64331
368.03540000000004	0.2	doit	37	verb	list	3	6	nomatch	sur	-1	1	p	0.64331
368.2353	0.0	+	37	verb	list	3	7	nomatch	sur	-1	1	p	0.64331
368.6351	0.2	nouveau	37	verb	list	3	8	nomatch	sur	-1	1	p	0.64331
368.83500000000004	0.0	+	37	verb	list	3	9	nomatch	sur	-1	1	p	0.64331
369.2354	0.2	patiner	37	verb	list	3	10	nomatch	sur	-1	1	p	0.64331
369.435	0.0	+	37	verb	list	3	11	nomatch	sur	-1	1	p	0.64331
369.8353	0.0	+	37	verb	list	3	12	nomatch	sur	-1	1	p	0.64331
371.8337	0.0	SUR	37	verb	list	3	13	nomatch	sur	-1	1	p	0.64331
372.53340000000003	0.0	+	37	verb	list	3	14	nomatch	sur	-1	1	p	0.64331
372.47700000000003	0.0	[response]	37	verb	list	3	15	nomatch	sur	-1	1	p	0.64331
374.2493	0.0	+	38	noun	list	1	1	match	tôt	5	1	y	1.1225
374.79900000000004	0.2	pjfsvgl	38	noun	list	1	2	match	tôt	5	1	y	1.1225
374.999	0.0	+	38	noun	list	1	3	match	tôt	5	1	y	1.1225
375.39910000000003	0.2	ctdq	38	noun	list	1	4	match	tôt	5	1	y	1.1225
375.61600000000004	0.0	+	38	noun	list	1	5	match	tôt	5	1	y	1.1225
375.99850000000004	0.2	bzct	38	noun	list	1	6	match	tôt	5	1	y	1.1225
376.19840000000005	0.0	+	38	noun	list	1	7	match	tôt	5	1	y	1.1225
376.5982	0.2	xjplbd	38	noun	list	1	8	match	tôt	5	1	y	1.1225
376.79810000000003	0.0	+	38	noun	list	1	9	match	tôt	5	1	y	1.1225
377.19800000000004	0.2	tôt	38	noun	list	1	10	match	tôt	5	1	y	1.1225
377.39790000000005	0.0	+	38	noun	list	1	11	match	tôt	5	1	y	1.1225
377.7977	0.0	+	38	noun	list	1	12	match	tôt	5	1	y	1.1225
379.7968	0.0	TÔT	38	noun	list	1	13	match	tôt	5	1	y	1.1225
380.9796	0.0	+	38	noun	list	1	14	match	tôt	5	1	y	1.1225
380.9193	0.0	[response]	38	noun	list	1	15	match	tôt	5	1	y	1.1225
382.19570000000004	0.0	+	39	noun	phrase	3	1	nomatch	moins	-1	1	p	0.57255
382.74550000000005	0.2	kxz	39	noun	phrase	3	2	nomatch	moins	-1	1	p	0.57255
382.9454	0.0	+	39	noun	phrase	3	3	nomatch	moins	-1	1	p	0.57255
383.34520000000003	0.2	nvmf	39	noun	phrase	3	4	nomatch	moins	-1	1	p	0.57255
383.5452	0.0	+	39	noun	phrase	3	5	nomatch	moins	-1	1	p	0.57255
383.94500000000005	0.2	leur	39	noun	phrase	3	6	nomatch	moins	-1	1	p	0.57255
384.1449	0.0	+	39	noun	phrase	3	7	nomatch	moins	-1	1	p	0.57255
384.545	0.2	grand	39	noun	phrase	3	8	nomatch	moins	-1	1	p	0.57255
384.7615	0.0	+	39	noun	phrase	3	9	nomatch	moins	-1	1	p	0.57255
385.1444	0.2	boîtier	39	noun	phrase	3	10	nomatch	moins	-1	1	p	0.57255
385.34430000000003	0.0	+	39	noun	phrase	3	11	nomatch	moins	-1	1	p	0.57255
385.74420000000003	0.0	+	39	noun	phrase	3	12	nomatch	moins	-1	1	p	0.57255
387.7601	0.0	MOINS	39	noun	phrase	3	13	nomatch	moins	-1	1	p	0.57255
388.39300000000003	0.0	+	39	noun	phrase	3	14	nomatch	moins	-1	1	p	0.57255
388.3326	0.0	[response]	39	noun	phrase	3	15	nomatch	moins	-1	1	p	0.57255
390.1422	0.0	+	40	noun	phrase	1	1	match	bleu	5	1	y	0.74532
390.692	0.2	xchtpmz	40	noun	phrase	1	2	match	bleu	5	1	y	0.74532
390.8919	0.0	+	40	noun	phrase	1	3	match	bleu	5	1	y	0.74532
391.29170000000005	0.2	rkh	40	noun	phrase	1	4	match	bleu	5	1	y	0.74532
391.49210000000005	0.0	+	40	noun	phrase	1	5	match	bleu	5	1	y	0.74532
391.89180000000005	0.2	rdq	40	noun	phrase	1	6	match	bleu	5	1	y	0.74532
392.09200000000004	0.0	+	40	noun	phrase	1	7	match	bleu	5	1	y	0.74532
392.49120000000005	0.2	xshgznc	40	noun	phrase	1	8	match	bleu	5	1	y	0.74532
392.6911	0.0	+	40	noun	phrase	1	9	match	bleu	5	1	y	0.74532
393.09110000000004	0.2	bleu	40	noun	phrase	1	10	match	bleu	5	1	y	0.74532
393.30760000000004	0.0	+	40	noun	phrase	1	11	match	bleu	5	1	y	0.74532
393.69120000000004	0.0	+	40	noun	phrase	1	12	match	bleu	5	1	y	0.74532
395.6902	0.0	BLEU	40	noun	phrase	1	13	match	bleu	5	1	y	0.74532
396.48940000000005	0.0	+	40	noun	phrase	1	14	match	bleu	5	1	y	0.74532
396.4356	0.0	[response]	40	noun	phrase	1	15	match	bleu	5	1	y	0.74532
398.0887	0.0	+	41	noun	phrase	4	1	nomatch	vieux	-1	0	TIMEOUT	-1.0
398.6385	0.2	fnjw	41	noun	phrase	4	2	nomatch	vieux	-1	0	TIMEOUT	-1.0
398.8383	0.0	+	41	noun	phrase	4	3	nomatch	vieux	-1	0	TIMEOUT	-1.0
399.2382	0.2	dans	41	noun	phrase	4	4	nomatch	vieux	-1	0	TIMEOUT	-1.0
399.4381	0.0	+	41	noun	phrase	4	5	nomatch	vieux	-1	0	TIMEOUT	-1.0
399.83790000000005	0.2	mon	41	noun	phrase	4	6	nomatch	vieux	-1	0	TIMEOUT	-1.0
400.0385	0.0	+	41	noun	phrase	4	7	nomatch	vieux	-1	0	TIMEOUT	-1.0
400.4377	0.2	grand	41	noun	phrase	4	8	nomatch	vieux	-1	0	TIMEOUT	-1.0
400.6378	0.0	+	41	noun	phrase	4	9	nomatch	vieux	-1	0	TIMEOUT	-1.0
401.03810000000004	0.2	voilier	41	noun	phrase	4	10	nomatch	vieux	-1	0	TIMEOUT	-1.0
401.2379	0.0	+	41	noun	phrase	4	11	nomatch	vieux	-1	0	TIMEOUT	-1.0
401.63710000000003	0.0	+	41	noun	phrase	4	12	nomatch	vieux	-1	0	TIMEOUT	-1.0
403.63620000000003	0.0	VIEUX	41	noun	phrase	4	13	nomatch	vieux	-1	0	TIMEOUT	-1.0
406.0351	0.0	+	42	verb	list	1	1	match	rouler	5	1	y	0.54391
406.6349	0.2	ckjqgv	42	verb	list	1	2	match	rouler	5	1	y	0.54391
406.83480000000003	0.0	+	42	verb	list	1	3	match	rouler	5	1	y	0.54391
407.2346	0.2	jqbv	42	verb	list	1	4	match	rouler	5	1	y	0.54391
407.4345	0.0	+	42	verb	list	1	5	match	rouler	5	1	y	0.54391
407.83500000000004	0.2	vcmh	42	verb	list	1	6	match	rouler	5	1	y	0.54391
408.05150000000003	0.0	+	42	verb	list	1	7	match	rouler	5	1	y	0.54391
408.451	0.2	cvqgt	42	verb	list	1	8	match	rouler	5	1	y	0.54391
408.6512	0.0	+	42	verb	list	1	9	match	rouler	5	1	y	0.54391
409.03380000000004	0.2	rouler	42	verb	list	1	10	match	rouler	5	1	y	0.54391
409.2337	0.0	+	42	verb	list	1	11	match	rouler	5	1	y	0.54391
409.6336	0.0	+	42	verb	list	1	12	match	rouler	5	1	y	0.54391
411.64930000000004	0.0	ROULER	42	verb	list	1	13	match	rouler	5	1	y	0.54391
412.2826	0.0	+	42	verb	list	1	14	match	rouler	5	1	y	0.54391
412.19320000000005	0.0	[response]	42	verb	list	1	15	match	rouler	5	1	y	0.54391
414.0482	0.0	+	43	noun	phrase	4	1	nomatch	doit	-1	1	p	0.9303300000000001
414.598	0.2	xwlpqt	43	noun	phrase	4	2	nomatch	doit	-1	1	p	0.9303300000000001
414.7979	0.0	+	43	noun	phrase	4	3	nomatch	doit	-1	1	p	0.9303300000000001
415.19780000000003	0.2	avec	43	noun	phrase	4	4	nomatch	doit	-1	1	p	0.9303300000000001
415.3983	0.0	+	43	noun	phrase	4	5	nomatch	doit	-1	1	p	0.9303300000000001
415.8143	0.2	son	43	noun	phrase	4	6	nomatch	doit	-1	1	p	0.9303300000000001
415.9973	0.0	+	43	noun	phrase	4	7	nomatch	doit	-1	1	p	0.9303300000000001
416.3972	0.2	petit	43	noun	phrase	4	8	nomatch	doit	-1	1	p	0.9303300000000001
416.5971	0.0	+	43	noun	phrase	4	9	nomatch	doit	-1	1	p	0.9303300000000001
416.99690000000004	0.2	panier	43	noun	phrase	4	10	nomatch	doit	-1	1	p	0.9303300000000001
417.1968	0.0	+	43	noun	phrase	4	11	nomatch	doit	-1	1	p	0.9303300000000001
417.5966	0.0	+	43	noun	phrase	4	12	nomatch	doit	-1	1	p	0.9303300000000001
419.5957	0.0	DOIT	43	noun	phrase	4	13	nomatch	doit	-1	1	p	0.9303300000000001
420.5786	0.0	+	43	noun	phrase	4	14	nomatch	doit	-1	1	p	0.9303300000000001
420.52610000000004	0.0	[response]	43	noun	phrase	4	15	nomatch	doit	-1	1	p	0.9303300000000001
429.9911	0.0	+	44	verb	phrase	4	1	nomatch	galoper	-1	1	p	0.8413400000000001
430.5409	0.2	fhqcrzx	44	verb	phrase	4	2	nomatch	galoper	-1	1	p	0.8413400000000001
430.74080000000004	0.0	+	44	verb	phrase	4	3	nomatch	galoper	-1	1	p	0.8413400000000001
431.1413	0.2	jean	44	verb	phrase	4	4	nomatch	galoper	-1	1	p	0.8413400000000001
431.35740000000004	0.0	+	44	verb	phrase	4	5	nomatch	galoper	-1	1	p	0.8413400000000001
431.7411	0.2	peut	44	verb	phrase	4	6	nomatch	galoper	-1	1	p	0.8413400000000001
431.9406	0.0	+	44	verb	phrase	4	7	nomatch	galoper	-1	1	p	0.8413400000000001
432.3401	0.2	trop	44	verb	phrase	4	8	nomatch	galoper	-1	1	p	0.8413400000000001
432.54	0.0	+	44	verb	phrase	4	9	nomatch	galoper	-1	1	p	0.8413400000000001
432.93980000000005	0.2	nager	44	verb	phrase	4	10	nomatch	galoper	-1	1	p	0.8413400000000001
433.1397	0.0	+	44	verb	phrase	4	11	nomatch	galoper	-1	1	p	0.8413400000000001
433.53950000000003	0.0	+	44	verb	phrase	4	12	nomatch	galoper	-1	1	p	0.8413400000000001
435.53860000000003	0.0	GALOPER	44	verb	phrase	4	13	nomatch	galoper	-1	1	p	0.8413400000000001
436.48830000000004	0.0	+	44	verb	phrase	4	14	nomatch	galoper	-1	1	p	0.8413400000000001
436.38000000000005	0.0	[response]	44	verb	phrase	4	15	nomatch	galoper	-1	1	p	0.8413400000000001
437.9714	0.0	+	45	noun	list	1	1	nomatch	moins	-1	1	p	0.8269400000000001
438.48780000000005	0.2	zxkdr	45	noun	list	1	2	nomatch	moins	-1	1	p	0.8269400000000001
438.68760000000003	0.0	+	45	noun	list	1	3	nomatch	moins	-1	1	p	0.8269400000000001
439.0876	0.2	tgcf	45	noun	list	1	4	nomatch	moins	-1	1	p	0.8269400000000001
439.28700000000003	0.0	+	45	noun	list	1	5	nomatch	moins	-1	1	p	0.8269400000000001
439.6868	0.2	wqp	45	noun	list	1	6	nomatch	moins	-1	1	p	0.8269400000000001
439.8867	0.0	+	45	noun	list	1	7	nomatch	moins	-1	1	p	0.8269400000000001
440.2871	0.2	kgcwht	45	noun	list	1	8	nomatch	moins	-1	1	p	0.8269400000000001
440.4868	0.0	+	45	noun	list	1	9	nomatch	moins	-1	1	p	0.8269400000000001
440.8865	0.2	beaucoup	45	noun	list	1	10	nomatch	moins	-1	1	p	0.8269400000000001
441.0862	0.0	+	45	noun	list	1	11	nomatch	moins	-1	1	p	0.8269400000000001
441.48600000000005	0.0	+	45	noun	list	1	12	nomatch	moins	-1	1	p	0.8269400000000001
443.48510000000005	0.0	MOINS	45	noun	list	1	13	nomatch	moins	-1	1	p	0.8269400000000001
444.368	0.0	+	45	noun	list	1	14	nomatch	moins	-1	1	p	0.8269400000000001
444.312	0.0	[response]	45	noun	list	1	15	nomatch	moins	-1	1	p	0.8269400000000001
445.884	0.0	+	46	verb	list	3	1	nomatch	doit	-1	1	p	0.66333
446.4338	0.2	vrhfl	46	verb	list	3	2	nomatch	doit	-1	1	p	0.66333
446.63370000000003	0.0	+	46	verb	list	3	3	nomatch	doit	-1	1	p	0.66333
447.03360000000004	0.2	jqbv	46	verb	list	3	4	nomatch	doit	-1	1	p	0.66333
447.25010000000003	0.0	+	46	verb	list	3	5	nomatch	doit	-1	1	p	0.66333
447.6499	0.2	peut	46	verb	list	3	6	nomatch	doit	-1	1	p	0.66333
447.8505	0.0	+	46	verb	list	3	7	nomatch	doit	-1	1	p	0.66333
448.25	0.2	petit	46	verb	list	3	8	nomatch	doit	-1	1	p	0.66333
448.4669	0.0	+	46	verb	list	3	9	nomatch	doit	-1	1	p	0.66333
448.86670000000004	0.2	plonger	46	verb	list	3	10	nomatch	doit	-1	1	p	0.66333
449.0493	0.0	+	46	verb	list	3	11	nomatch	doit	-1	1	p	0.66333
449.44910000000004	0.0	+	46	verb	list	3	12	nomatch	doit	-1	1	p	0.66333
451.4486	0.0	DOIT	46	verb	list	3	13	nomatch	doit	-1	1	p	0.66333
452.16450000000003	0.0	+	46	verb	list	3	14	nomatch	doit	-1	1	p	0.66333
452.11190000000005	0.0	[response]	46	verb	list	3	15	nomatch	doit	-1	1	p	0.66333
453.8471	0.0	+	47	verb	list	4	1	nomatch	paul	-1	1	p	0.57086
454.3969	0.2	cjzfxmv	47	verb	list	4	2	nomatch	paul	-1	1	p	0.57086
454.59680000000003	0.0	+	47	verb	list	4	3	nomatch	paul	-1	1	p	0.57086
454.9966	0.2	luc	47	verb	list	4	4	nomatch	paul	-1	1	p	0.57086
455.1965	0.0	+	47	verb	list	4	5	nomatch	paul	-1	1	p	0.57086
455.5969	0.2	mon	47	verb	list	4	6	nomatch	paul	-1	1	p	0.57086
455.7964	0.0	+	47	verb	list	4	7	nomatch	paul	-1	1	p	0.57086
456.1961	0.2	patiner	47	verb	list	4	8	nomatch	paul	-1	1	p	0.57086
456.39610000000005	0.0	+	47	verb	list	4	9	nomatch	paul	-1	1	p	0.57086
456.7959	0.2	bleu	47	verb	list	4	10	nomatch	paul	-1	1	p	0.57086
456.9959	0.0	+	47	verb	list	4	11	nomatch	paul	-1	1	p	0.57086
457.41290000000004	0.0	+	47	verb	list	4	12	nomatch	paul	-1	1	p	0.57086
459.3947	0.0	PAUL	47	verb	list	4	13	nomatch	paul	-1	1	p	0.57086
460.02770000000004	0.0	+	47	verb	list	4	14	nomatch	paul	-1	1	p	0.57086
459.9655000000001	0.0	[response]	47	verb	list	4	15	nomatch	paul	-1	1	p	0.57086
461.7936	0.0	+	48	verb	list	2	1	nomatch	grand	-1	1	p	0.57607
462.34330000000006	0.2	mfct	48	verb	list	2	2	nomatch	grand	-1	1	p	0.57607
462.5433	0.0	+	48	verb	list	2	3	nomatch	grand	-1	1	p	0.57607
462.9431	0.2	jqbv	48	verb	list	2	4	nomatch	grand	-1	1	p	0.57607
463.143	0.0	+	48	verb	list	2	5	nomatch	grand	-1	1	p	0.57607
463.5428	0.2	sk	48	verb	list	2	6	nomatch	grand	-1	1	p	0.57607
463.74270000000007	0.0	+	48	verb	list	2	7	nomatch	grand	-1	1	p	0.57607
464.1433	0.2	petit	48	verb	list	2	8	nomatch	grand	-1	1	p	0.57607
464.34280000000007	0.0	+	48	verb	list	2	9	nomatch	grand	-1	1	p	0.57607
464.75900000000007	0.2	chasser	48	verb	list	2	10	nomatch	grand	-1	1	p	0.57607
464.9595	0.0	+	48	verb	list	2	11	nomatch	grand	-1	1	p	0.57607
465.34200000000004	0.0	+	48	verb	list	2	12	nomatch	grand	-1	1	p	0.57607
467.34110000000004	0.0	GRAND	48	verb	list	2	13	nomatch	grand	-1	1	p	0.57607
467.97420000000005	0.0	+	48	verb	list	2	14	nomatch	grand	-1	1	p	0.57607
467.91720000000004	0.0	[response]	48	verb	list	2	15	nomatch	grand	-1	1	p	0.57607
477.73650000000004	0.0	+	49	noun	list	2	1	match	tôt	5	1	y	0.91631
478.28620000000006	0.2	kmpxlz	49	noun	list	2	2	match	tôt	5	1	y	0.91631
478.4861	0.0	+	49	noun	list	2	3	match	tôt	5	1	y	0.91631
478.9033	0.2	rkh	49	noun	list	2	4	match	tôt	5	1	y	0.91631
479.0859	0.0	+	49	noun	list	2	5	match	tôt	5	1	y	0.91631
479.4862	0.2	vcmh	49	noun	list	2	6	match	tôt	5	1	y	0.91631
479.7026	0.0	+	49	noun	list	2	7	match	tôt	5	1	y	0.91631
480.0854	0.2	sablier	49	noun	list	2	8	match	tôt	5	1	y	0.91631
480.28530000000006	0.0	+	49	noun	list	2	9	match	tôt	5	1	y	0.91631
480.68520000000007	0.2	tôt	49	noun	list	2	10	match	tôt	5	1	y	0.91631
480.8851	0.0	+	49	noun	list	2	11	match	tôt	5	1	y	0.91631
481.28490000000005	0.0	+	49	noun	list	2	12	match	tôt	5	1	y	0.91631
483.28400000000005	0.0	TÔT	49	noun	list	2	13	match	tôt	5	1	y	0.91631
484.2674	0.0	+	49	noun	list	2	14	match	tôt	5	1	y	0.91631
484.2003	0.0	[response]	49	noun	list	2	15	match	tôt	5	1	y	0.91631
485.6996	0.0	+	50	verb	phrase	1	1	match	tard	5	1	y	0.53094
486.2493	0.2	mdwtsf	50	verb	phrase	1	2	match	tard	5	1	y	0.53094
486.44930000000005	0.0	+	50	verb	phrase	1	3	match	tard	5	1	y	0.53094
486.8491000000001	0.2	zndv	50	verb	phrase	1	4	match	tard	5	1	y	0.53094
487.04900000000004	0.0	+	50	verb	phrase	1	5	match	tard	5	1	y	0.53094
487.44880000000006	0.2	bzct	50	verb	phrase	1	6	match	tard	5	1	y	0.53094
487.6487	0.0	+	50	verb	phrase	1	7	match	tard	5	1	y	0.53094
488.04850000000005	0.2	jmbzkhs	50	verb	phrase	1	8	match	tard	5	1	y	0.53094
488.2485	0.0	+	50	verb	phrase	1	9	match	tard	5	1	y	0.53094
488.64900000000006	0.2	tard	50	verb	phrase	1	10	match	tard	5	1	y	0.53094
488.84880000000004	0.0	+	50	verb	phrase	1	11	match	tard	5	1	y	0.53094
489.248	0.0	+	50	verb	phrase	1	12	match	tard	5	1	y	0.53094
491.2471	0.0	TARD	50	verb	phrase	1	13	match	tard	5	1	y	0.53094
491.83020000000005	0.0	+	50	verb	phrase	1	14	match	tard	5	1	y	0.53094
491.77810000000005	0.0	[response]	50	verb	phrase	1	15	match	tard	5	1	y	0.53094
493.6461	0.0	+	51	noun	phrase	1	1	nomatch	mon	-1	1	p	0.65955
494.1958	0.2	mxgz	51	noun	phrase	1	2	nomatch	mon	-1	1	p	0.65955
494.3957	0.0	+	51	noun	phrase	1	3	nomatch	mon	-1	1	p	0.65955
494.81250000000006	0.2	hqjx	51	noun	phrase	1	4	nomatch	mon	-1	1	p	0.65955
494.9956	0.0	+	51	noun	phrase	1	5	nomatch	mon	-1	1	p	0.65955
495.39590000000004	0.2	xzdl	51	noun	phrase	1	6	nomatch	mon	-1	1	p	0.65955
495.5953	0.0	+	51	noun	phrase	1	7	nomatch	mon	-1	1	p	0.65955
495.99510000000004	0.2	czfkhd	51	noun	phrase	1	8	nomatch	mon	-1	1	p	0.65955
496.1949	0.0	+	51	noun	phrase	1	9	nomatch	mon	-1	1	p	0.65955
496.59470000000005	0.2	petit	51	noun	phrase	1	10	nomatch	mon	-1	1	p	0.65955
496.7947	0.0	+	51	noun	phrase	1	11	nomatch	mon	-1	1	p	0.65955
497.1945	0.0	+	51	noun	phrase	1	12	nomatch	mon	-1	1	p	0.65955
499.1936	0.0	MON	51	noun	phrase	1	13	nomatch	mon	-1	1	p	0.65955
499.9272	0.0	+	51	noun	phrase	1	14	nomatch	mon	-1	1	p	0.65955
499.8531	0.0	[response]	51	noun	phrase	1	15	nomatch	mon	-1	1	p	0.65955
501.59250000000003	0.0	+	52	verb	phrase	1	1	nomatch	tard	-1	1	p	0.34886
502.14230000000003	0.2	vrnbp	52	verb	phrase	1	2	nomatch	tard	-1	1	p	0.34886
502.3422	0.0	+	52	verb	phrase	1	3	nomatch	tard	-1	1	p	0.34886
502.742	0.2	tgcf	52	verb	phrase	1	4	nomatch	tard	-1	1	p	0.34886
502.9419	0.0	+	52	verb	phrase	1	5	nomatch	tard	-1	1	p	0.34886
503.3417	0.2	bzct	52	verb	phrase	1	6	nomatch	tard	-1	1	p	0.34886
503.5416000000001	0.0	+	52	verb	phrase	1	7	nomatch	tard	-1	1	p	0.34886
503.94200000000006	0.2	wjbklpx	52	verb	phrase	1	8	nomatch	tard	-1	1	p	0.34886
504.14180000000005	0.0	+	52	verb	phrase	1	9	nomatch	tard	-1	1	p	0.34886
504.5416000000001	0.2	loin	52	verb	phrase	1	10	nomatch	tard	-1	1	p	0.34886
504.75849999999997	0.0	+	52	verb	phrase	1	11	nomatch	tard	-1	1	p	0.34886
505.14130000000006	0.0	+	52	verb	phrase	1	12	nomatch	tard	-1	1	p	0.34886
507.14000000000004	0.0	TARD	52	verb	phrase	1	13	nomatch	tard	-1	1	p	0.34886
507.55649999999997	0.0	+	52	verb	phrase	1	14	nomatch	tard	-1	1	p	0.34886
507.4889	0.0	[response]	52	verb	phrase	1	15	nomatch	tard	-1	1	p	0.34886
509.53900000000004	0.0	+	53	noun	list	1	1	match	trop	5	1	y	0.38368
510.0887000000001	0.2	nzbjd	53	noun	list	1	2	match	trop	5	1	y	0.38368
510.28940000000006	0.0	+	53	noun	list	1	3	match	trop	5	1	y	0.38368
510.7058	0.2	qsdf	53	noun	list	1	4	match	trop	5	1	y	0.38368
510.8884	0.0	+	53	noun	list	1	5	match	trop	5	1	y	0.38368
511.2882	0.2	xzdl	53	noun	list	1	6	match	trop	5	1	y	0.38368
511.4881	0.0	+	53	noun	list	1	7	match	trop	5	1	y	0.38368
511.8879	0.2	trdnjzw	53	noun	list	1	8	match	trop	5	1	y	0.38368
512.0878	0.0	+	53	noun	list	1	9	match	trop	5	1	y	0.38368
512.4875999999999	0.2	trop	53	noun	list	1	10	match	trop	5	1	y	0.38368
512.6876	0.0	+	53	noun	list	1	11	match	trop	5	1	y	0.38368
513.0874	0.0	+	53	noun	list	1	12	match	trop	5	1	y	0.38368
515.0865	0.0	TROP	53	noun	list	1	13	match	trop	5	1	y	0.38368
515.5363	0.0	+	53	noun	list	1	14	match	trop	5	1	y	0.38368
515.4702	0.0	[response]	53	noun	list	1	15	match	trop	5	1	y	0.38368
517.4853999999999	0.0	+	54	verb	list	1	1	match	patiner	5	1	y	0.36618
518.0351999999999	0.2	gdmt	54	verb	list	1	2	match	patiner	5	1	y	0.36618
518.2351	0.0	+	54	verb	list	1	3	match	patiner	5	1	y	0.36618
518.6349	0.2	hrms	54	verb	list	1	4	match	patiner	5	1	y	0.36618
518.8348	0.0	+	54	verb	list	1	5	match	patiner	5	1	y	0.36618
519.2347	0.2	sk	54	verb	list	1	6	match	patiner	5	1	y	0.36618
519.4348	0.0	+	54	verb	list	1	7	match	patiner	5	1	y	0.36618
519.8516999999999	0.2	rtlpm	54	verb	list	1	8	match	patiner	5	1	y	0.36618
520.0514999999999	0.0	+	54	verb	list	1	9	match	patiner	5	1	y	0.36618
520.4341	0.2	patiner	54	verb	list	1	10	match	patiner	5	1	y	0.36618
520.634	0.0	+	54	verb	list	1	11	match	patiner	5	1	y	0.36618
521.0337999999999	0.0	+	54	verb	list	1	12	match	patiner	5	1	y	0.36618
523.0495999999999	0.0	PATINER	54	verb	list	1	13	match	patiner	5	1	y	0.36618
523.4826999999999	0.0	+	54	verb	list	1	14	match	patiner	5	1	y	0.36618
523.4158	0.0	[response]	54	verb	list	1	15	match	patiner	5	1	y	0.36618
525.4485	0.0	+	55	verb	list	4	1	nomatch	doit	-1	1	p	0.6867
525.9983	0.2	bxmr	55	verb	list	4	2	nomatch	doit	-1	1	p	0.6867
526.1981999999999	0.0	+	55	verb	list	4	3	nomatch	doit	-1	1	p	0.6867
526.6152999999999	0.2	paul	55	verb	list	4	4	nomatch	doit	-1	1	p	0.6867
526.7982999999999	0.0	+	55	verb	list	4	5	nomatch	doit	-1	1	p	0.6867
527.1977999999999	0.2	son	55	verb	list	4	6	nomatch	doit	-1	1	p	0.6867
527.3977	0.0	+	55	verb	list	4	7	nomatch	doit	-1	1	p	0.6867
527.7975	0.2	parader	55	verb	list	4	8	nomatch	doit	-1	1	p	0.6867
527.9974	0.0	+	55	verb	list	4	9	nomatch	doit	-1	1	p	0.6867
528.3978999999999	0.2	rouge	55	verb	list	4	10	nomatch	doit	-1	1	p	0.6867
528.5975999999999	0.0	+	55	verb	list	4	11	nomatch	doit	-1	1	p	0.6867
528.9972	0.0	+	55	verb	list	4	12	nomatch	doit	-1	1	p	0.6867
530.9961	0.0	DOIT	55	verb	list	4	13	nomatch	doit	-1	1	p	0.6867
531.7456999999999	0.0	+	55	verb	list	4	14	nomatch	doit	-1	1	p	0.6867
531.6827999999999	0.0	[response]	55	verb	list	4	15	nomatch	doit	-1	1	p	0.6867
541.3914	0.0	+	56	verb	list	3	1	nomatch	plonger	-1	1	p	0.52494
541.9412	0.2	krfc	56	verb	list	3	2	nomatch	plonger	-1	1	p	0.52494
542.1410999999999	0.0	+	56	verb	list	3	3	nomatch	plonger	-1	1	p	0.52494
542.5409	0.2	hqjx	56	verb	list	3	4	nomatch	plonger	-1	1	p	0.52494
542.7407999999999	0.0	+	56	verb	list	3	5	nomatch	plonger	-1	1	p	0.52494
543.1411999999999	0.2	peut	56	verb	list	3	6	nomatch	plonger	-1	1	p	0.52494
543.3408	0.0	+	56	verb	list	3	7	nomatch	plonger	-1	1	p	0.52494
543.741	0.2	beau	56	verb	list	3	8	nomatch	plonger	-1	1	p	0.52494
543.9408	0.0	+	56	verb	list	3	9	nomatch	plonger	-1	1	p	0.52494
544.3401	0.2	voyager	56	verb	list	3	10	nomatch	plonger	-1	1	p	0.52494
544.54	0.0	+	56	verb	list	3	11	nomatch	plonger	-1	1	p	0.52494
544.9399	0.0	+	56	verb	list	3	12	nomatch	plonger	-1	1	p	0.52494
546.9394	0.0	PLONGER	56	verb	list	3	13	nomatch	plonger	-1	1	p	0.52494
547.5387	0.0	+	56	verb	list	3	14	nomatch	plonger	-1	1	p	0.52494
547.4644	0.0	[response]	56	verb	list	3	15	nomatch	plonger	-1	1	p	0.52494
549.3379	0.0	+	57	verb	phrase	2	1	match	ainsi	5	1	y	0.53371
549.8883999999999	0.2	gdwzk	57	verb	phrase	2	2	match	ainsi	5	1	y	0.53371
550.0875	0.0	+	57	verb	phrase	2	3	match	ainsi	5	1	y	0.53371
550.5046	0.2	gtzv	57	verb	phrase	2	4	match	ainsi	5	1	y	0.53371
550.6876	0.0	+	57	verb	phrase	2	5	match	ainsi	5	1	y	0.53371
551.0871	0.2	vcmh	57	verb	phrase	2	6	match	ainsi	5	1	y	0.53371
551.2869999999999	0.0	+	57	verb	phrase	2	7	match	ainsi	5	1	y	0.53371
551.6868999999999	0.2	rouler	57	verb	phrase	2	8	match	ainsi	5	1	y	0.53371
551.8868	0.0	+	57	verb	phrase	2	9	match	ainsi	5	1	y	0.53371
552.2866	0.2	ainsi	57	verb	phrase	2	10	match	ainsi	5	1	y	0.53371
552.4865	0.0	+	57	verb	phrase	2	11	match	ainsi	5	1	y	0.53371
552.8863	0.0	+	57	verb	phrase	2	12	match	ainsi	5	1	y	0.53371
554.8854	0.0	AINSI	57	verb	phrase	2	13	match	ainsi	5	1	y	0.53371
555.4852	0.0	+	57	verb	phrase	2	14	match	ainsi	5	1	y	0.53371
555.4191	0.0	[response]	57	verb	phrase	2	15	match	ainsi	5	1	y	0.53371
557.2844	0.0	+	58	noun	phrase	1	1	match	casier	5	1	y	0.83647
557.8340999999999	0.2	hcmkzwj	58	noun	phrase	1	2	match	casier	5	1	y	0.83647
558.034	0.0	+	58	noun	phrase	1	3	match	casier	5	1	y	0.83647
558.4338	0.2	ctdq	58	noun	phrase	1	4	match	casier	5	1	y	0.83647
558.6337	0.0	+	58	noun	phrase	1	5	match	casier	5	1	y	0.83647
559.0507	0.2	rdq	58	noun	phrase	1	6	match	casier	5	1	y	0.83647
559.2501	0.0	+	58	noun	phrase	1	7	match	casier	5	1	y	0.83647
559.65	0.2	bfhm	58	noun	phrase	1	8	match	casier	5	1	y	0.83647
559.8506	0.0	+	58	noun	phrase	1	9	match	casier	5	1	y	0.83647
560.2497	0.2	casier	58	noun	phrase	1	10	match	casier	5	1	y	0.83647
560.4495999999999	0.0	+	58	noun	phrase	1	11	match	casier	5	1	y	0.83647
560.8494	0.0	+	58	noun	phrase	1	12	match	casier	5	1	y	0.83647
562.8485	0.0	CASIER	58	noun	phrase	1	13	match	casier	5	1	y	0.83647
563.7985	0.0	+	58	noun	phrase	1	14	match	casier	5	1	y	0.83647
563.685	0.0	[response]	58	noun	phrase	1	15	match	casier	5	1	y	0.83647
565.2475	0.0	+	59	verb	phrase	1	1	match	plonger	5	1	y	0.4296
565.7972	0.2	snckxlg	59	verb	phrase	1	2	match	plonger	5	1	y	0.4296
565.9970999999999	0.0	+	59	verb	phrase	1	3	match	plonger	5	1	y	0.4296
566.3969	0.2	gpqk	59	verb	phrase	1	4	match	plonger	5	1	y	0.4296
566.5969	0.0	+	59	verb	phrase	1	5	match	plonger	5	1	y	0.4296
566.9966999999999	0.2	bzct	59	verb	phrase	1	6	match	plonger	5	1	y	0.4296
567.1966	0.0	+	59	verb	phrase	1	7	match	plonger	5	1	y	0.4296
567.5964	0.2	dxt	59	verb	phrase	1	8	match	plonger	5	1	y	0.4296
567.7963	0.0	+	59	verb	phrase	1	9	match	plonger	5	1	y	0.4296
568.1961	0.2	plonger	59	verb	phrase	1	10	match	plonger	5	1	y	0.4296
568.4133999999999	0.0	+	59	verb	phrase	1	11	match	plonger	5	1	y	0.4296
568.7962	0.0	+	59	verb	phrase	1	12	match	plonger	5	1	y	0.4296
570.795	0.0	PLONGER	59	verb	phrase	1	13	match	plonger	5	1	y	0.4296
571.2781	0.0	+	59	verb	phrase	1	14	match	plonger	5	1	y	0.4296
571.2246000000001	0.0	[response]	59	verb	phrase	1	15	match	plonger	5	1	y	0.4296
573.1939	0.0	+	60	noun	phrase	3	1	nomatch	tablier	-1	0	y	0.60933
573.7437	0.2	wfhj	60	noun	phrase	3	2	nomatch	tablier	-1	0	y	0.60933
573.9436	0.0	+	60	noun	phrase	3	3	nomatch	tablier	-1	0	y	0.60933
574.3605	0.2	hrms	60	noun	phrase	3	4	nomatch	tablier	-1	0	y	0.60933
574.5435	0.0	+	60	noun	phrase	3	5	nomatch	tablier	-1	0	y	0.60933
574.9431	0.2	son	60	noun	phrase	3	6	nomatch	tablier	-1	0	y	0.60933
575.1431	0.0	+	60	noun	phrase	3	7	nomatch	tablier	-1	0	y	0.60933
575.5428999999999	0.2	grand	60	noun	phrase	3	8	nomatch	tablier	-1	0	y	0.60933
575.7428	0.0	+	60	noun	phrase	3	9	nomatch	tablier	-1	0	y	0.60933
576.1426	0.2	panier	60	noun	phrase	3	10	nomatch	tablier	-1	0	y	0.60933
576.3425	0.0	+	60	noun	phrase	3	11	nomatch	tablier	-1	0	y	0.60933
576.7423	0.0	+	60	noun	phrase	3	12	nomatch	tablier	-1	0	y	0.60933
578.7415	0.0	TABLIER	60	noun	phrase	3	13	nomatch	tablier	-1	0	y	0.60933
579.4078	0.0	+	60	noun	phrase	3	14	nomatch	tablier	-1	0	y	0.60933
579.3507999999999	0.0	[response]	60	noun	phrase	3	15	nomatch	tablier	-1	0	y	0.60933
589.1700999999999	0.0	+	61	verb	list	1	1	nomatch	plonger	-1	1	p	0.62357
589.6872	0.2	xfrwm	61	verb	list	1	2	nomatch	plonger	-1	1	p	0.62357
589.8865	0.0	+	61	verb	list	1	3	nomatch	plonger	-1	1	p	0.62357
590.2869	0.2	hqjx	61	verb	list	1	4	nomatch	plonger	-1	1	p	0.62357
590.4861999999999	0.0	+	61	verb	list	1	5	nomatch	plonger	-1	1	p	0.62357
590.886	0.2	vcmh	61	verb	list	1	6	nomatch	plonger	-1	1	p	0.62357
591.0858999999999	0.0	+	61	verb	list	1	7	nomatch	plonger	-1	1	p	0.62357
591.4857999999999	0.2	fkql	61	verb	list	1	8	nomatch	plonger	-1	1	p	0.62357
591.6857	0.0	+	61	verb	list	1	9	nomatch	plonger	-1	1	p	0.62357
592.0854999999999	0.2	chasser	61	verb	list	1	10	nomatch	plonger	-1	1	p	0.62357
592.2854	0.0	+	61	verb	list	1	11	nomatch	plonger	-1	1	p	0.62357
592.6852	0.0	+	61	verb	list	1	12	nomatch	plonger	-1	1	p	0.62357
594.6845	0.0	PLONGER	61	verb	list	1	13	nomatch	plonger	-1	1	p	0.62357
595.3674	0.0	+	61	verb	list	1	14	nomatch	plonger	-1	1	p	0.62357
595.3081	0.0	[response]	61	verb	list	1	15	nomatch	plonger	-1	1	p	0.62357
605.0964	0.0	+	62	noun	phrase	1	1	match	boîtier	5	1	y	0.5340200000000002
605.6460999999999	0.2	hwdkf	62	noun	phrase	1	2	match	boîtier	5	1	y	0.5340200000000002
605.846	0.0	+	62	noun	phrase	1	3	match	boîtier	5	1	y	0.5340200000000002
606.2461999999999	0.2	vrzh	62	noun	phrase	1	4	match	boîtier	5	1	y	0.5340200000000002
606.4465	0.0	+	62	noun	phrase	1	5	match	boîtier	5	1	y	0.5340200000000002
606.846	0.2	wqp	62	noun	phrase	1	6	match	boîtier	5	1	y	0.5340200000000002
607.0458	0.0	+	62	noun	phrase	1	7	match	boîtier	5	1	y	0.5340200000000002
607.4453	0.2	gjhtq	62	noun	phrase	1	8	match	boîtier	5	1	y	0.5340200000000002
607.6451999999999	0.0	+	62	noun	phrase	1	9	match	boîtier	5	1	y	0.5340200000000002
608.045	0.2	boîtier	62	noun	phrase	1	10	match	boîtier	5	1	y	0.5340200000000002
608.245	0.0	+	62	noun	phrase	1	11	match	boîtier	5	1	y	0.5340200000000002
608.6447999999999	0.0	+	62	noun	phrase	1	12	match	boîtier	5	1	y	0.5340200000000002
610.6438999999999	0.0	BOÎTIER	62	noun	phrase	1	13	match	boîtier	5	1	y	0.5340200000000002
611.2776	0.0	+	62	noun	phrase	1	14	match	boîtier	5	1	y	0.5340200000000002
611.1778999999999	0.0	[response]	62	noun	phrase	1	15	match	boîtier	5	1	y	0.5340200000000002
613.0597	0.0	+	63	verb	list	3	1	nomatch	rouler	-1	1	p	0.60606
613.6094999999999	0.2	qplhndf	63	verb	list	3	2	nomatch	rouler	-1	1	p	0.60606
613.8095	0.0	+	63	verb	list	3	3	nomatch	rouler	-1	1	p	0.60606
614.1929	0.2	nvmf	63	verb	list	3	4	nomatch	rouler	-1	1	p	0.60606
614.3922	0.0	+	63	verb	list	3	5	nomatch	rouler	-1	1	p	0.60606
614.7919999999999	0.2	peut	63	verb	list	3	6	nomatch	rouler	-1	1	p	0.60606
614.9919	0.0	+	63	verb	list	3	7	nomatch	rouler	-1	1	p	0.60606
615.3918	0.2	nouveau	63	verb	list	3	8	nomatch	rouler	-1	1	p	0.60606
615.5917	0.0	+	63	verb	list	3	9	nomatch	rouler	-1	1	p	0.60606
615.9915	0.2	galoper	63	verb	list	3	10	nomatch	rouler	-1	1	p	0.60606
616.1913999999999	0.0	+	63	verb	list	3	11	nomatch	rouler	-1	1	p	0.60606
616.5912	0.0	+	63	verb	list	3	12	nomatch	rouler	-1	1	p	0.60606
618.5908999999999	0.0	ROULER	63	verb	list	3	13	nomatch	rouler	-1	1	p	0.60606
619.2566999999999	0.0	+	63	verb	list	3	14	nomatch	rouler	-1	1	p	0.60606
619.197	0.0	[response]	63	verb	list	3	15	nomatch	rouler	-1	1	p	0.60606
620.9893	0.0	+	64	verb	phrase	1	1	nomatch	va	-1	1	p	0.45649
621.539	0.2	qjmwrd	64	verb	phrase	1	2	nomatch	va	-1	1	p	0.45649
621.7389	0.0	+	64	verb	phrase	1	3	nomatch	va	-1	1	p	0.45649
622.1388	0.2	gpqk	64	verb	phrase	1	4	nomatch	va	-1	1	p	0.45649
622.3387	0.0	+	64	verb	phrase	1	5	nomatch	va	-1	1	p	0.45649
622.7389999999999	0.2	vcmh	64	verb	phrase	1	6	nomatch	va	-1	1	p	0.45649
622.9385	0.0	+	64	verb	phrase	1	7	nomatch	va	-1	1	p	0.45649
623.3383	0.2	nstlxbz	64	verb	phrase	1	8	nomatch	va	-1	1	p	0.45649
623.5387999999999	0.0	+	64	verb	phrase	1	9	nomatch	va	-1	1	p	0.45649
623.9549999999999	0.2	tôt	64	verb	phrase	1	10	nomatch	va	-1	1	p	0.45649
624.1379	0.0	+	64	verb	phrase	1	11	nomatch	va	-1	1	p	0.45649
624.5377	0.0	+	64	verb	phrase	1	12	nomatch	va	-1	1	p	0.45649
626.5368	0.0	VA	64	verb	phrase	1	13	nomatch	va	-1	1	p	0.45649
627.0532	0.0	+	64	verb	phrase	1	14	nomatch	va	-1	1	p	0.45649
626.9933	0.0	[response]	64	verb	phrase	1	15	nomatch	va	-1	1	p	0.45649
628.9357	0.0	+	65	verb	list	1	1	nomatch	mon	-1	1	p	0.9469
629.4855	0.2	vgm	65	verb	list	1	2	nomatch	mon	-1	1	p	0.9469
629.6854	0.0	+	65	verb	list	1	3	nomatch	mon	-1	1	p	0.9469
630.1025999999999	0.2	zndv	65	verb	list	1	4	nomatch	mon	-1	1	p	0.9469
630.2855	0.0	+	65	verb	list	1	5	nomatch	mon	-1	1	p	0.9469
630.6853	0.2	wqp	65	verb	list	1	6	nomatch	mon	-1	1	p	0.9469
630.8849	0.0	+	65	verb	list	1	7	nomatch	mon	-1	1	p	0.9469
631.2846999999999	0.2	mktczvs	65	verb	list	1	8	nomatch	mon	-1	1	p	0.9469
631.4846	0.0	+	65	verb	list	1	9	nomatch	mon	-1	1	p	0.9469
631.8847	0.2	rouge	65	verb	list	1	10	nomatch	mon	-1	1	p	0.9469
632.1016	0.0	+	65	verb	list	1	11	nomatch	mon	-1	1	p	0.9469
632.4844999999999	0.0	+	65	verb	list	1	12	nomatch	mon	-1	1	p	0.9469
634.4998999999999	0.0	MON	65	verb	list	1	13	nomatch	mon	-1	1	p	0.9469
635.4995	0.0	+	65	verb	list	1	14	nomatch	mon	-1	1	p	0.9469
635.4467999999999	0.0	[response]	65	verb	list	1	15	nomatch	mon	-1	1	p	0.9469
636.8988999999999	0.0	+	66	verb	phrase	2	1	match	chasser	5	1	y	0.52868
637.4485999999999	0.2	xvk	66	verb	phrase	2	2	match	chasser	5	1	y	0.52868
637.6485	0.0	+	66	verb	phrase	2	3	match	chasser	5	1	y	0.52868
638.0482999999999	0.2	tgcf	66	verb	phrase	2	4	match	chasser	5	1	y	0.52868
638.2482	0.0	+	66	verb	phrase	2	5	match	chasser	5	1	y	0.52868
638.6481	0.2	vcmh	66	verb	phrase	2	6	match	chasser	5	1	y	0.52868
638.848	0.0	+	66	verb	phrase	2	7	match	chasser	5	1	y	0.52868
639.2478	0.2	mieux	66	verb	phrase	2	8	match	chasser	5	1	y	0.52868
639.4476999999999	0.0	+	66	verb	phrase	2	9	match	chasser	5	1	y	0.52868
639.8480999999999	0.2	chasser	66	verb	phrase	2	10	match	chasser	5	1	y	0.52868
640.0477999999999	0.0	+	66	verb	phrase	2	11	match	chasser	5	1	y	0.52868
640.4479	0.0	+	66	verb	phrase	2	12	match	chasser	5	1	y	0.52868
642.4463999999999	0.0	CHASSER	66	verb	phrase	2	13	match	chasser	5	1	y	0.52868
643.0294	0.0	+	66	verb	phrase	2	14	match	chasser	5	1	y	0.52868
642.975	0.0	[response]	66	verb	phrase	2	15	match	chasser	5	1	y	0.52868
644.8453	0.0	+	67	verb	list	4	1	nomatch	peut	-1	1	p	0.65783
645.3951	0.2	pcwbgt	67	verb	list	4	2	nomatch	peut	-1	1	p	0.65783
645.5949999999999	0.0	+	67	verb	list	4	3	nomatch	peut	-1	1	p	0.65783
646.0115999999999	0.2	jean	67	verb	list	4	4	nomatch	peut	-1	1	p	0.65783
646.2121	0.0	+	67	verb	list	4	5	nomatch	peut	-1	1	p	0.65783
646.5948999999999	0.2	son	67	verb	list	4	6	nomatch	peut	-1	1	p	0.65783
646.7946	0.0	+	67	verb	list	4	7	nomatch	peut	-1	1	p	0.65783
647.1943	0.2	nager	67	verb	list	4	8	nomatch	peut	-1	1	p	0.65783
647.3942	0.0	+	67	verb	list	4	9	nomatch	peut	-1	1	p	0.65783
647.794	0.2	noir	67	verb	list	4	10	nomatch	peut	-1	1	p	0.65783
647.9938999999999	0.0	+	67	verb	list	4	11	nomatch	peut	-1	1	p	0.65783
648.3937	0.0	+	67	verb	list	4	12	nomatch	peut	-1	1	p	0.65783
650.3928	0.0	PEUT	67	verb	list	4	13	nomatch	peut	-1	1	p	0.65783
651.1092	0.0	+	67	verb	list	4	14	nomatch	peut	-1	1	p	0.65783
651.0507	0.0	[response]	67	verb	list	4	15	nomatch	peut	-1	1	p	0.65783
652.7918	0.0	+	68	noun	phrase	3	1	match	voilier	5	1	y	0.5888
653.3415	0.2	mwvh	68	noun	phrase	3	2	match	voilier	5	1	y	0.5888
653.5414	0.0	+	68	noun	phrase	3	3	match	voilier	5	1	y	0.5888
653.9417	0.2	vrzh	68	noun	phrase	3	4	match	voilier	5	1	y	0.5888
654.1415	0.0	+	68	noun	phrase	3	5	match	voilier	5	1	y	0.5888
654.5414	0.2	leur	68	noun	phrase	3	6	match	voilier	5	1	y	0.5888
654.7582	0.0	+	68	noun	phrase	3	7	match	voilier	5	1	y	0.5888
655.1409	0.2	beau	68	noun	phrase	3	8	match	voilier	5	1	y	0.5888
655.3406	0.0	+	68	noun	phrase	3	9	match	voilier	5	1	y	0.5888
655.7403999999999	0.2	voilier	68	noun	phrase	3	10	match	voilier	5	1	y	0.5888
655.9404	0.0	+	68	noun	phrase	3	11	match	voilier	5	1	y	0.5888
656.3402	0.0	+	68	noun	phrase	3	12	match	voilier	5	1	y	0.5888
658.3393	0.0	VOILIER	68	noun	phrase	3	13	match	voilier	5	1	y	0.5888
658.9889999999999	0.0	+	68	noun	phrase	3	14	match	voilier	5	1	y	0.5888
658.9281	0.0	[response]	68	noun	phrase	3	15	match	voilier	5	1	y	0.5888
660.7382	0.0	+	69	verb	list	4	1	match	vert	5	1	y	0.46384
661.288	0.2	hxrkd	69	verb	list	4	2	match	vert	5	1	y	0.46384
661.4879	0.0	+	69	verb	list	4	3	match	vert	5	1	y	0.46384
661.8883999999999	0.2	adam	69	verb	list	4	4	match	vert	5	1	y	0.46384
662.0879	0.0	+	69	verb	list	4	5	match	vert	5	1	y	0.46384
662.4877	0.2	son	69	verb	list	4	6	match	vert	5	1	y	0.46384
662.6876	0.0	+	69	verb	list	4	7	match	vert	5	1	y	0.46384
663.0871999999999	0.2	voyager	69	verb	list	4	8	match	vert	5	1	y	0.46384
663.2871	0.0	+	69	verb	list	4	9	match	vert	5	1	y	0.46384
663.6868999999999	0.2	vert	69	verb	list	4	10	match	vert	5	1	y	0.46384
663.8868	0.0	+	69	verb	list	4	11	match	vert	5	1	y	0.46384
664.2866	0.0	+	69	verb	list	4	12	match	vert	5	1	y	0.46384
666.2857	0.0	VERT	69	verb	list	4	13	match	vert	5	1	y	0.46384
666.8022	0.0	+	69	verb	list	4	14	match	vert	5	1	y	0.46384
666.7496	0.0	[response]	69	verb	list	4	15	match	vert	5	1	y	0.46384
668.6847	0.0	+	70	verb	phrase	1	1	nomatch	plus	-1	1	p	0.4778
669.2343999999999	0.2	zxsfhw	70	verb	phrase	1	2	nomatch	plus	-1	1	p	0.4778
669.4343	0.0	+	70	verb	phrase	1	3	nomatch	plus	-1	1	p	0.4778
669.8342	0.2	zndv	70	verb	phrase	1	4	nomatch	plus	-1	1	p	0.4778
670.0345	0.0	+	70	verb	phrase	1	5	nomatch	plus	-1	1	p	0.4778
670.4511	0.2	sk	70	verb	phrase	1	6	nomatch	plus	-1	1	p	0.4778
670.6345	0.0	+	70	verb	phrase	1	7	nomatch	plus	-1	1	p	0.4778
671.0341	0.2	prtlzhs	70	verb	phrase	1	8	nomatch	plus	-1	1	p	0.4778
671.2335999999999	0.0	+	70	verb	phrase	1	9	nomatch	plus	-1	1	p	0.4778
671.65	0.2	beaucoup	70	verb	phrase	1	10	nomatch	plus	-1	1	p	0.4778
671.8498999999999	0.0	+	70	verb	phrase	1	11	nomatch	plus	-1	1	p	0.4778
672.2497	0.0	+	70	verb	phrase	1	12	nomatch	plus	-1	1	p	0.4778
674.2488999999999	0.0	PLUS	70	verb	phrase	1	13	nomatch	plus	-1	1	p	0.4778
674.7823	0.0	+	70	verb	phrase	1	14	nomatch	plus	-1	1	p	0.4778
674.7266999999999	0.0	[response]	70	verb	phrase	1	15	nomatch	plus	-1	1	p	0.4778
676.6478	0.0	+	71	verb	phrase	4	1	match	peut	3	1	y	1.6605
677.1975	0.2	hwfbs	71	verb	phrase	4	2	match	peut	3	1	y	1.6605
677.3974999999999	0.0	+	71	verb	phrase	4	3	match	peut	3	1	y	1.6605
677.8145999999999	0.2	paul	71	verb	phrase	4	4	match	peut	3	1	y	1.6605
677.9972	0.0	+	71	verb	phrase	4	5	match	peut	3	1	y	1.6605
678.3976	0.2	peut	71	verb	phrase	4	6	match	peut	3	1	y	1.6605
678.6141	0.0	+	71	verb	phrase	4	7	match	peut	3	1	y	1.6605
678.9966999999999	0.2	chasser	71	verb	phrase	4	8	match	peut	3	1	y	1.6605
679.1966	0.0	+	71	verb	phrase	4	9	match	peut	3	1	y	1.6605
679.5965	0.2	loin	71	verb	phrase	4	10	match	peut	3	1	y	1.6605
679.7964	0.0	+	71	verb	phrase	4	11	match	peut	3	1	y	1.6605
680.1962	0.0	+	71	verb	phrase	4	12	match	peut	3	1	y	1.6605
682.2126999999999	0.0	PEUT	71	verb	phrase	4	13	match	peut	3	1	y	1.6605
683.9278999999999	0.0	+	71	verb	phrase	4	14	match	peut	3	1	y	1.6605
683.8732	0.0	[response]	71	verb	phrase	4	15	match	peut	3	1	y	1.6605
684.5942	0.0	+	72	noun	phrase	4	1	match	rouge	5	1	y	0.5249300000000001
685.144	0.2	lbjqwz	72	noun	phrase	4	2	match	rouge	5	1	y	0.5249300000000001
685.3439	0.0	+	72	noun	phrase	4	3	match	rouge	5	1	y	0.5249300000000001
685.7437	0.2	dans	72	noun	phrase	4	4	match	rouge	5	1	y	0.5249300000000001
685.9436	0.0	+	72	noun	phrase	4	5	match	rouge	5	1	y	0.5249300000000001
686.3435	0.2	son	72	noun	phrase	4	6	match	rouge	5	1	y	0.5249300000000001
686.5434	0.0	+	72	noun	phrase	4	7	match	rouge	5	1	y	0.5249300000000001
686.9431999999999	0.2	casier	72	noun	phrase	4	8	match	rouge	5	1	y	0.5249300000000001
687.1431	0.0	+	72	noun	phrase	4	9	match	rouge	5	1	y	0.5249300000000001
687.5432	0.2	rouge	72	noun	phrase	4	10	match	rouge	5	1	y	0.5249300000000001
687.7599	0.0	+	72	noun	phrase	4	11	match	rouge	5	1	y	0.5249300000000001
688.1429999999999	0.0	+	72	noun	phrase	4	12	match	rouge	5	1	y	0.5249300000000001
690.1419999999999	0.0	ROUGE	72	noun	phrase	4	13	match	rouge	5	1	y	0.5249300000000001
690.7248	0.0	+	72	noun	phrase	4	14	match	rouge	5	1	y	0.5249300000000001
690.6669	0.0	[response]	72	noun	phrase	4	15	match	rouge	5	1	y	0.5249300000000001
692.5407	0.0	+	73	verb	phrase	1	1	match	moins	5	0	p	0.90959
693.0905	0.2	wtkdj	73	verb	phrase	1	2	match	moins	5	0	p	0.90959
693.2904	0.0	+	73	verb	phrase	1	3	match	moins	5	0	p	0.90959
693.6902	0.2	gpqk	73	verb	phrase	1	4	match	moins	5	0	p	0.90959
693.8908	0.0	+	73	verb	phrase	1	5	match	moins	5	0	p	0.90959
694.2905999999999	0.2	sk	73	verb	phrase	1	6	match	moins	5	0	p	0.90959
694.4903999999999	0.0	+	73	verb	phrase	1	7	match	moins	5	0	p	0.90959
694.8899	0.2	mktczvs	73	verb	phrase	1	8	match	moins	5	0	p	0.90959
695.0897	0.0	+	73	verb	phrase	1	9	match	moins	5	0	p	0.90959
695.4893999999999	0.2	moins	73	verb	phrase	1	10	match	moins	5	0	p	0.90959
695.6893	0.0	+	73	verb	phrase	1	11	match	moins	5	0	p	0.90959
696.0897	0.0	+	73	verb	phrase	1	12	match	moins	5	0	p	0.90959
698.0881999999999	0.0	MOINS	73	verb	phrase	1	13	match	moins	5	0	p	0.90959
699.0545	0.0	+	73	verb	phrase	1	14	match	moins	5	0	p	0.90959
698.9978	0.0	[response]	73	verb	phrase	1	15	match	moins	5	0	p	0.90959
708.5002999999999	0.0	+	74	verb	phrase	4	1	nomatch	vite	-1	1	p	0.50032
709.0505999999999	0.2	tdfqz	74	verb	phrase	4	2	nomatch	vite	-1	1	p	0.50032
709.2502	0.0	+	74	verb	phrase	4	3	nomatch	vite	-1	1	p	0.50032
709.6505	0.2	yves	74	verb	phrase	4	4	nomatch	vite	-1	1	p	0.50032
709.8502	0.0	+	74	verb	phrase	4	5	nomatch	vite	-1	1	p	0.50032
710.2495	0.2	va	74	verb	phrase	4	6	nomatch	vite	-1	1	p	0.50032
710.4494	0.0	+	74	verb	phrase	4	7	nomatch	vite	-1	1	p	0.50032
710.8492	0.2	mieux	74	verb	phrase	4	8	nomatch	vite	-1	1	p	0.50032
711.0491	0.0	+	74	verb	phrase	4	9	nomatch	vite	-1	1	p	0.50032
711.4489	0.2	galoper	74	verb	phrase	4	10	nomatch	vite	-1	1	p	0.50032
711.6488999999999	0.0	+	74	verb	phrase	4	11	nomatch	vite	-1	1	p	0.50032
712.0486999999999	0.0	+	74	verb	phrase	4	12	nomatch	vite	-1	1	p	0.50032
714.0477999999999	0.0	VITE	74	verb	phrase	4	13	nomatch	vite	-1	1	p	0.50032
714.6142	0.0	+	74	verb	phrase	4	14	nomatch	vite	-1	1	p	0.50032
714.5481	0.0	[response]	74	verb	phrase	4	15	nomatch	vite	-1	1	p	0.50032
716.4467	0.0	+	75	verb	list	2	1	match	nager	5	1	y	1.3063
716.9965	0.2	vjszp	75	verb	list	2	2	match	nager	5	1	y	1.3063
717.1963999999999	0.0	+	75	verb	list	2	3	match	nager	5	1	y	1.3063
717.5962	0.2	vrzh	75	verb	list	2	4	match	nager	5	1	y	1.3063
717.7960999999999	0.0	+	75	verb	list	2	5	match	nager	5	1	y	1.3063
718.1958999999999	0.2	vcmh	75	verb	list	2	6	match	nager	5	1	y	1.3063
718.396	0.0	+	75	verb	list	2	7	match	nager	5	1	y	1.3063
718.7959	0.2	nouveau	75	verb	list	2	8	match	nager	5	1	y	1.3063
719.0124	0.0	+	75	verb	list	2	9	match	nager	5	1	y	1.3063
719.3954	0.2	nager	75	verb	list	2	10	match	nager	5	1	y	1.3063
719.5953	0.0	+	75	verb	list	2	11	match	nager	5	1	y	1.3063
719.9951	0.0	+	75	verb	list	2	12	match	nager	5	1	y	1.3063
721.9942	0.0	NAGER	75	verb	list	2	13	match	nager	5	1	y	1.3063
723.3602999999999	0.0	+	75	verb	list	2	14	match	nager	5	1	y	1.3063
723.3005999999999	0.0	[response]	75	verb	list	2	15	match	nager	5	1	y	1.3063
724.3932	0.0	+	76	verb	list	2	1	nomatch	chasser	-1	1	p	0.6990300000000002
724.9429	0.2	jxwszh	76	verb	list	2	2	nomatch	chasser	-1	1	p	0.6990300000000002
725.1431	0.0	+	76	verb	list	2	3	nomatch	chasser	-1	1	p	0.6990300000000002
725.5426	0.2	jqbv	76	verb	list	2	4	nomatch	chasser	-1	1	p	0.6990300000000002
725.7425999999999	0.0	+	76	verb	list	2	5	nomatch	chasser	-1	1	p	0.6990300000000002
726.1424	0.2	bzct	76	verb	list	2	6	nomatch	chasser	-1	1	p	0.6990300000000002
726.3422999999999	0.0	+	76	verb	list	2	7	nomatch	chasser	-1	1	p	0.6990300000000002
726.7420999999999	0.2	grand	76	verb	list	2	8	nomatch	chasser	-1	1	p	0.6990300000000002
726.942	0.0	+	76	verb	list	2	9	nomatch	chasser	-1	1	p	0.6990300000000002
727.3419	0.2	patiner	76	verb	list	2	10	nomatch	chasser	-1	1	p	0.6990300000000002
727.5423999999999	0.0	+	76	verb	list	2	11	nomatch	chasser	-1	1	p	0.6990300000000002
727.9421	0.0	+	76	verb	list	2	12	nomatch	chasser	-1	1	p	0.6990300000000002
729.9407	0.0	CHASSER	76	verb	list	2	13	nomatch	chasser	-1	1	p	0.6990300000000002
730.707	0.0	+	76	verb	list	2	14	nomatch	chasser	-1	1	p	0.6990300000000002
730.6397	0.0	[response]	76	verb	list	2	15	nomatch	chasser	-1	1	p	0.6990300000000002
732.3396	0.0	+	77	verb	list	1	1	nomatch	nager	-1	1	p	0.90012
732.8893999999999	0.2	tjb	77	verb	list	1	2	nomatch	nager	-1	1	p	0.90012
733.0893	0.0	+	77	verb	list	1	3	nomatch	nager	-1	1	p	0.90012
733.4891	0.2	gpqk	77	verb	list	1	4	nomatch	nager	-1	1	p	0.90012
733.689	0.0	+	77	verb	list	1	5	nomatch	nager	-1	1	p	0.90012
734.0889	0.2	wqp	77	verb	list	1	6	nomatch	nager	-1	1	p	0.90012
734.2894	0.0	+	77	verb	list	1	7	nomatch	nager	-1	1	p	0.90012
734.6886	0.2	bfhm	77	verb	list	1	8	nomatch	nager	-1	1	p	0.90012
734.8887	0.0	+	77	verb	list	1	9	nomatch	nager	-1	1	p	0.90012
735.2882999999999	0.2	rouler	77	verb	list	1	10	nomatch	nager	-1	1	p	0.90012
735.4883	0.0	+	77	verb	list	1	11	nomatch	nager	-1	1	p	0.90012
735.8879999999999	0.0	+	77	verb	list	1	12	nomatch	nager	-1	1	p	0.90012
737.8872	0.0	NAGER	77	verb	list	1	13	nomatch	nager	-1	1	p	0.90012
738.8873	0.0	+	77	verb	list	1	14	nomatch	nager	-1	1	p	0.90012
738.7873000000001	0.0	[response]	77	verb	list	1	15	nomatch	nager	-1	1	p	0.90012
740.2860999999999	0.0	+	78	verb	list	1	1	match	patiner	5	1	y	0.65777
740.8361	0.2	cqnv	78	verb	list	1	2	match	patiner	5	1	y	0.65777
741.0357	0.0	+	78	verb	list	1	3	match	patiner	5	1	y	0.65777
741.4356	0.2	vqf	78	verb	list	1	4	match	patiner	5	1	y	0.65777
741.6359	0.0	+	78	verb	list	1	5	match	patiner	5	1	y	0.65777
742.0525	0.2	rdq	78	verb	list	1	6	match	patiner	5	1	y	0.65777
742.2356	0.0	+	78	verb	list	1	7	match	patiner	5	1	y	0.65777
742.635	0.2	gjhtq	78	verb	list	1	8	match	patiner	5	1	y	0.65777
742.8352	0.0	+	78	verb	list	1	9	match	patiner	5	1	y	0.65777
743.2348	0.2	patiner	78	verb	list	1	10	match	patiner	5	1	y	0.65777
743.4347	0.0	+	78	verb	list	1	11	match	patiner	5	1	y	0.65777
743.8344999999999	0.0	+	78	verb	list	1	12	match	patiner	5	1	y	0.65777
745.8343	0.0	PATINER	78	verb	list	1	13	match	patiner	5	1	y	0.65777
746.55	0.0	+	78	verb	list	1	14	match	patiner	5	1	y	0.65777
746.4920999999999	0.0	[response]	78	verb	list	1	15	match	patiner	5	1	y	0.65777
748.2492	0.0	+	79	verb	phrase	1	1	nomatch	mieux	-1	1	p	0.46252
748.799	0.2	ncmjhb	79	verb	phrase	1	2	nomatch	mieux	-1	1	p	0.46252
748.9993999999999	0.0	+	79	verb	phrase	1	3	nomatch	mieux	-1	1	p	0.46252
749.4160999999999	0.2	gtzv	79	verb	phrase	1	4	nomatch	mieux	-1	1	p	0.46252
749.5991	0.0	+	79	verb	phrase	1	5	nomatch	mieux	-1	1	p	0.46252
749.9984	0.2	bzct	79	verb	phrase	1	6	nomatch	mieux	-1	1	p	0.46252
750.1983	0.0	+	79	verb	phrase	1	7	nomatch	mieux	-1	1	p	0.46252
750.5982	0.2	brkds	79	verb	phrase	1	8	nomatch	mieux	-1	1	p	0.46252
750.7981	0.0	+	79	verb	phrase	1	9	nomatch	mieux	-1	1	p	0.46252
751.1979	0.2	nager	79	verb	phrase	1	10	nomatch	mieux	-1	1	p	0.46252
751.3978	0.0	+	79	verb	phrase	1	11	nomatch	mieux	-1	1	p	0.46252
751.7976	0.0	+	79	verb	phrase	1	12	nomatch	mieux	-1	1	p	0.46252
753.7967	0.0	MIEUX	79	verb	phrase	1	13	nomatch	mieux	-1	1	p	0.46252
754.3131999999999	0.0	+	79	verb	phrase	1	14	nomatch	mieux	-1	1	p	0.46252
754.2592	0.0	[response]	79	verb	phrase	1	15	nomatch	mieux	-1	1	p	0.46252
756.1956	0.0	+	80	verb	phrase	3	1	nomatch	va	-1	0	TIMEOUT	-1.0
756.7454	0.2	xmglbfn	80	verb	phrase	3	2	nomatch	va	-1	0	TIMEOUT	-1.0
756.9453	0.0	+	80	verb	phrase	3	3	nomatch	va	-1	0	TIMEOUT	-1.0
757.3451	0.2	gxnp	80	verb	phrase	3	4	nomatch	va	-1	0	TIMEOUT	-1.0
757.545	0.0	+	80	verb	phrase	3	5	nomatch	va	-1	0	TIMEOUT	-1.0
757.9449999999999	0.2	peut	80	verb	phrase	3	6	nomatch	va	-1	0	TIMEOUT	-1.0
758.1453	0.0	+	80	verb	phrase	3	7	nomatch	va	-1	0	TIMEOUT	-1.0
758.5446999999999	0.2	patiner	80	verb	phrase	3	8	nomatch	va	-1	0	TIMEOUT	-1.0
758.7447999999999	0.0	+	80	verb	phrase	3	9	nomatch	va	-1	0	TIMEOUT	-1.0
759.1442999999999	0.2	ainsi	80	verb	phrase	3	10	nomatch	va	-1	0	TIMEOUT	-1.0
759.3442	0.0	+	80	verb	phrase	3	11	nomatch	va	-1	0	TIMEOUT	-1.0
759.7441	0.0	+	80	verb	phrase	3	12	nomatch	va	-1	0	TIMEOUT	-1.0
761.7432	0.0	VA	80	verb	phrase	3	13	nomatch	va	-1	0	TIMEOUT	-1.0
764.1420999999999	0.0	+	80	verb	phrase	3	14	nomatch	va	-1	0	TIMEOUT	-1.0
765.0083999999999	0.0	+	80	verb	phrase	3	15	nomatch	va	-1	0	TIMEOUT	-1.0
765.1083	0.0	+	80	verb	phrase	3	16	nomatch	va	-1	0	TIMEOUT	-1.0
766.5077	0.0	+	80	verb	phrase	3	17	nomatch	va	-1	0	TIMEOUT	-1.0
766.6076999999999	0.0	+	80	verb	phrase	3	18	nomatch	va	-1	0	TIMEOUT	-1.0
768.0070999999999	0.0	+	80	verb	phrase	3	19	nomatch	va	-1	0	TIMEOUT	-1.0
768.107	0.0	+	80	verb	phrase	3	20	nomatch	va	-1	0	TIMEOUT	-1.0
769.5064	0.0	+	80	verb	phrase	3	21	nomatch	va	-1	0	TIMEOUT	-1.0
769.6062999999999	0.0	+	80	verb	phrase	3	22	nomatch	va	-1	0	TIMEOUT	-1.0
771.0056999999999	0.0	+	80	verb	phrase	3	23	nomatch	va	-1	0	TIMEOUT	-1.0
771.1057	0.0	+	80	verb	phrase	3	24	nomatch	va	-1	0	TIMEOUT	-1.0
772.505	0.0	+	80	verb	phrase	3	25	nomatch	va	-1	0	TIMEOUT	-1.0
772.605	0.0	+	80	verb	phrase	3	26	nomatch	va	-1	0	TIMEOUT	-1.0
774.0043999999999	0.0	+	80	verb	phrase	3	27	nomatch	va	-1	0	TIMEOUT	-1.0
774.1043	0.0	+	80	verb	phrase	3	28	nomatch	va	-1	0	TIMEOUT	-1.0
775.5037	0.0	+	80	verb	phrase	3	29	nomatch	va	-1	0	TIMEOUT	-1.0
775.6037	0.0	+	80	verb	phrase	3	30	nomatch	va	-1	0	TIMEOUT	-1.0
777.0197	0.0	+	80	verb	phrase	3	31	nomatch	va	-1	0	TIMEOUT	-1.0
777.1197	0.0	+	80	verb	phrase	3	32	nomatch	va	-1	0	TIMEOUT	-1.0
778.519	0.0	+	80	verb	phrase	3	33	nomatch	va	-1	0	TIMEOUT	-1.0
778.6189999999999	0.0	+	80	verb	phrase	3	34	nomatch	va	-1	0	TIMEOUT	-1.0
787.9648	0.0	+	80	verb	phrase	3	35	nomatch	va	-1	0	TIMEOUT	-1.0
