onset	duration	stim	trial_number	trial_type	trial_structure	trial_length	sequential_position	probe_type	probe	probe_position	response_correct	response_key	response_time
0.051400000000001	0.0	+	1	verb	list	2	1	match	rouge	5	1	y	0.85472
0.53449999999998	0.2	vfg	1	verb	list	2	2	match	rouge	5	1	y	0.85472
0.7343999999999937	0.0	+	1	verb	list	2	3	match	rouge	5	1	y	0.85472
1.1341999999999928	0.2	gxnp	1	verb	list	2	4	match	rouge	5	1	y	0.85472
1.3341000000000065	0.0	+	1	verb	list	2	5	match	rouge	5	1	y	0.85472
1.7339000000000055	0.2	rdq	1	verb	list	2	6	match	rouge	5	1	y	0.85472
1.9337999999999909	0.0	+	1	verb	list	2	7	match	rouge	5	1	y	0.85472
2.3336999999999932	0.2	nager	1	verb	list	2	8	match	rouge	5	1	y	0.85472
2.533600000000007	0.0	+	1	verb	list	2	9	match	rouge	5	1	y	0.85472
2.950099999999992	0.2	rouge	1	verb	list	2	10	match	rouge	5	1	y	0.85472
3.1500000000000057	0.0	+	1	verb	list	2	11	match	rouge	5	1	y	0.85472
3.5498000000000047	0.0	+	1	verb	list	2	12	match	rouge	5	1	y	0.85472
5.548900000000003	0.0	ROUGE	1	verb	list	2	13	match	rouge	5	1	y	0.85472
6.465199999999982	0.0	+	1	verb	list	2	14	match	rouge	5	1	y	0.85472
6.403599999999983	0.0	[response]	1	verb	list	2	15	match	rouge	5	1	y	0.85472
7.947800000000001	0.0	+	2	verb	phrase	4	1	nomatch	noir	-1	1	p	0.61726
8.497600000000006	0.2	xtzm	2	verb	phrase	4	2	nomatch	noir	-1	1	p	0.61726
8.697499999999991	0.0	+	2	verb	phrase	4	3	nomatch	noir	-1	1	p	0.61726
9.09729999999999	0.2	jean	2	verb	phrase	4	4	nomatch	noir	-1	1	p	0.61726
9.297200000000004	0.0	+	2	verb	phrase	4	5	nomatch	noir	-1	1	p	0.61726
9.697000000000003	0.2	peut	2	verb	phrase	4	6	nomatch	noir	-1	1	p	0.61726
9.896999999999991	0.0	+	2	verb	phrase	4	7	nomatch	noir	-1	1	p	0.61726
10.29679999999999	0.2	beaucoup	2	verb	phrase	4	8	nomatch	noir	-1	1	p	0.61726
10.496700000000004	0.0	+	2	verb	phrase	4	9	nomatch	noir	-1	1	p	0.61726
10.896699999999981	0.2	rouler	2	verb	phrase	4	10	nomatch	noir	-1	1	p	0.61726
11.097099999999983	0.0	+	2	verb	phrase	4	11	nomatch	noir	-1	1	p	0.61726
11.4966	0.0	+	2	verb	phrase	4	12	nomatch	noir	-1	1	p	0.61726
13.49539999999999	0.0	NOIR	2	verb	phrase	4	13	nomatch	noir	-1	1	p	0.61726
14.228399999999993	0.0	+	2	verb	phrase	4	14	nomatch	noir	-1	1	p	0.61726
14.112600000000015	0.0	[response]	2	verb	phrase	4	15	nomatch	noir	-1	1	p	0.61726
15.894300000000015	0.0	+	3	noun	list	2	1	nomatch	clavier	-1	1	p	0.75402
16.44399999999999	0.2	hqck	3	noun	list	2	2	nomatch	clavier	-1	1	p	0.75402
16.643900000000002	0.0	+	3	noun	list	2	3	nomatch	clavier	-1	1	p	0.75402
17.043800000000005	0.2	vqf	3	noun	list	2	4	nomatch	clavier	-1	1	p	0.75402
17.24370000000002	0.0	+	3	noun	list	2	5	nomatch	clavier	-1	1	p	0.75402
17.64379999999997	0.2	rdq	3	noun	list	2	6	nomatch	clavier	-1	1	p	0.75402
17.844099999999997	0.0	+	3	noun	list	2	7	nomatch	clavier	-1	1	p	0.75402
18.243899999999968	0.2	trop	3	noun	list	2	8	nomatch	clavier	-1	1	p	0.75402
18.44379999999998	0.0	+	3	noun	list	2	9	nomatch	clavier	-1	1	p	0.75402
18.84360000000001	0.2	boîtier	3	noun	list	2	10	nomatch	clavier	-1	1	p	0.75402
19.042900000000003	0.0	+	3	noun	list	2	11	nomatch	clavier	-1	1	p	0.75402
19.442699999999974	0.0	+	3	noun	list	2	12	nomatch	clavier	-1	1	p	0.75402
21.442399999999992	0.0	CLAVIER	3	noun	list	2	13	nomatch	clavier	-1	1	p	0.75402
22.258099999999985	0.0	+	3	noun	list	2	14	nomatch	clavier	-1	1	p	0.75402
22.19640000000001	0.0	[response]	3	noun	list	2	15	nomatch	clavier	-1	1	p	0.75402
31.887599999999992	0.0	+	4	verb	list	1	1	nomatch	rouge	-1	1	p	0.80789
32.3869	0.2	dkslwfq	4	verb	list	1	2	nomatch	rouge	-1	1	p	0.80789
32.58680000000001	0.0	+	4	verb	list	1	3	nomatch	rouge	-1	1	p	0.80789
32.98670000000001	0.2	tgcf	4	verb	list	1	4	nomatch	rouge	-1	1	p	0.80789
33.18659999999997	0.0	+	4	verb	list	1	5	nomatch	rouge	-1	1	p	0.80789
33.5864	0.2	wqp	4	verb	list	1	6	nomatch	rouge	-1	1	p	0.80789
33.78630000000001	0.0	+	4	verb	list	1	7	nomatch	rouge	-1	1	p	0.80789
34.18609999999998	0.2	prtlzhs	4	verb	list	1	8	nomatch	rouge	-1	1	p	0.80789
34.385999999999996	0.0	+	4	verb	list	1	9	nomatch	rouge	-1	1	p	0.80789
34.7859	0.2	blanc	4	verb	list	1	10	nomatch	rouge	-1	1	p	0.80789
34.98580000000001	0.0	+	4	verb	list	1	11	nomatch	rouge	-1	1	p	0.80789
35.38559999999998	0.0	+	4	verb	list	1	12	nomatch	rouge	-1	1	p	0.80789
37.38469999999998	0.0	ROUGE	4	verb	list	1	13	nomatch	rouge	-1	1	p	0.80789
38.251000000000005	0.0	+	4	verb	list	1	14	nomatch	rouge	-1	1	p	0.80789
38.1926	0.0	[response]	4	verb	list	1	15	nomatch	rouge	-1	1	p	0.80789
39.78369999999998	0.0	+	5	verb	phrase	3	1	nomatch	nager	-1	1	p	0.72564
40.35009999999997	0.2	mvnrl	5	verb	phrase	3	2	nomatch	nager	-1	1	p	0.72564
40.54999999999998	0.0	+	5	verb	phrase	3	3	nomatch	nager	-1	1	p	0.72564
40.94980000000001	0.2	qsdf	5	verb	phrase	3	4	nomatch	nager	-1	1	p	0.72564
41.14969999999997	0.0	+	5	verb	phrase	3	5	nomatch	nager	-1	1	p	0.72564
41.549499999999995	0.2	peut	5	verb	phrase	3	6	nomatch	nager	-1	1	p	0.72564
41.74940000000001	0.0	+	5	verb	phrase	3	7	nomatch	nager	-1	1	p	0.72564
42.14919999999998	0.2	rouler	5	verb	phrase	3	8	nomatch	nager	-1	1	p	0.72564
42.36639999999997	0.0	+	5	verb	phrase	3	9	nomatch	nager	-1	1	p	0.72564
42.749600000000015	0.2	tard	5	verb	phrase	3	10	nomatch	nager	-1	1	p	0.72564
42.94890000000001	0.0	+	5	verb	phrase	3	11	nomatch	nager	-1	1	p	0.72564
43.34869999999998	0.0	+	5	verb	phrase	3	12	nomatch	nager	-1	1	p	0.72564
45.348299999999966	0.0	NAGER	5	verb	phrase	3	13	nomatch	nager	-1	1	p	0.72564
46.214500000000015	0.0	+	5	verb	phrase	3	14	nomatch	nager	-1	1	p	0.72564
46.073999999999984	0.0	[response]	5	verb	phrase	3	15	nomatch	nager	-1	1	p	0.72564
55.76019999999997	0.0	+	6	noun	phrase	1	1	match	rocher	5	1	y	0.75398
56.29339999999999	0.2	bzw	6	noun	phrase	1	2	match	rocher	5	1	y	0.75398
56.4931	0.0	+	6	noun	phrase	1	3	match	rocher	5	1	y	0.75398
56.909700000000015	0.2	hrms	6	noun	phrase	1	4	match	rocher	5	1	y	0.75398
57.092599999999976	0.0	+	6	noun	phrase	1	5	match	rocher	5	1	y	0.75398
57.4924	0.2	rdq	6	noun	phrase	1	6	match	rocher	5	1	y	0.75398
57.69230000000002	0.0	+	6	noun	phrase	1	7	match	rocher	5	1	y	0.75398
58.09209999999999	0.2	mgvc	6	noun	phrase	1	8	match	rocher	5	1	y	0.75398
58.29209999999998	0.0	+	6	noun	phrase	1	9	match	rocher	5	1	y	0.75398
58.691900000000004	0.2	rocher	6	noun	phrase	1	10	match	rocher	5	1	y	0.75398
58.89180000000002	0.0	+	6	noun	phrase	1	11	match	rocher	5	1	y	0.75398
59.292	0.0	+	6	noun	phrase	1	12	match	rocher	5	1	y	0.75398
61.29069999999999	0.0	ROCHER	6	noun	phrase	1	13	match	rocher	5	1	y	0.75398
62.107	0.0	+	6	noun	phrase	1	14	match	rocher	5	1	y	0.75398
62.044700000000006	0.0	[response]	6	noun	phrase	1	15	match	rocher	5	1	y	0.75398
71.68609999999998	0.0	+	7	noun	phrase	3	1	nomatch	noir	-1	1	p	0.94425
72.23580000000001	0.2	hbnmdjz	7	noun	phrase	3	2	nomatch	noir	-1	1	p	0.94425
72.4358	0.0	+	7	noun	phrase	3	3	nomatch	noir	-1	1	p	0.94425
72.83559999999997	0.2	hqjx	7	noun	phrase	3	4	nomatch	noir	-1	1	p	0.94425
73.03549999999998	0.0	+	7	noun	phrase	3	5	nomatch	noir	-1	1	p	0.94425
73.43530000000001	0.2	leur	7	noun	phrase	3	6	nomatch	noir	-1	1	p	0.94425
73.63519999999997	0.0	+	7	noun	phrase	3	7	nomatch	noir	-1	1	p	0.94425
74.0522	0.2	petit	7	noun	phrase	3	8	nomatch	noir	-1	1	p	0.94425
74.23499999999999	0.0	+	7	noun	phrase	3	9	nomatch	noir	-1	1	p	0.94425
74.63550000000001	0.2	tablier	7	noun	phrase	3	10	nomatch	noir	-1	1	p	0.94425
74.8348	0.0	+	7	noun	phrase	3	11	nomatch	noir	-1	1	p	0.94425
75.23510000000002	0.0	+	7	noun	phrase	3	12	nomatch	noir	-1	1	p	0.94425
77.2336	0.0	NOIR	7	noun	phrase	3	13	nomatch	noir	-1	1	p	0.94425
78.23319999999998	0.0	+	7	noun	phrase	3	14	nomatch	noir	-1	1	p	0.94425
78.1779	0.0	[response]	7	noun	phrase	3	15	nomatch	noir	-1	1	p	0.94425
103.70590000000001	0.0	+	8	noun	list	1	1	nomatch	mieux	-1	1	p	0.64465
104.1883	0.2	bfs	8	noun	list	1	2	nomatch	mieux	-1	1	p	0.64465
104.38820000000001	0.0	+	8	noun	list	1	3	nomatch	mieux	-1	1	p	0.64465
104.78799999999998	0.2	zndv	8	noun	list	1	4	nomatch	mieux	-1	1	p	0.64465
104.9879	0.0	+	8	noun	list	1	5	nomatch	mieux	-1	1	p	0.64465
105.38769999999997	0.2	xzdl	8	noun	list	1	6	nomatch	mieux	-1	1	p	0.64465
105.58759999999998	0.0	+	8	noun	list	1	7	nomatch	mieux	-1	1	p	0.64465
105.98749999999998	0.2	xshgznc	8	noun	list	1	8	nomatch	mieux	-1	1	p	0.64465
106.1874	0.0	+	8	noun	list	1	9	nomatch	mieux	-1	1	p	0.64465
106.5875	0.2	plus	8	noun	list	1	10	nomatch	mieux	-1	1	p	0.64465
106.78720000000001	0.0	+	8	noun	list	1	11	nomatch	mieux	-1	1	p	0.64465
107.18690000000001	0.0	+	8	noun	list	1	12	nomatch	mieux	-1	1	p	0.64465
109.18659999999997	0.0	MIEUX	8	noun	list	1	13	nomatch	mieux	-1	1	p	0.64465
109.95289999999997	0.0	+	8	noun	list	1	14	nomatch	mieux	-1	1	p	0.64465
109.8312	0.0	[response]	8	noun	list	1	15	nomatch	mieux	-1	1	p	0.64465
111.58500000000001	0.0	+	9	noun	list	3	1	match	clavier	4	1	y	0.6744
112.13469999999998	0.2	rgbwzs	9	noun	list	3	2	match	clavier	4	1	y	0.6744
112.3346	0.0	+	9	noun	list	3	3	match	clavier	4	1	y	0.6744
112.73479999999998	0.2	ctdq	9	noun	list	3	4	match	clavier	4	1	y	0.6744
112.93479999999997	0.0	+	9	noun	list	3	5	match	clavier	4	1	y	0.6744
113.33430000000001	0.2	va	9	noun	list	3	6	match	clavier	4	1	y	0.6744
113.53479999999999	0.0	+	9	noun	list	3	7	match	clavier	4	1	y	0.6744
113.93440000000001	0.2	clavier	9	noun	list	3	8	match	clavier	4	1	y	0.6744
114.1346	0.0	+	9	noun	list	3	9	match	clavier	4	1	y	0.6744
114.55030000000002	0.2	loin	9	noun	list	3	10	match	clavier	4	1	y	0.6744
114.7336	0.0	+	9	noun	list	3	11	match	clavier	4	1	y	0.6744
115.15	0.0	+	9	noun	list	3	12	match	clavier	4	1	y	0.6744
117.14939999999999	0.0	CLAVIER	9	noun	list	3	13	match	clavier	4	1	y	0.6744
117.88219999999998	0.0	+	9	noun	list	3	14	match	clavier	4	1	y	0.6744
117.82379999999998	0.0	[response]	9	noun	list	3	15	match	clavier	4	1	y	0.6744
127.5447	0.0	+	10	noun	phrase	4	1	match	noir	5	1	y	1.5743
128.0943	0.2	vtdmxwf	10	noun	phrase	4	2	match	noir	5	1	y	1.5743
128.29420000000002	0.0	+	10	noun	phrase	4	3	match	noir	5	1	y	1.5743
128.694	0.2	sous	10	noun	phrase	4	4	match	noir	5	1	y	1.5743
128.8939	0.0	+	10	noun	phrase	4	5	match	noir	5	1	y	1.5743
129.2938	0.2	leur	10	noun	phrase	4	6	match	noir	5	1	y	1.5743
129.49370000000002	0.0	+	10	noun	phrase	4	7	match	noir	5	1	y	1.5743
129.8935	0.2	panier	10	noun	phrase	4	8	match	noir	5	1	y	1.5743
130.0934	0.0	+	10	noun	phrase	4	9	match	noir	5	1	y	1.5743
130.51019999999997	0.2	noir	10	noun	phrase	4	10	match	noir	5	1	y	1.5743
130.69339999999997	0.0	+	10	noun	phrase	4	11	match	noir	5	1	y	1.5743
131.09290000000001	0.0	+	10	noun	phrase	4	12	match	noir	5	1	y	1.5743
133.10939999999997	0.0	NOIR	10	noun	phrase	4	13	match	noir	5	1	y	1.5743
134.7413	0.0	+	10	noun	phrase	4	14	match	noir	5	1	y	1.5743
134.68370000000007	0.0	[response]	10	noun	phrase	4	15	match	noir	5	1	y	1.5743
135.491	0.0	+	11	verb	phrase	1	1	nomatch	tôt	-1	1	p	0.47836
136.0407	0.2	kwctzgr	11	verb	phrase	1	2	nomatch	tôt	-1	1	p	0.47836
136.2406	0.0	+	11	verb	phrase	1	3	nomatch	tôt	-1	1	p	0.47836
136.6405	0.2	qsdf	11	verb	phrase	1	4	nomatch	tôt	-1	1	p	0.47836
136.84040000000002	0.0	+	11	verb	phrase	1	5	nomatch	tôt	-1	1	p	0.47836
137.2402	0.2	bzct	11	verb	phrase	1	6	nomatch	tôt	-1	1	p	0.47836
137.4401	0.0	+	11	verb	phrase	1	7	nomatch	tôt	-1	1	p	0.47836
137.83989999999997	0.2	btcks	11	verb	phrase	1	8	nomatch	tôt	-1	1	p	0.47836
138.05679999999998	0.0	+	11	verb	phrase	1	9	nomatch	tôt	-1	1	p	0.47836
138.4571	0.2	plus	11	verb	phrase	1	10	nomatch	tôt	-1	1	p	0.47836
138.6401	0.0	+	11	verb	phrase	1	11	nomatch	tôt	-1	1	p	0.47836
139.03959999999998	0.0	+	11	verb	phrase	1	12	nomatch	tôt	-1	1	p	0.47836
141.03849999999997	0.0	TÔT	11	verb	phrase	1	13	nomatch	tôt	-1	1	p	0.47836
141.57160000000002	0.0	+	11	verb	phrase	1	14	nomatch	tôt	-1	1	p	0.47836
141.5169	0.0	[response]	11	verb	phrase	1	15	nomatch	tôt	-1	1	p	0.47836
143.4374	0.0	+	12	noun	phrase	1	1	match	nouveau	5	1	y	0.46634
143.9872	0.2	vsh	12	noun	phrase	1	2	match	nouveau	5	1	y	0.46634
144.18710000000002	0.0	+	12	noun	phrase	1	3	match	nouveau	5	1	y	0.46634
144.58689999999999	0.2	nvmf	12	noun	phrase	1	4	match	nouveau	5	1	y	0.46634
144.7868	0.0	+	12	noun	phrase	1	5	match	nouveau	5	1	y	0.46634
145.1867	0.2	xzdl	12	noun	phrase	1	6	match	nouveau	5	1	y	0.46634
145.38660000000002	0.0	+	12	noun	phrase	1	7	match	nouveau	5	1	y	0.46634
145.78669999999997	0.2	gmszdxh	12	noun	phrase	1	8	match	nouveau	5	1	y	0.46634
146.0037	0.0	+	12	noun	phrase	1	9	match	nouveau	5	1	y	0.46634
146.4032	0.2	nouveau	12	noun	phrase	1	10	match	nouveau	5	1	y	0.46634
146.58629999999997	0.0	+	12	noun	phrase	1	11	match	nouveau	5	1	y	0.46634
146.9859	0.0	+	12	noun	phrase	1	12	match	nouveau	5	1	y	0.46634
148.98499999999999	0.0	NOUVEAU	12	noun	phrase	1	13	match	nouveau	5	1	y	0.46634
149.61819999999997	0.0	+	12	noun	phrase	1	14	match	nouveau	5	1	y	0.46634
149.45129999999997	0.0	[response]	12	noun	phrase	1	15	match	nouveau	5	1	y	0.46634
151.3839	0.0	+	13	noun	list	2	1	match	tard	5	1	y	0.61676
151.93370000000002	0.2	ndws	13	noun	list	2	2	match	tard	5	1	y	0.61676
152.13359999999997	0.0	+	13	noun	list	2	3	match	tard	5	1	y	0.61676
152.54999999999998	0.2	hqjx	13	noun	list	2	4	match	tard	5	1	y	0.61676
152.75050000000002	0.0	+	13	noun	list	2	5	match	tard	5	1	y	0.61676
153.15	0.2	sk	13	noun	list	2	6	match	tard	5	1	y	0.61676
153.3497	0.0	+	13	noun	list	2	7	match	tard	5	1	y	0.61676
153.74999999999997	0.2	tablier	13	noun	list	2	8	match	tard	5	1	y	0.61676
153.9498	0.0	+	13	noun	list	2	9	match	tard	5	1	y	0.61676
154.34919999999997	0.2	tard	13	noun	list	2	10	match	tard	5	1	y	0.61676
154.5492	0.0	+	13	noun	list	2	11	match	tard	5	1	y	0.61676
154.94899999999998	0.0	+	13	noun	list	2	12	match	tard	5	1	y	0.61676
156.94809999999998	0.0	TARD	13	noun	list	2	13	match	tard	5	1	y	0.61676
157.63109999999998	0.0	+	13	noun	list	2	14	match	tard	5	1	y	0.61676
157.56480000000002	0.0	[response]	13	noun	list	2	15	match	tard	5	1	y	0.61676
159.347	0.0	+	14	noun	list	1	1	match	panier	5	1	y	1.0266
159.8968	0.2	thzjb	14	noun	list	1	2	match	panier	5	1	y	1.0266
160.09669999999997	0.0	+	14	noun	list	1	3	match	panier	5	1	y	1.0266
160.51359999999997	0.2	ctdq	14	noun	list	1	4	match	panier	5	1	y	1.0266
160.6967	0.0	+	14	noun	list	1	5	match	panier	5	1	y	1.0266
161.09619999999998	0.2	vcmh	14	noun	list	1	6	match	panier	5	1	y	1.0266
161.2961	0.0	+	14	noun	list	1	7	match	panier	5	1	y	1.0266
161.696	0.2	zfkw	14	noun	list	1	8	match	panier	5	1	y	1.0266
161.8959	0.0	+	14	noun	list	1	9	match	panier	5	1	y	1.0266
162.29569999999998	0.2	panier	14	noun	list	1	10	match	panier	5	1	y	1.0266
162.4956	0.0	+	14	noun	list	1	11	match	panier	5	1	y	1.0266
162.89539999999997	0.0	+	14	noun	list	1	12	match	panier	5	1	y	1.0266
164.89449999999997	0.0	PANIER	14	noun	list	1	13	match	panier	5	1	y	1.0266
165.97740000000002	0.0	+	14	noun	list	1	14	match	panier	5	1	y	1.0266
165.9211	0.0	[response]	14	noun	list	1	15	match	panier	5	1	y	1.0266
167.29349999999997	0.0	+	15	noun	phrase	4	1	match	avec	2	1	y	0.8280900000000001
167.8432	0.2	zdnkfps	15	noun	phrase	4	2	match	avec	2	1	y	0.8280900000000001
168.0431	0.0	+	15	noun	phrase	4	3	match	avec	2	1	y	0.8280900000000001
168.443	0.2	avec	15	noun	phrase	4	4	match	avec	2	1	y	0.8280900000000001
168.64289999999997	0.0	+	15	noun	phrase	4	5	match	avec	2	1	y	0.8280900000000001
169.04279999999997	0.2	mon	15	noun	phrase	4	6	match	avec	2	1	y	0.8280900000000001
169.24280000000002	0.0	+	15	noun	phrase	4	7	match	avec	2	1	y	0.8280900000000001
169.64309999999998	0.2	boîtier	15	noun	phrase	4	8	match	avec	2	1	y	0.8280900000000001
169.8595	0.0	+	15	noun	phrase	4	9	match	avec	2	1	y	0.8280900000000001
170.2422	0.2	rouge	15	noun	phrase	4	10	match	avec	2	1	y	0.8280900000000001
170.4421	0.0	+	15	noun	phrase	4	11	match	avec	2	1	y	0.8280900000000001
170.84189999999998	0.0	+	15	noun	phrase	4	12	match	avec	2	1	y	0.8280900000000001
172.84099999999998	0.0	AVEC	15	noun	phrase	4	13	match	avec	2	1	y	0.8280900000000001
173.72400000000002	0.0	+	15	noun	phrase	4	14	match	avec	2	1	y	0.8280900000000001
173.6691	0.0	[response]	15	noun	phrase	4	15	match	avec	2	1	y	0.8280900000000001
175.2399	0.0	+	16	noun	list	4	1	nomatch	mieux	-1	1	p	0.86423
175.7897	0.2	tldmnkj	16	noun	list	4	2	nomatch	mieux	-1	1	p	0.86423
175.98959999999997	0.0	+	16	noun	list	4	3	nomatch	mieux	-1	1	p	0.86423
176.3894	0.2	paul	16	noun	list	4	4	nomatch	mieux	-1	1	p	0.86423
176.5896	0.0	+	16	noun	list	4	5	nomatch	mieux	-1	1	p	0.86423
177.00589999999997	0.2	son	16	noun	list	4	6	nomatch	mieux	-1	1	p	0.86423
177.18980000000002	0.0	+	16	noun	list	4	7	nomatch	mieux	-1	1	p	0.86423
177.6059	0.2	moins	16	noun	list	4	8	nomatch	mieux	-1	1	p	0.86423
177.78919999999997	0.0	+	16	noun	list	4	9	nomatch	mieux	-1	1	p	0.86423
178.18859999999998	0.2	rocher	16	noun	list	4	10	nomatch	mieux	-1	1	p	0.86423
178.3885	0.0	+	16	noun	list	4	11	nomatch	mieux	-1	1	p	0.86423
178.78830000000002	0.0	+	16	noun	list	4	12	nomatch	mieux	-1	1	p	0.86423
180.78779999999998	0.0	MIEUX	16	noun	list	4	13	nomatch	mieux	-1	1	p	0.86423
181.7037	0.0	+	16	noun	list	4	14	nomatch	mieux	-1	1	p	0.86423
181.6521	0.0	[response]	16	noun	list	4	15	nomatch	mieux	-1	1	p	0.86423
183.18640000000002	0.0	+	17	noun	phrase	3	1	nomatch	peut	-1	1	p	0.6802400000000001
183.7535	0.2	cqrsmkt	17	noun	phrase	3	2	nomatch	peut	-1	1	p	0.6802400000000001
183.93609999999998	0.0	+	17	noun	phrase	3	3	nomatch	peut	-1	1	p	0.6802400000000001
184.33610000000002	0.2	vrzh	17	noun	phrase	3	4	nomatch	peut	-1	1	p	0.6802400000000001
184.53579999999997	0.0	+	17	noun	phrase	3	5	nomatch	peut	-1	1	p	0.6802400000000001
184.9356	0.2	mon	17	noun	phrase	3	6	nomatch	peut	-1	1	p	0.6802400000000001
185.1355	0.0	+	17	noun	phrase	3	7	nomatch	peut	-1	1	p	0.6802400000000001
185.53529999999998	0.2	casier	17	noun	phrase	3	8	nomatch	peut	-1	1	p	0.6802400000000001
185.7352	0.0	+	17	noun	phrase	3	9	nomatch	peut	-1	1	p	0.6802400000000001
186.1351	0.2	rouge	17	noun	phrase	3	10	nomatch	peut	-1	1	p	0.6802400000000001
186.335	0.0	+	17	noun	phrase	3	11	nomatch	peut	-1	1	p	0.6802400000000001
186.73479999999998	0.0	+	17	noun	phrase	3	12	nomatch	peut	-1	1	p	0.6802400000000001
188.73389999999998	0.0	PEUT	17	noun	phrase	3	13	nomatch	peut	-1	1	p	0.6802400000000001
189.46689999999998	0.0	+	17	noun	phrase	3	14	nomatch	peut	-1	1	p	0.6802400000000001
189.4141	0.0	[response]	17	noun	phrase	3	15	nomatch	peut	-1	1	p	0.6802400000000001
191.14950000000002	0.0	+	18	noun	list	4	1	match	doit	3	1	y	1.5050000000000001
191.69929999999997	0.2	gwm	18	noun	list	4	2	match	doit	3	1	y	1.5050000000000001
191.89919999999998	0.0	+	18	noun	list	4	3	match	doit	3	1	y	1.5050000000000001
192.299	0.2	dans	18	noun	list	4	4	match	doit	3	1	y	1.5050000000000001
192.49890000000002	0.0	+	18	noun	list	4	5	match	doit	3	1	y	1.5050000000000001
192.8987	0.2	doit	18	noun	list	4	6	match	doit	3	1	y	1.5050000000000001
193.0986	0.0	+	18	noun	list	4	7	match	doit	3	1	y	1.5050000000000001
193.499	0.2	tablier	18	noun	list	4	8	match	doit	3	1	y	1.5050000000000001
193.71540000000002	0.0	+	18	noun	list	4	9	match	doit	3	1	y	1.5050000000000001
194.0982	0.2	tard	18	noun	list	4	10	match	doit	3	1	y	1.5050000000000001
194.2981	0.0	+	18	noun	list	4	11	match	doit	3	1	y	1.5050000000000001
194.69789999999998	0.0	+	18	noun	list	4	12	match	doit	3	1	y	1.5050000000000001
196.69750000000002	0.0	DOIT	18	noun	list	4	13	match	doit	3	1	y	1.5050000000000001
198.263	0.0	+	18	noun	list	4	14	match	doit	3	1	y	1.5050000000000001
198.20250000000001	0.0	[response]	18	noun	list	4	15	match	doit	3	1	y	1.5050000000000001
199.09599999999998	0.0	+	19	noun	phrase	1	1	match	panier	5	1	y	0.49281
199.6457	0.2	mklfbch	19	noun	phrase	1	2	match	panier	5	1	y	0.49281
199.84560000000002	0.0	+	19	noun	phrase	1	3	match	panier	5	1	y	0.49281
200.2454	0.2	vrzh	19	noun	phrase	1	4	match	panier	5	1	y	0.49281
200.44539999999998	0.0	+	19	noun	phrase	1	5	match	panier	5	1	y	0.49281
200.8452	0.2	wqp	19	noun	phrase	1	6	match	panier	5	1	y	0.49281
201.04510000000002	0.0	+	19	noun	phrase	1	7	match	panier	5	1	y	0.49281
201.4449	0.2	rtlpm	19	noun	phrase	1	8	match	panier	5	1	y	0.49281
201.6448	0.0	+	19	noun	phrase	1	9	match	panier	5	1	y	0.49281
202.04459999999997	0.2	panier	19	noun	phrase	1	10	match	panier	5	1	y	0.49281
202.24460000000002	0.0	+	19	noun	phrase	1	11	match	panier	5	1	y	0.49281
202.645	0.0	+	19	noun	phrase	1	12	match	panier	5	1	y	0.49281
204.6435	0.0	PANIER	19	noun	phrase	1	13	match	panier	5	1	y	0.49281
205.1935	0.0	+	19	noun	phrase	1	14	match	panier	5	1	y	0.49281
205.13629999999998	0.0	[response]	19	noun	phrase	1	15	match	panier	5	1	y	0.49281
207.04240000000001	0.0	+	20	verb	list	3	1	match	galoper	4	1	y	0.91838
207.59220000000002	0.2	vlxq	20	verb	list	3	2	match	galoper	4	1	y	0.91838
207.79209999999998	0.0	+	20	verb	list	3	3	match	galoper	4	1	y	0.91838
208.1919	0.2	gxnp	20	verb	list	3	4	match	galoper	4	1	y	0.91838
208.39180000000002	0.0	+	20	verb	list	3	5	match	galoper	4	1	y	0.91838
208.7916	0.2	leur	20	verb	list	3	6	match	galoper	4	1	y	0.91838
208.9915	0.0	+	20	verb	list	3	7	match	galoper	4	1	y	0.91838
209.3914	0.2	galoper	20	verb	list	3	8	match	galoper	4	1	y	0.91838
209.59169999999997	0.0	+	20	verb	list	3	9	match	galoper	4	1	y	0.91838
209.99139999999997	0.2	bleu	20	verb	list	3	10	match	galoper	4	1	y	0.91838
210.1917	0.0	+	20	verb	list	3	11	match	galoper	4	1	y	0.91838
210.5912	0.0	+	20	verb	list	3	12	match	galoper	4	1	y	0.91838
212.59	0.0	GALOPER	20	verb	list	3	13	match	galoper	4	1	y	0.91838
213.65689999999998	0.0	+	20	verb	list	3	14	match	galoper	4	1	y	0.91838
213.50830000000005	0.0	[response]	20	verb	list	3	15	match	galoper	4	1	y	0.91838
214.98889999999997	0.0	+	21	noun	list	2	1	nomatch	mon	-1	1	p	1.2168
215.5386	0.2	lkztq	21	noun	list	2	2	nomatch	mon	-1	1	p	1.2168
215.73850000000002	0.0	+	21	noun	list	2	3	nomatch	mon	-1	1	p	1.2168
216.13840000000002	0.2	tgcf	21	noun	list	2	4	nomatch	mon	-1	1	p	1.2168
216.33829999999998	0.0	+	21	noun	list	2	5	nomatch	mon	-1	1	p	1.2168
216.7383	0.2	xzdl	21	noun	list	2	6	nomatch	mon	-1	1	p	1.2168
216.93839999999997	0.0	+	21	noun	list	2	7	nomatch	mon	-1	1	p	1.2168
217.338	0.2	mieux	21	noun	list	2	8	nomatch	mon	-1	1	p	1.2168
217.5545	0.0	+	21	noun	list	2	9	nomatch	mon	-1	1	p	1.2168
217.93819999999997	0.2	rocher	21	noun	list	2	10	nomatch	mon	-1	1	p	1.2168
218.13750000000002	0.0	+	21	noun	list	2	11	nomatch	mon	-1	1	p	1.2168
218.5373	0.0	+	21	noun	list	2	12	nomatch	mon	-1	1	p	1.2168
220.5364	0.0	MON	21	noun	list	2	13	nomatch	mon	-1	1	p	1.2168
221.8192	0.0	+	21	noun	list	2	14	nomatch	mon	-1	1	p	1.2168
221.75320000000008	0.0	[response]	21	noun	list	2	15	nomatch	mon	-1	1	p	1.2168
222.9353	0.0	+	22	noun	phrase	1	1	nomatch	leur	-1	1	p	0.68161
223.48510000000002	0.2	jkxztv	22	noun	phrase	1	2	nomatch	leur	-1	1	p	0.68161
223.68499999999997	0.0	+	22	noun	phrase	1	3	nomatch	leur	-1	1	p	0.68161
224.0848	0.2	ctdq	22	noun	phrase	1	4	nomatch	leur	-1	1	p	0.68161
224.28470000000002	0.0	+	22	noun	phrase	1	5	nomatch	leur	-1	1	p	0.68161
224.68499999999997	0.2	rdq	22	noun	phrase	1	6	nomatch	leur	-1	1	p	0.68161
224.88469999999998	0.0	+	22	noun	phrase	1	7	nomatch	leur	-1	1	p	0.68161
225.2843	0.2	xjplbd	22	noun	phrase	1	8	nomatch	leur	-1	1	p	0.68161
225.48420000000002	0.0	+	22	noun	phrase	1	9	nomatch	leur	-1	1	p	0.68161
225.884	0.2	rouge	22	noun	phrase	1	10	nomatch	leur	-1	1	p	0.68161
226.0839	0.0	+	22	noun	phrase	1	11	nomatch	leur	-1	1	p	0.68161
226.4838	0.0	+	22	noun	phrase	1	12	nomatch	leur	-1	1	p	0.68161
228.49949999999998	0.0	LEUR	22	noun	phrase	1	13	nomatch	leur	-1	1	p	0.68161
229.2325	0.0	+	22	noun	phrase	1	14	nomatch	leur	-1	1	p	0.68161
229.18110000000004	0.0	[response]	22	noun	phrase	1	15	nomatch	leur	-1	1	p	0.68161
230.9487	0.0	+	23	noun	list	1	1	nomatch	tôt	-1	1	p	0.56716
231.4482	0.2	cwjp	23	noun	list	1	2	nomatch	tôt	-1	1	p	0.56716
231.64809999999997	0.0	+	23	noun	list	1	3	nomatch	tôt	-1	1	p	0.56716
232.0479	0.2	rkh	23	noun	list	1	4	nomatch	tôt	-1	1	p	0.56716
232.2478	0.0	+	23	noun	list	1	5	nomatch	tôt	-1	1	p	0.56716
232.64770000000001	0.2	sk	23	noun	list	1	6	nomatch	tôt	-1	1	p	0.56716
232.84759999999997	0.0	+	23	noun	list	1	7	nomatch	tôt	-1	1	p	0.56716
233.2474	0.2	fnvpbld	23	noun	list	1	8	nomatch	tôt	-1	1	p	0.56716
233.4473	0.0	+	23	noun	list	1	9	nomatch	tôt	-1	1	p	0.56716
233.84709999999998	0.2	loin	23	noun	list	1	10	nomatch	tôt	-1	1	p	0.56716
234.047	0.0	+	23	noun	list	1	11	nomatch	tôt	-1	1	p	0.56716
234.4469	0.0	+	23	noun	list	1	12	nomatch	tôt	-1	1	p	0.56716
236.446	0.0	TÔT	23	noun	list	1	13	nomatch	tôt	-1	1	p	0.56716
237.07899999999998	0.0	+	23	noun	list	1	14	nomatch	tôt	-1	1	p	0.56716
237.01310000000004	0.0	[response]	23	noun	list	1	15	nomatch	tôt	-1	1	p	0.56716
254.88809999999998	0.0	+	24	noun	phrase	4	1	nomatch	chasser	-1	1	p	0.98775
255.38750000000002	0.2	zjm	24	noun	phrase	4	2	nomatch	chasser	-1	1	p	0.98775
255.58739999999997	0.0	+	24	noun	phrase	4	3	nomatch	chasser	-1	1	p	0.98775
255.98729999999998	0.2	vers	24	noun	phrase	4	4	nomatch	chasser	-1	1	p	0.98775
256.18719999999996	0.0	+	24	noun	phrase	4	5	nomatch	chasser	-1	1	p	0.98775
256.587	0.2	leur	24	noun	phrase	4	6	nomatch	chasser	-1	1	p	0.98775
256.78689999999995	0.0	+	24	noun	phrase	4	7	nomatch	chasser	-1	1	p	0.98775
257.1867	0.2	beau	24	noun	phrase	4	8	nomatch	chasser	-1	1	p	0.98775
257.38660000000004	0.0	+	24	noun	phrase	4	9	nomatch	chasser	-1	1	p	0.98775
257.78650000000005	0.2	rocher	24	noun	phrase	4	10	nomatch	chasser	-1	1	p	0.98775
257.98709999999994	0.0	+	24	noun	phrase	4	11	nomatch	chasser	-1	1	p	0.98775
258.38620000000003	0.0	+	24	noun	phrase	4	12	nomatch	chasser	-1	1	p	0.98775
260.38530000000003	0.0	CHASSER	24	noun	phrase	4	13	nomatch	chasser	-1	1	p	0.98775
261.4348	0.0	+	24	noun	phrase	4	14	nomatch	chasser	-1	1	p	0.98775
261.37300000000005	0.0	[response]	24	noun	phrase	4	15	nomatch	chasser	-1	1	p	0.98775
262.78430000000003	0.0	+	25	noun	phrase	1	1	match	vert	5	1	y	0.88919
263.33399999999995	0.2	nlkgwv	25	noun	phrase	1	2	match	vert	5	1	y	0.88919
263.5339	0.0	+	25	noun	phrase	1	3	match	vert	5	1	y	0.88919
263.93370000000004	0.2	hrms	25	noun	phrase	1	4	match	vert	5	1	y	0.88919
264.1336	0.0	+	25	noun	phrase	1	5	match	vert	5	1	y	0.88919
264.55010000000004	0.2	wqp	25	noun	phrase	1	6	match	vert	5	1	y	0.88919
264.75	0.0	+	25	noun	phrase	1	7	match	vert	5	1	y	0.88919
265.15009999999995	0.2	kdvwnxf	25	noun	phrase	1	8	match	vert	5	1	y	0.88919
265.34979999999996	0.0	+	25	noun	phrase	1	9	match	vert	5	1	y	0.88919
265.7501	0.2	vert	25	noun	phrase	1	10	match	vert	5	1	y	0.88919
265.94949999999994	0.0	+	25	noun	phrase	1	11	match	vert	5	1	y	0.88919
266.34929999999997	0.0	+	25	noun	phrase	1	12	match	vert	5	1	y	0.88919
268.34839999999997	0.0	VERT	25	noun	phrase	1	13	match	vert	5	1	y	0.88919
269.34799999999996	0.0	+	25	noun	phrase	1	14	match	vert	5	1	y	0.88919
269.23760000000004	0.0	[response]	25	noun	phrase	1	15	match	vert	5	1	y	0.88919
270.74739999999997	0.0	+	26	verb	list	4	1	nomatch	plonger	-1	1	p	0.79155
271.2971	0.2	ctx	26	verb	list	4	2	nomatch	plonger	-1	1	p	0.79155
271.49699999999996	0.0	+	26	verb	list	4	3	nomatch	plonger	-1	1	p	0.79155
271.8968	0.2	sous	26	verb	list	4	4	nomatch	plonger	-1	1	p	0.79155
272.0967999999999	0.0	+	26	verb	list	4	5	nomatch	plonger	-1	1	p	0.79155
272.49659999999994	0.2	peut	26	verb	list	4	6	nomatch	plonger	-1	1	p	0.79155
272.6965	0.0	+	26	verb	list	4	7	nomatch	plonger	-1	1	p	0.79155
273.0969	0.2	grand	26	verb	list	4	8	nomatch	plonger	-1	1	p	0.79155
273.3134	0.0	+	26	verb	list	4	9	nomatch	plonger	-1	1	p	0.79155
273.6965	0.2	voyager	26	verb	list	4	10	nomatch	plonger	-1	1	p	0.79155
273.8959	0.0	+	26	verb	list	4	11	nomatch	plonger	-1	1	p	0.79155
274.2958	0.0	+	26	verb	list	4	12	nomatch	plonger	-1	1	p	0.79155
276.2949	0.0	PLONGER	26	verb	list	4	13	nomatch	plonger	-1	1	p	0.79155
277.1445	0.0	+	26	verb	list	4	14	nomatch	plonger	-1	1	p	0.79155
277.0863999999999	0.0	[response]	26	verb	list	4	15	nomatch	plonger	-1	1	p	0.79155
278.6938	0.0	+	27	noun	list	1	1	match	tard	5	1	y	0.42193
279.2436	0.2	jxqmbrd	27	noun	list	1	2	match	tard	5	1	y	0.42193
279.4435	0.0	+	27	noun	list	1	3	match	tard	5	1	y	0.42193
279.8433	0.2	hrms	27	noun	list	1	4	match	tard	5	1	y	0.42193
280.04319999999996	0.0	+	27	noun	list	1	5	match	tard	5	1	y	0.42193
280.443	0.2	vcmh	27	noun	list	1	6	match	tard	5	1	y	0.42193
280.6603	0.0	+	27	noun	list	1	7	match	tard	5	1	y	0.42193
281.0431	0.2	kdvwnxf	27	noun	list	1	8	match	tard	5	1	y	0.42193
281.2428	0.0	+	27	noun	list	1	9	match	tard	5	1	y	0.42193
281.6598	0.2	tard	27	noun	list	1	10	match	tard	5	1	y	0.42193
281.8428	0.0	+	27	noun	list	1	11	match	tard	5	1	y	0.42193
282.2421999999999	0.0	+	27	noun	list	1	12	match	tard	5	1	y	0.42193
284.2414	0.0	TARD	27	noun	list	1	13	match	tard	5	1	y	0.42193
284.8417999999999	0.0	+	27	noun	list	1	14	match	tard	5	1	y	0.42193
284.6634	0.0	[response]	27	noun	list	1	15	match	tard	5	1	y	0.42193
286.6402999999999	0.0	+	28	noun	phrase	1	1	match	clavier	5	1	y	0.5553600000000001
287.18999999999994	0.2	wglfsdx	28	noun	phrase	1	2	match	clavier	5	1	y	0.5553600000000001
287.3899	0.0	+	28	noun	phrase	1	3	match	clavier	5	1	y	0.5553600000000001
287.7899	0.2	jqbv	28	noun	phrase	1	4	match	clavier	5	1	y	0.5553600000000001
287.99019999999996	0.0	+	28	noun	phrase	1	5	match	clavier	5	1	y	0.5553600000000001
288.4068	0.2	rdq	28	noun	phrase	1	6	match	clavier	5	1	y	0.5553600000000001
288.5897	0.0	+	28	noun	phrase	1	7	match	clavier	5	1	y	0.5553600000000001
288.98979999999995	0.2	gjhtq	28	noun	phrase	1	8	match	clavier	5	1	y	0.5553600000000001
289.18909999999994	0.0	+	28	noun	phrase	1	9	match	clavier	5	1	y	0.5553600000000001
289.58889999999997	0.2	clavier	28	noun	phrase	1	10	match	clavier	5	1	y	0.5553600000000001
289.7889	0.0	+	28	noun	phrase	1	11	match	clavier	5	1	y	0.5553600000000001
290.1886999999999	0.0	+	28	noun	phrase	1	12	match	clavier	5	1	y	0.5553600000000001
292.1877999999999	0.0	CLAVIER	28	noun	phrase	1	13	match	clavier	5	1	y	0.5553600000000001
292.8041999999999	0.0	+	28	noun	phrase	1	14	match	clavier	5	1	y	0.5553600000000001
292.7430999999999	0.0	[response]	28	noun	phrase	1	15	match	clavier	5	1	y	0.5553600000000001
294.58669999999995	0.0	+	29	noun	list	4	1	nomatch	sous	-1	1	p	0.69459
295.13649999999996	0.2	zdqw	29	noun	list	4	2	nomatch	sous	-1	1	p	0.69459
295.3363999999999	0.0	+	29	noun	list	4	3	nomatch	sous	-1	1	p	0.69459
295.7368	0.2	pour	29	noun	list	4	4	nomatch	sous	-1	1	p	0.69459
295.9366	0.0	+	29	noun	list	4	5	nomatch	sous	-1	1	p	0.69459
296.3358999999999	0.2	va	29	noun	list	4	6	nomatch	sous	-1	1	p	0.69459
296.53589999999997	0.0	+	29	noun	list	4	7	nomatch	sous	-1	1	p	0.69459
296.9357	0.2	panier	29	noun	list	4	8	nomatch	sous	-1	1	p	0.69459
297.13559999999995	0.0	+	29	noun	list	4	9	nomatch	sous	-1	1	p	0.69459
297.5354	0.2	tôt	29	noun	list	4	10	nomatch	sous	-1	1	p	0.69459
297.73529999999994	0.0	+	29	noun	list	4	11	nomatch	sous	-1	1	p	0.69459
298.13509999999997	0.0	+	29	noun	list	4	12	nomatch	sous	-1	1	p	0.69459
300.13429999999994	0.0	SOUS	29	noun	list	4	13	nomatch	sous	-1	1	p	0.69459
300.8838999999999	0.0	+	29	noun	list	4	14	nomatch	sous	-1	1	p	0.69459
300.8288	0.0	[response]	29	noun	list	4	15	nomatch	sous	-1	1	p	0.69459
318.59309999999994	0.0	+	30	noun	phrase	2	1	nomatch	paul	-1	1	p	0.68362
319.0929	0.2	hpsgd	30	noun	phrase	2	2	nomatch	paul	-1	1	p	0.68362
319.29239999999993	0.0	+	30	noun	phrase	2	3	nomatch	paul	-1	1	p	0.68362
319.69219999999996	0.2	hqjx	30	noun	phrase	2	4	nomatch	paul	-1	1	p	0.68362
319.8920999999999	0.0	+	30	noun	phrase	2	5	nomatch	paul	-1	1	p	0.68362
320.29189999999994	0.2	rdq	30	noun	phrase	2	6	nomatch	paul	-1	1	p	0.68362
320.4918	0.0	+	30	noun	phrase	2	7	nomatch	paul	-1	1	p	0.68362
320.8917	0.2	tablier	30	noun	phrase	2	8	nomatch	paul	-1	1	p	0.68362
321.09159999999997	0.0	+	30	noun	phrase	2	9	nomatch	paul	-1	1	p	0.68362
321.4914	0.2	bleu	30	noun	phrase	2	10	nomatch	paul	-1	1	p	0.68362
321.69129999999996	0.0	+	30	noun	phrase	2	11	nomatch	paul	-1	1	p	0.68362
322.0911	0.0	+	30	noun	phrase	2	12	nomatch	paul	-1	1	p	0.68362
324.0905	0.0	PAUL	30	noun	phrase	2	13	nomatch	paul	-1	1	p	0.68362
324.83989999999994	0.0	+	30	noun	phrase	2	14	nomatch	paul	-1	1	p	0.68362
324.77419999999995	0.0	[response]	30	noun	phrase	2	15	nomatch	paul	-1	1	p	0.68362
326.4892	0.0	+	31	verb	list	4	1	nomatch	nouveau	-1	1	p	0.64748
327.0389	0.2	scr	31	verb	list	4	2	nomatch	nouveau	-1	1	p	0.64748
327.23879999999997	0.0	+	31	verb	list	4	3	nomatch	nouveau	-1	1	p	0.64748
327.6387	0.2	sur	31	verb	list	4	4	nomatch	nouveau	-1	1	p	0.64748
327.8555	0.0	+	31	verb	list	4	5	nomatch	nouveau	-1	1	p	0.64748
328.2557999999999	0.2	doit	31	verb	list	4	6	nomatch	nouveau	-1	1	p	0.64748
328.4388	0.0	+	31	verb	list	4	7	nomatch	nouveau	-1	1	p	0.64748
328.8381999999999	0.2	beau	31	verb	list	4	8	nomatch	nouveau	-1	1	p	0.64748
329.0381	0.0	+	31	verb	list	4	9	nomatch	nouveau	-1	1	p	0.64748
329.4379	0.2	parader	31	verb	list	4	10	nomatch	nouveau	-1	1	p	0.64748
329.63779999999997	0.0	+	31	verb	list	4	11	nomatch	nouveau	-1	1	p	0.64748
330.0376	0.0	+	31	verb	list	4	12	nomatch	nouveau	-1	1	p	0.64748
332.0367	0.0	NOUVEAU	31	verb	list	4	13	nomatch	nouveau	-1	1	p	0.64748
332.7364	0.0	+	31	verb	list	4	14	nomatch	nouveau	-1	1	p	0.64748
332.6841999999999	0.0	[response]	31	verb	list	4	15	nomatch	nouveau	-1	1	p	0.64748
334.4355999999999	0.0	+	32	noun	phrase	2	1	match	rocher	4	0	TIMEOUT	-1.0
334.9853999999999	0.2	fnr	32	noun	phrase	2	2	match	rocher	4	0	TIMEOUT	-1.0
335.1853	0.0	+	32	noun	phrase	2	3	match	rocher	4	0	TIMEOUT	-1.0
335.5852	0.2	hqjx	32	noun	phrase	2	4	match	rocher	4	0	TIMEOUT	-1.0
335.7857	0.0	+	32	noun	phrase	2	5	match	rocher	4	0	TIMEOUT	-1.0
336.1848	0.2	rdq	32	noun	phrase	2	6	match	rocher	4	0	TIMEOUT	-1.0
336.3847999999999	0.0	+	32	noun	phrase	2	7	match	rocher	4	0	TIMEOUT	-1.0
336.7853	0.2	rocher	32	noun	phrase	2	8	match	rocher	4	0	TIMEOUT	-1.0
336.985	0.0	+	32	noun	phrase	2	9	match	rocher	4	0	TIMEOUT	-1.0
337.3847999999999	0.2	rouge	32	noun	phrase	2	10	match	rocher	4	0	TIMEOUT	-1.0
337.60159999999996	0.0	+	32	noun	phrase	2	11	match	rocher	4	0	TIMEOUT	-1.0
337.9839999999999	0.0	+	32	noun	phrase	2	12	match	rocher	4	0	TIMEOUT	-1.0
340.0002999999999	0.0	ROCHER	32	noun	phrase	2	13	match	rocher	4	0	TIMEOUT	-1.0
342.39869999999996	0.0	+	33	noun	phrase	1	1	match	blanc	5	1	y	0.48827
342.9984999999999	0.2	zhvxlr	33	noun	phrase	1	2	match	blanc	5	1	y	0.48827
343.1984	0.0	+	33	noun	phrase	1	3	match	blanc	5	1	y	0.48827
343.5982	0.2	nvmf	33	noun	phrase	1	4	match	blanc	5	1	y	0.48827
343.7981	0.0	+	33	noun	phrase	1	5	match	blanc	5	1	y	0.48827
344.1979	0.2	xzdl	33	noun	phrase	1	6	match	blanc	5	1	y	0.48827
344.39789999999994	0.0	+	33	noun	phrase	1	7	match	blanc	5	1	y	0.48827
344.79769999999996	0.2	gmszdxh	33	noun	phrase	1	8	match	blanc	5	1	y	0.48827
344.9975999999999	0.0	+	33	noun	phrase	1	9	match	blanc	5	1	y	0.48827
345.39739999999995	0.2	blanc	33	noun	phrase	1	10	match	blanc	5	1	y	0.48827
345.5973	0.0	+	33	noun	phrase	1	11	match	blanc	5	1	y	0.48827
346.01419999999996	0.0	+	33	noun	phrase	1	12	match	blanc	5	1	y	0.48827
347.99619999999993	0.0	BLANC	33	noun	phrase	1	13	match	blanc	5	1	y	0.48827
348.54599999999994	0.0	+	33	noun	phrase	1	14	match	blanc	5	1	y	0.48827
348.4844999999999	0.0	[response]	33	noun	phrase	1	15	match	blanc	5	1	y	0.48827
350.39519999999993	0.0	+	34	noun	phrase	3	1	match	bleu	5	1	y	0.74741
350.94489999999996	0.2	kspvqlb	34	noun	phrase	3	2	match	bleu	5	1	y	0.74741
351.1449	0.0	+	34	noun	phrase	3	3	match	bleu	5	1	y	0.74741
351.5446999999999	0.2	hrms	34	noun	phrase	3	4	match	bleu	5	1	y	0.74741
351.7446	0.0	+	34	noun	phrase	3	5	match	bleu	5	1	y	0.74741
352.1444	0.2	mon	34	noun	phrase	3	6	match	bleu	5	1	y	0.74741
352.3615	0.0	+	34	noun	phrase	3	7	match	bleu	5	1	y	0.74741
352.7446	0.2	tablier	34	noun	phrase	3	8	match	bleu	5	1	y	0.74741
352.96079999999995	0.0	+	34	noun	phrase	3	9	match	bleu	5	1	y	0.74741
353.34389999999996	0.2	bleu	34	noun	phrase	3	10	match	bleu	5	1	y	0.74741
353.5437999999999	0.0	+	34	noun	phrase	3	11	match	bleu	5	1	y	0.74741
353.94359999999995	0.0	+	34	noun	phrase	3	12	match	bleu	5	1	y	0.74741
355.94269999999995	0.0	BLEU	34	noun	phrase	3	13	match	bleu	5	1	y	0.74741
356.7424	0.0	+	34	noun	phrase	3	14	match	bleu	5	1	y	0.74741
356.6900999999999	0.0	[response]	34	noun	phrase	3	15	match	bleu	5	1	y	0.74741
358.34159999999997	0.0	+	35	noun	phrase	3	1	nomatch	jade	-1	1	p	0.56827
358.8914	0.2	pnx	35	noun	phrase	3	2	nomatch	jade	-1	1	p	0.56827
359.09129999999993	0.0	+	35	noun	phrase	3	3	nomatch	jade	-1	1	p	0.56827
359.4914	0.2	nvmf	35	noun	phrase	3	4	nomatch	jade	-1	1	p	0.56827
359.6915	0.0	+	35	noun	phrase	3	5	nomatch	jade	-1	1	p	0.56827
360.09079999999994	0.2	son	35	noun	phrase	3	6	nomatch	jade	-1	1	p	0.56827
360.2908	0.0	+	35	noun	phrase	3	7	nomatch	jade	-1	1	p	0.56827
360.6906	0.2	vieux	35	noun	phrase	3	8	nomatch	jade	-1	1	p	0.56827
360.8905	0.0	+	35	noun	phrase	3	9	nomatch	jade	-1	1	p	0.56827
361.2903	0.2	rocher	35	noun	phrase	3	10	nomatch	jade	-1	1	p	0.56827
361.49019999999996	0.0	+	35	noun	phrase	3	11	nomatch	jade	-1	1	p	0.56827
361.89009999999996	0.0	+	35	noun	phrase	3	12	nomatch	jade	-1	1	p	0.56827
363.88919999999996	0.0	JADE	35	noun	phrase	3	13	nomatch	jade	-1	1	p	0.56827
364.5222	0.0	+	35	noun	phrase	3	14	nomatch	jade	-1	1	p	0.56827
364.4574	0.0	[response]	35	noun	phrase	3	15	nomatch	jade	-1	1	p	0.56827
366.2881	0.0	+	36	noun	list	3	1	nomatch	clavier	-1	1	p	0.60541
366.8378	0.2	ftprgq	36	noun	list	3	2	nomatch	clavier	-1	1	p	0.60541
367.03779999999995	0.0	+	36	noun	list	3	3	nomatch	clavier	-1	1	p	0.60541
367.4376	0.2	rkh	36	noun	list	3	4	nomatch	clavier	-1	1	p	0.60541
367.63749999999993	0.0	+	36	noun	list	3	5	nomatch	clavier	-1	1	p	0.60541
368.03729999999996	0.2	peut	36	noun	list	3	6	nomatch	clavier	-1	1	p	0.60541
368.23749999999995	0.0	+	36	noun	list	3	7	nomatch	clavier	-1	1	p	0.60541
368.65409999999997	0.2	boîtier	36	noun	list	3	8	nomatch	clavier	-1	1	p	0.60541
368.83759999999995	0.0	+	36	noun	list	3	9	nomatch	clavier	-1	1	p	0.60541
369.2368	0.2	tôt	36	noun	list	3	10	nomatch	clavier	-1	1	p	0.60541
369.4367	0.0	+	36	noun	list	3	11	nomatch	clavier	-1	1	p	0.60541
369.8365	0.0	+	36	noun	list	3	12	nomatch	clavier	-1	1	p	0.60541
371.8356	0.0	CLAVIER	36	noun	list	3	13	nomatch	clavier	-1	1	p	0.60541
372.50199999999995	0.0	+	36	noun	list	3	14	nomatch	clavier	-1	1	p	0.60541
372.4409999999999	0.0	[response]	36	noun	list	3	15	nomatch	clavier	-1	1	p	0.60541
374.2346	0.0	+	37	verb	phrase	1	1	nomatch	petit	-1	1	p	0.58618
374.7842999999999	0.2	vpx	37	verb	phrase	1	2	nomatch	petit	-1	1	p	0.58618
374.9842	0.0	+	37	verb	phrase	1	3	nomatch	petit	-1	1	p	0.58618
375.384	0.2	gtzv	37	verb	phrase	1	4	nomatch	petit	-1	1	p	0.58618
375.58389999999997	0.0	+	37	verb	phrase	1	5	nomatch	petit	-1	1	p	0.58618
375.9838	0.2	bzct	37	verb	phrase	1	6	nomatch	petit	-1	1	p	0.58618
376.18369999999993	0.0	+	37	verb	phrase	1	7	nomatch	petit	-1	1	p	0.58618
376.5843	0.2	swbfgn	37	verb	phrase	1	8	nomatch	petit	-1	1	p	0.58618
376.81679999999994	0.0	+	37	verb	phrase	1	9	nomatch	petit	-1	1	p	0.58618
377.19989999999996	0.2	moins	37	verb	phrase	1	10	nomatch	petit	-1	1	p	0.58618
377.3997999999999	0.0	+	37	verb	phrase	1	11	nomatch	petit	-1	1	p	0.58618
377.79959999999994	0.0	+	37	verb	phrase	1	12	nomatch	petit	-1	1	p	0.58618
379.79909999999995	0.0	PETIT	37	verb	phrase	1	13	nomatch	petit	-1	1	p	0.58618
380.4651	0.0	+	37	verb	phrase	1	14	nomatch	petit	-1	1	p	0.58618
380.3852999999999	0.0	[response]	37	verb	phrase	1	15	nomatch	petit	-1	1	p	0.58618
382.19769999999994	0.0	+	38	verb	phrase	3	1	match	mieux	4	1	y	0.70051
382.7480999999999	0.2	xdfnb	38	verb	phrase	3	2	match	mieux	4	1	y	0.70051
382.9475	0.0	+	38	verb	phrase	3	3	match	mieux	4	1	y	0.70051
383.3478	0.2	tgcf	38	verb	phrase	3	4	match	mieux	4	1	y	0.70051
383.5476	0.0	+	38	verb	phrase	3	5	match	mieux	4	1	y	0.70051
383.9468999999999	0.2	va	38	verb	phrase	3	6	match	mieux	4	1	y	0.70051
384.1468	0.0	+	38	verb	phrase	3	7	match	mieux	4	1	y	0.70051
384.5466	0.2	mieux	38	verb	phrase	3	8	match	mieux	4	1	y	0.70051
384.74649999999997	0.0	+	38	verb	phrase	3	9	match	mieux	4	1	y	0.70051
385.14639999999997	0.2	galoper	38	verb	phrase	3	10	match	mieux	4	1	y	0.70051
385.3462999999999	0.0	+	38	verb	phrase	3	11	match	mieux	4	1	y	0.70051
385.74609999999996	0.0	+	38	verb	phrase	3	12	match	mieux	4	1	y	0.70051
387.74519999999995	0.0	MIEUX	38	verb	phrase	3	13	match	mieux	4	1	y	0.70051
388.51149999999996	0.0	+	38	verb	phrase	3	14	match	mieux	4	1	y	0.70051
388.4457	0.0	[response]	38	verb	phrase	3	15	match	mieux	4	1	y	0.70051
390.1441	0.0	+	39	noun	list	1	1	nomatch	trop	-1	1	p	1.2868
390.6939	0.2	nxj	39	noun	list	1	2	nomatch	trop	-1	1	p	1.2868
390.89379999999994	0.0	+	39	noun	list	1	3	nomatch	trop	-1	1	p	1.2868
391.29359999999997	0.2	gtzv	39	noun	list	1	4	nomatch	trop	-1	1	p	1.2868
391.4934999999999	0.0	+	39	noun	list	1	5	nomatch	trop	-1	1	p	1.2868
391.89329999999995	0.2	rdq	39	noun	list	1	6	nomatch	trop	-1	1	p	1.2868
392.0933	0.0	+	39	noun	list	1	7	nomatch	trop	-1	1	p	1.2868
392.4932	0.2	xjplbd	39	noun	list	1	8	nomatch	trop	-1	1	p	1.2868
392.693	0.0	+	39	noun	list	1	9	nomatch	trop	-1	1	p	1.2868
393.0928	0.2	moins	39	noun	list	1	10	nomatch	trop	-1	1	p	1.2868
393.29269999999997	0.0	+	39	noun	list	1	11	nomatch	trop	-1	1	p	1.2868
393.6925	0.0	+	39	noun	list	1	12	nomatch	trop	-1	1	p	1.2868
395.69229999999993	0.0	TROP	39	noun	list	1	13	nomatch	trop	-1	1	p	1.2868
397.04099999999994	0.0	+	39	noun	list	1	14	nomatch	trop	-1	1	p	1.2868
396.9792	0.0	[response]	39	noun	list	1	15	nomatch	trop	-1	1	p	1.2868
406.087	0.0	+	40	noun	phrase	2	1	nomatch	sablier	-1	1	p	0.87998
406.6368	0.2	hjqnvgf	40	noun	phrase	2	2	nomatch	sablier	-1	1	p	0.87998
406.83669999999995	0.0	+	40	noun	phrase	2	3	nomatch	sablier	-1	1	p	0.87998
407.2365	0.2	jqbv	40	noun	phrase	2	4	nomatch	sablier	-1	1	p	0.87998
407.43639999999994	0.0	+	40	noun	phrase	2	5	nomatch	sablier	-1	1	p	0.87998
407.83619999999996	0.2	xzdl	40	noun	phrase	2	6	nomatch	sablier	-1	1	p	0.87998
408.0366	0.0	+	40	noun	phrase	2	7	nomatch	sablier	-1	1	p	0.87998
408.4359999999999	0.2	panier	40	noun	phrase	2	8	nomatch	sablier	-1	1	p	0.87998
408.63609999999994	0.0	+	40	noun	phrase	2	9	nomatch	sablier	-1	1	p	0.87998
409.0531	0.2	noir	40	noun	phrase	2	10	nomatch	sablier	-1	1	p	0.87998
409.236	0.0	+	40	noun	phrase	2	11	nomatch	sablier	-1	1	p	0.87998
409.6354	0.0	+	40	noun	phrase	2	12	nomatch	sablier	-1	1	p	0.87998
411.6345	0.0	SABLIER	40	noun	phrase	2	13	nomatch	sablier	-1	1	p	0.87998
412.5675	0.0	+	40	noun	phrase	2	14	nomatch	sablier	-1	1	p	0.87998
412.5145	0.0	[response]	40	noun	phrase	2	15	nomatch	sablier	-1	1	p	0.87998
414.0335	0.0	+	41	verb	phrase	4	1	match	paul	2	1	y	0.73341
414.59989999999993	0.2	xbzjftp	41	verb	phrase	4	2	match	paul	2	1	y	0.73341
414.7998	0.0	+	41	verb	phrase	4	3	match	paul	2	1	y	0.73341
415.1998	0.2	paul	41	verb	phrase	4	4	match	paul	2	1	y	0.73341
415.3995	0.0	+	41	verb	phrase	4	5	match	paul	2	1	y	0.73341
415.7999	0.2	peut	41	verb	phrase	4	6	match	paul	2	1	y	0.73341
415.99969999999996	0.0	+	41	verb	phrase	4	7	match	paul	2	1	y	0.73341
416.39919999999995	0.2	mieux	41	verb	phrase	4	8	match	paul	2	1	y	0.73341
416.59939999999995	0.0	+	41	verb	phrase	4	9	match	paul	2	1	y	0.73341
416.99879999999996	0.2	patiner	41	verb	phrase	4	10	match	paul	2	1	y	0.73341
417.1986999999999	0.0	+	41	verb	phrase	4	11	match	paul	2	1	y	0.73341
417.5985999999999	0.0	+	41	verb	phrase	4	12	match	paul	2	1	y	0.73341
419.59799999999996	0.0	PAUL	41	verb	phrase	4	13	match	paul	2	1	y	0.73341
420.4973	0.0	+	41	verb	phrase	4	14	match	paul	2	1	y	0.73341
420.33140000000003	0.0	[response]	41	verb	phrase	4	15	match	paul	2	1	y	0.73341
421.99659999999994	0.0	+	42	noun	list	3	1	match	tablier	4	1	y	1.3987
422.54639999999995	0.2	qsmjlvc	42	noun	list	3	2	match	tablier	4	1	y	1.3987
422.76329999999996	0.0	+	42	noun	list	3	3	match	tablier	4	1	y	1.3987
423.16279999999995	0.2	vrzh	42	noun	list	3	4	match	tablier	4	1	y	1.3987
423.34659999999997	0.0	+	42	noun	list	3	5	match	tablier	4	1	y	1.3987
423.76279999999997	0.2	va	42	noun	list	3	6	match	tablier	4	1	y	1.3987
423.94579999999996	0.0	+	42	noun	list	3	7	match	tablier	4	1	y	1.3987
424.3456	0.2	tablier	42	noun	list	3	8	match	tablier	4	1	y	1.3987
424.54549999999995	0.0	+	42	noun	list	3	9	match	tablier	4	1	y	1.3987
424.9453	0.2	ainsi	42	noun	list	3	10	match	tablier	4	1	y	1.3987
425.14519999999993	0.0	+	42	noun	list	3	11	match	tablier	4	1	y	1.3987
425.54499999999996	0.0	+	42	noun	list	3	12	match	tablier	4	1	y	1.3987
427.54409999999996	0.0	TABLIER	42	noun	list	3	13	match	tablier	4	1	y	1.3987
429.01009999999997	0.0	+	42	noun	list	3	14	match	tablier	4	1	y	1.3987
428.9427999999999	0.0	[response]	42	noun	list	3	15	match	tablier	4	1	y	1.3987
429.94309999999996	0.0	+	43	noun	list	1	1	match	moins	5	1	y	0.91044
430.4928	0.2	nlpjz	43	noun	list	1	2	match	moins	5	1	y	0.91044
430.69269999999995	0.0	+	43	noun	list	1	3	match	moins	5	1	y	0.91044
431.0925	0.2	gxnp	43	noun	list	1	4	match	moins	5	1	y	0.91044
431.29239999999993	0.0	+	43	noun	list	1	5	match	moins	5	1	y	0.91044
431.69229999999993	0.2	wqp	43	noun	list	1	6	match	moins	5	1	y	0.91044
431.8926	0.0	+	43	noun	list	1	7	match	moins	5	1	y	0.91044
432.2921	0.2	czfkhd	43	noun	list	1	8	match	moins	5	1	y	0.91044
432.49199999999996	0.0	+	43	noun	list	1	9	match	moins	5	1	y	0.91044
432.8922	0.2	moins	43	noun	list	1	10	match	moins	5	1	y	0.91044
433.09169999999995	0.0	+	43	noun	list	1	11	match	moins	5	1	y	0.91044
433.4915	0.0	+	43	noun	list	1	12	match	moins	5	1	y	0.91044
435.4906	0.0	MOINS	43	noun	list	1	13	match	moins	5	1	y	0.91044
436.45679999999993	0.0	+	43	noun	list	1	14	match	moins	5	1	y	0.91044
436.40099999999995	0.0	[response]	43	noun	list	1	15	match	moins	5	1	y	0.91044
437.8895	0.0	+	44	verb	phrase	2	1	match	loin	5	1	y	0.71378
438.4393	0.2	pbxjtz	44	verb	phrase	2	2	match	loin	5	1	y	0.71378
438.63919999999996	0.0	+	44	verb	phrase	2	3	match	loin	5	1	y	0.71378
439.039	0.2	qsdf	44	verb	phrase	2	4	match	loin	5	1	y	0.71378
439.23889999999994	0.0	+	44	verb	phrase	2	5	match	loin	5	1	y	0.71378
439.6387	0.2	bzct	44	verb	phrase	2	6	match	loin	5	1	y	0.71378
439.83859999999993	0.0	+	44	verb	phrase	2	7	match	loin	5	1	y	0.71378
440.23849999999993	0.2	parader	44	verb	phrase	2	8	match	loin	5	1	y	0.71378
440.4384	0.0	+	44	verb	phrase	2	9	match	loin	5	1	y	0.71378
440.8381999999999	0.2	loin	44	verb	phrase	2	10	match	loin	5	1	y	0.71378
441.0383999999999	0.0	+	44	verb	phrase	2	11	match	loin	5	1	y	0.71378
441.4384	0.0	+	44	verb	phrase	2	12	match	loin	5	1	y	0.71378
443.437	0.0	LOIN	44	verb	phrase	2	13	match	loin	5	1	y	0.71378
444.2034	0.0	+	44	verb	phrase	2	14	match	loin	5	1	y	0.71378
444.1508	0.0	[response]	44	verb	phrase	2	15	match	loin	5	1	y	0.71378
445.836	0.0	+	45	verb	phrase	1	1	match	mieux	5	1	y	0.61825
446.38569999999993	0.2	vqwnhzc	45	verb	phrase	1	2	match	mieux	5	1	y	0.61825
446.5856	0.0	+	45	verb	phrase	1	3	match	mieux	5	1	y	0.61825
446.98569999999995	0.2	tgcf	45	verb	phrase	1	4	match	mieux	5	1	y	0.61825
447.18539999999996	0.0	+	45	verb	phrase	1	5	match	mieux	5	1	y	0.61825
447.5852	0.2	sk	45	verb	phrase	1	6	match	mieux	5	1	y	0.61825
447.7858	0.0	+	45	verb	phrase	1	7	match	mieux	5	1	y	0.61825
448.18489999999997	0.2	fhmqprb	45	verb	phrase	1	8	match	mieux	5	1	y	0.61825
448.3847999999999	0.0	+	45	verb	phrase	1	9	match	mieux	5	1	y	0.61825
448.78469999999993	0.2	mieux	45	verb	phrase	1	10	match	mieux	5	1	y	0.61825
448.9846	0.0	+	45	verb	phrase	1	11	match	mieux	5	1	y	0.61825
449.3843999999999	0.0	+	45	verb	phrase	1	12	match	mieux	5	1	y	0.61825
451.40059999999994	0.0	MIEUX	45	verb	phrase	1	13	match	mieux	5	1	y	0.61825
452.0831999999999	0.0	+	45	verb	phrase	1	14	match	mieux	5	1	y	0.61825
452.01880000000006	0.0	[response]	45	verb	phrase	1	15	match	mieux	5	1	y	0.61825
461.8126	0.0	+	46	verb	list	1	1	nomatch	paul	-1	1	p	0.80288
462.34529999999995	0.2	tslh	46	verb	list	1	2	nomatch	paul	-1	1	p	0.80288
462.5451999999999	0.0	+	46	verb	list	1	3	nomatch	paul	-1	1	p	0.80288
462.94499999999994	0.2	nvmf	46	verb	list	1	4	nomatch	paul	-1	1	p	0.80288
463.1449	0.0	+	46	verb	list	1	5	nomatch	paul	-1	1	p	0.80288
463.5446999999999	0.2	bzct	46	verb	list	1	6	nomatch	paul	-1	1	p	0.80288
463.7446	0.0	+	46	verb	list	1	7	nomatch	paul	-1	1	p	0.80288
464.14509999999996	0.2	nstlxbz	46	verb	list	1	8	nomatch	paul	-1	1	p	0.80288
464.36159999999995	0.0	+	46	verb	list	1	9	nomatch	paul	-1	1	p	0.80288
464.7448999999999	0.2	petit	46	verb	list	1	10	nomatch	paul	-1	1	p	0.80288
464.94409999999993	0.0	+	46	verb	list	1	11	nomatch	paul	-1	1	p	0.80288
465.34399999999994	0.0	+	46	verb	list	1	12	nomatch	paul	-1	1	p	0.80288
467.34299999999996	0.0	PAUL	46	verb	list	1	13	nomatch	paul	-1	1	p	0.80288
468.2593999999999	0.0	+	46	verb	list	1	14	nomatch	paul	-1	1	p	0.80288
468.1459	0.0	[response]	46	verb	list	1	15	nomatch	paul	-1	1	p	0.80288
469.74199999999996	0.0	+	47	verb	list	1	1	nomatch	rouler	-1	1	p	0.49617
470.2917	0.2	qcvwz	47	verb	list	1	2	nomatch	rouler	-1	1	p	0.49617
470.49159999999995	0.0	+	47	verb	list	1	3	nomatch	rouler	-1	1	p	0.49617
470.89149999999995	0.2	zndv	47	verb	list	1	4	nomatch	rouler	-1	1	p	0.49617
471.0914	0.0	+	47	verb	list	1	5	nomatch	rouler	-1	1	p	0.49617
471.49119999999994	0.2	wqp	47	verb	list	1	6	nomatch	rouler	-1	1	p	0.49617
471.6911	0.0	+	47	verb	list	1	7	nomatch	rouler	-1	1	p	0.49617
472.09119999999996	0.2	mgvc	47	verb	list	1	8	nomatch	rouler	-1	1	p	0.49617
472.2916	0.0	+	47	verb	list	1	9	nomatch	rouler	-1	1	p	0.49617
472.6912	0.2	chasser	47	verb	list	1	10	nomatch	rouler	-1	1	p	0.49617
472.8908	0.0	+	47	verb	list	1	11	nomatch	rouler	-1	1	p	0.49617
473.2904	0.0	+	47	verb	list	1	12	nomatch	rouler	-1	1	p	0.49617
475.2895	0.0	ROULER	47	verb	list	1	13	nomatch	rouler	-1	1	p	0.49617
475.8393	0.0	+	47	verb	list	1	14	nomatch	rouler	-1	1	p	0.49617
475.7857	0.0	[response]	47	verb	list	1	15	nomatch	rouler	-1	1	p	0.49617
477.6884	0.0	+	48	verb	phrase	3	1	nomatch	tôt	-1	1	p	0.63083
478.2382	0.2	dlbk	48	verb	phrase	3	2	nomatch	tôt	-1	1	p	0.63083
478.43809999999996	0.0	+	48	verb	phrase	3	3	nomatch	tôt	-1	1	p	0.63083
478.8379	0.2	gxnp	48	verb	phrase	3	4	nomatch	tôt	-1	1	p	0.63083
479.03779999999995	0.0	+	48	verb	phrase	3	5	nomatch	tôt	-1	1	p	0.63083
479.4376	0.2	va	48	verb	phrase	3	6	nomatch	tôt	-1	1	p	0.63083
479.63779999999997	0.0	+	48	verb	phrase	3	7	nomatch	tôt	-1	1	p	0.63083
480.0381	0.2	plus	48	verb	phrase	3	8	nomatch	tôt	-1	1	p	0.63083
480.2546	0.0	+	48	verb	phrase	3	9	nomatch	tôt	-1	1	p	0.63083
480.6372	0.2	voyager	48	verb	phrase	3	10	nomatch	tôt	-1	1	p	0.63083
480.8538	0.0	+	48	verb	phrase	3	11	nomatch	tôt	-1	1	p	0.63083
481.2368	0.0	+	48	verb	phrase	3	12	nomatch	tôt	-1	1	p	0.63083
483.23659999999995	0.0	TÔT	48	verb	phrase	3	13	nomatch	tôt	-1	1	p	0.63083
483.953	0.0	+	48	verb	phrase	3	14	nomatch	tôt	-1	1	p	0.63083
483.8674	0.0	[response]	48	verb	phrase	3	15	nomatch	tôt	-1	1	p	0.63083
485.6349	0.0	+	49	verb	phrase	1	1	match	galoper	5	1	y	0.48338000000000003
486.18459999999993	0.2	lbzg	49	verb	phrase	1	2	match	galoper	5	1	y	0.48338000000000003
486.3846	0.0	+	49	verb	phrase	1	3	match	galoper	5	1	y	0.48338000000000003
486.7849	0.2	tgcf	49	verb	phrase	1	4	match	galoper	5	1	y	0.48338000000000003
486.98479999999995	0.0	+	49	verb	phrase	1	5	match	galoper	5	1	y	0.48338000000000003
487.38419999999996	0.2	bzct	49	verb	phrase	1	6	match	galoper	5	1	y	0.48338000000000003
487.6008999999999	0.0	+	49	verb	phrase	1	7	match	galoper	5	1	y	0.48338000000000003
487.9842	0.2	rbwc	49	verb	phrase	1	8	match	galoper	5	1	y	0.48338000000000003
488.1838	0.0	+	49	verb	phrase	1	9	match	galoper	5	1	y	0.48338000000000003
488.58359999999993	0.2	galoper	49	verb	phrase	1	10	match	galoper	5	1	y	0.48338000000000003
488.7836	0.0	+	49	verb	phrase	1	11	match	galoper	5	1	y	0.48338000000000003
489.19999999999993	0.0	+	49	verb	phrase	1	12	match	galoper	5	1	y	0.48338000000000003
491.19909999999993	0.0	GALOPER	49	verb	phrase	1	13	match	galoper	5	1	y	0.48338000000000003
491.74879999999996	0.0	+	49	verb	phrase	1	14	match	galoper	5	1	y	0.48338000000000003
491.6825000000001	0.0	[response]	49	verb	phrase	1	15	match	galoper	5	1	y	0.48338000000000003
493.59799999999996	0.0	+	50	verb	list	1	1	match	nouveau	5	1	y	0.61247
494.14779999999996	0.2	dmjz	50	verb	list	1	2	match	nouveau	5	1	y	0.61247
494.34799999999996	0.0	+	50	verb	list	1	3	match	nouveau	5	1	y	0.61247
494.7480999999999	0.2	hrms	50	verb	list	1	4	match	nouveau	5	1	y	0.61247
494.9643	0.0	+	50	verb	list	1	5	match	nouveau	5	1	y	0.61247
495.34719999999993	0.2	vcmh	50	verb	list	1	6	match	nouveau	5	1	y	0.61247
495.5471	0.0	+	50	verb	list	1	7	match	nouveau	5	1	y	0.61247
495.947	0.2	swbfgn	50	verb	list	1	8	match	nouveau	5	1	y	0.61247
496.14689999999996	0.0	+	50	verb	list	1	9	match	nouveau	5	1	y	0.61247
496.5467	0.2	nouveau	50	verb	list	1	10	match	nouveau	5	1	y	0.61247
496.74659999999994	0.0	+	50	verb	list	1	11	match	nouveau	5	1	y	0.61247
497.14639999999997	0.0	+	50	verb	list	1	12	match	nouveau	5	1	y	0.61247
499.14549999999997	0.0	NOUVEAU	50	verb	list	1	13	match	nouveau	5	1	y	0.61247
499.8118999999999	0.0	+	50	verb	list	1	14	match	nouveau	5	1	y	0.61247
499.7579999999999	0.0	[response]	50	verb	list	1	15	match	nouveau	5	1	y	0.61247
501.54449999999997	0.0	+	51	verb	phrase	1	1	match	patiner	5	1	y	0.39591
502.0942	0.2	jtfdn	51	verb	phrase	1	2	match	patiner	5	1	y	0.39591
502.29409999999996	0.0	+	51	verb	phrase	1	3	match	patiner	5	1	y	0.39591
502.69399999999996	0.2	gxnp	51	verb	phrase	1	4	match	patiner	5	1	y	0.39591
502.9110999999999	0.0	+	51	verb	phrase	1	5	match	patiner	5	1	y	0.39591
503.294	0.2	sk	51	verb	phrase	1	6	match	patiner	5	1	y	0.39591
503.5102999999999	0.0	+	51	verb	phrase	1	7	match	patiner	5	1	y	0.39591
503.894	0.2	pmsdbjzx	51	verb	phrase	1	8	match	patiner	5	1	y	0.39591
504.09349999999995	0.0	+	51	verb	phrase	1	9	match	patiner	5	1	y	0.39591
504.4930999999999	0.2	patiner	51	verb	phrase	1	10	match	patiner	5	1	y	0.39591
504.69309999999996	0.0	+	51	verb	phrase	1	11	match	patiner	5	1	y	0.39591
505.0929	0.0	+	51	verb	phrase	1	12	match	patiner	5	1	y	0.39591
507.092	0.0	PATINER	51	verb	phrase	1	13	match	patiner	5	1	y	0.39591
507.54179999999997	0.0	+	51	verb	phrase	1	14	match	patiner	5	1	y	0.39591
507.48789999999997	0.0	[response]	51	verb	phrase	1	15	match	patiner	5	1	y	0.39591
509.4909	0.0	+	52	verb	list	2	1	nomatch	noir	-1	1	p	0.63881
510.0407	0.2	clknh	52	verb	list	2	2	nomatch	noir	-1	1	p	0.63881
510.2406	0.0	+	52	verb	list	2	3	nomatch	noir	-1	1	p	0.63881
510.6404	0.2	gpqk	52	verb	list	2	4	nomatch	noir	-1	1	p	0.63881
510.84029999999996	0.0	+	52	verb	list	2	5	nomatch	noir	-1	1	p	0.63881
511.2401	0.2	wqp	52	verb	list	2	6	nomatch	noir	-1	1	p	0.63881
511.4400999999999	0.0	+	52	verb	list	2	7	nomatch	noir	-1	1	p	0.63881
511.83989999999994	0.2	plonger	52	verb	list	2	8	nomatch	noir	-1	1	p	0.63881
512.0572	0.0	+	52	verb	list	2	9	nomatch	noir	-1	1	p	0.63881
512.4397	0.2	blanc	52	verb	list	2	10	nomatch	noir	-1	1	p	0.63881
512.6565999999999	0.0	+	52	verb	list	2	11	nomatch	noir	-1	1	p	0.63881
513.0396999999999	0.0	+	52	verb	list	2	12	nomatch	noir	-1	1	p	0.63881
515.0383999999999	0.0	NOIR	52	verb	list	2	13	nomatch	noir	-1	1	p	0.63881
515.7380999999999	0.0	+	52	verb	list	2	14	nomatch	noir	-1	1	p	0.63881
515.6773000000001	0.0	[response]	52	verb	list	2	15	nomatch	noir	-1	1	p	0.63881
517.4373999999999	0.0	+	53	noun	list	4	1	match	mieux	4	1	y	1.3547
517.9870999999999	0.2	cdxpg	53	noun	list	4	2	match	mieux	4	1	y	1.3547
518.187	0.0	+	53	noun	list	4	3	match	mieux	4	1	y	1.3547
518.587	0.2	jade	53	noun	list	4	4	match	mieux	4	1	y	1.3547
518.7873999999999	0.0	+	53	noun	list	4	5	match	mieux	4	1	y	1.3547
519.1866	0.2	leur	53	noun	list	4	6	match	mieux	4	1	y	1.3547
519.3865	0.0	+	53	noun	list	4	7	match	mieux	4	1	y	1.3547
519.7863	0.2	mieux	53	noun	list	4	8	match	mieux	4	1	y	1.3547
519.9861999999999	0.0	+	53	noun	list	4	9	match	mieux	4	1	y	1.3547
520.3860999999999	0.2	tablier	53	noun	list	4	10	match	mieux	4	1	y	1.3547
520.586	0.0	+	53	noun	list	4	11	match	mieux	4	1	y	1.3547
520.9857999999999	0.0	+	53	noun	list	4	12	match	mieux	4	1	y	1.3547
522.9848999999999	0.0	MIEUX	53	noun	list	4	13	match	mieux	4	1	y	1.3547
524.4009	0.0	+	53	noun	list	4	14	match	mieux	4	1	y	1.3547
524.3396	0.0	[response]	53	noun	list	4	15	match	mieux	4	1	y	1.3547
525.3838	0.0	+	54	verb	list	2	1	match	voyager	4	1	y	0.94555
525.9336999999999	0.2	qwdb	54	verb	list	2	2	match	voyager	4	1	y	0.94555
526.1336	0.0	+	54	verb	list	2	3	match	voyager	4	1	y	0.94555
526.55	0.2	gpqk	54	verb	list	2	4	match	voyager	4	1	y	0.94555
526.7498999999999	0.0	+	54	verb	list	2	5	match	voyager	4	1	y	0.94555
527.1496999999999	0.2	wqp	54	verb	list	2	6	match	voyager	4	1	y	0.94555
527.3496	0.0	+	54	verb	list	2	7	match	voyager	4	1	y	0.94555
527.7493999999999	0.2	voyager	54	verb	list	2	8	match	voyager	4	1	y	0.94555
527.9494	0.0	+	54	verb	list	2	9	match	voyager	4	1	y	0.94555
528.3498999999999	0.2	noir	54	verb	list	2	10	match	voyager	4	1	y	0.94555
528.5663	0.0	+	54	verb	list	2	11	match	voyager	4	1	y	0.94555
528.9490999999999	0.0	+	54	verb	list	2	12	match	voyager	4	1	y	0.94555
530.948	0.0	VOYAGER	54	verb	list	2	13	match	voyager	4	1	y	0.94555
531.9975	0.0	+	54	verb	list	2	14	match	voyager	4	1	y	0.94555
531.8936000000001	0.0	[response]	54	verb	list	2	15	match	voyager	4	1	y	0.94555
533.3469	0.0	+	55	verb	list	2	1	match	nouveau	4	1	y	0.74176
533.8967	0.2	rpdmtjs	55	verb	list	2	2	match	nouveau	4	1	y	0.74176
534.0966	0.0	+	55	verb	list	2	3	match	nouveau	4	1	y	0.74176
534.4964	0.2	hrms	55	verb	list	2	4	match	nouveau	4	1	y	0.74176
534.6963	0.0	+	55	verb	list	2	5	match	nouveau	4	1	y	0.74176
535.0962	0.2	vcmh	55	verb	list	2	6	match	nouveau	4	1	y	0.74176
535.2960999999999	0.0	+	55	verb	list	2	7	match	nouveau	4	1	y	0.74176
535.6958999999999	0.2	nouveau	55	verb	list	2	8	match	nouveau	4	1	y	0.74176
535.8962	0.0	+	55	verb	list	2	9	match	nouveau	4	1	y	0.74176
536.2959999999999	0.2	galoper	55	verb	list	2	10	match	nouveau	4	1	y	0.74176
536.4956	0.0	+	55	verb	list	2	11	match	nouveau	4	1	y	0.74176
536.896	0.0	+	55	verb	list	2	12	match	nouveau	4	1	y	0.74176
538.9118	0.0	NOUVEAU	55	verb	list	2	13	match	nouveau	4	1	y	0.74176
539.7108	0.0	+	55	verb	list	2	14	match	nouveau	4	1	y	0.74176
539.6535000000001	0.0	[response]	55	verb	list	2	15	match	nouveau	4	1	y	0.74176
549.2898	0.0	+	56	verb	phrase	1	1	match	tard	5	1	y	0.39754
549.8396	0.2	lgmfhdx	56	verb	phrase	1	2	match	tard	5	1	y	0.39754
550.0395	0.0	+	56	verb	phrase	1	3	match	tard	5	1	y	0.39754
550.4398	0.2	vqf	56	verb	phrase	1	4	match	tard	5	1	y	0.39754
550.6396	0.0	+	56	verb	phrase	1	5	match	tard	5	1	y	0.39754
551.0391	0.2	sk	56	verb	phrase	1	6	match	tard	5	1	y	0.39754
551.2563	0.0	+	56	verb	phrase	1	7	match	tard	5	1	y	0.39754
551.6388	0.2	swbfgn	56	verb	phrase	1	8	match	tard	5	1	y	0.39754
551.8387	0.0	+	56	verb	phrase	1	9	match	tard	5	1	y	0.39754
552.2384999999999	0.2	tard	56	verb	phrase	1	10	match	tard	5	1	y	0.39754
552.4384	0.0	+	56	verb	phrase	1	11	match	tard	5	1	y	0.39754
552.8383	0.0	+	56	verb	phrase	1	12	match	tard	5	1	y	0.39754
554.8378	0.0	TARD	56	verb	phrase	1	13	match	tard	5	1	y	0.39754
555.3539	0.0	+	56	verb	phrase	1	14	match	tard	5	1	y	0.39754
555.2353	0.0	[response]	56	verb	phrase	1	15	match	tard	5	1	y	0.39754
557.2701999999999	0.0	+	57	verb	phrase	4	1	match	doit	3	1	y	0.81917
557.7864	0.2	jtxhlw	57	verb	phrase	4	2	match	doit	3	1	y	0.81917
557.9866999999999	0.0	+	57	verb	phrase	4	3	match	doit	3	1	y	0.81917
558.3858	0.2	marc	57	verb	phrase	4	4	match	doit	3	1	y	0.81917
558.5857	0.0	+	57	verb	phrase	4	5	match	doit	3	1	y	0.81917
558.9855	0.2	doit	57	verb	phrase	4	6	match	doit	3	1	y	0.81917
559.1854	0.0	+	57	verb	phrase	4	7	match	doit	3	1	y	0.81917
559.5853	0.2	moins	57	verb	phrase	4	8	match	doit	3	1	y	0.81917
559.7851999999999	0.0	+	57	verb	phrase	4	9	match	doit	3	1	y	0.81917
560.185	0.2	chasser	57	verb	phrase	4	10	match	doit	3	1	y	0.81917
560.3849	0.0	+	57	verb	phrase	4	11	match	doit	3	1	y	0.81917
560.7846999999999	0.0	+	57	verb	phrase	4	12	match	doit	3	1	y	0.81917
562.784	0.0	DOIT	57	verb	phrase	4	13	match	doit	3	1	y	0.81917
563.6667	0.0	+	57	verb	phrase	4	14	match	doit	3	1	y	0.81917
563.6032	0.0	[response]	57	verb	phrase	4	15	match	doit	3	1	y	0.81917
565.1994	0.0	+	58	noun	list	1	1	match	vite	5	1	y	0.4568900000000001
565.7492	0.2	phgjk	58	noun	list	1	2	match	vite	5	1	y	0.4568900000000001
565.9490999999999	0.0	+	58	noun	list	1	3	match	vite	5	1	y	0.4568900000000001
566.3489	0.2	hqjx	58	noun	list	1	4	match	vite	5	1	y	0.4568900000000001
566.5487999999999	0.0	+	58	noun	list	1	5	match	vite	5	1	y	0.4568900000000001
566.9488	0.2	sk	58	noun	list	1	6	match	vite	5	1	y	0.4568900000000001
567.1653	0.0	+	58	noun	list	1	7	match	vite	5	1	y	0.4568900000000001
567.5654999999999	0.2	xshgznc	58	noun	list	1	8	match	vite	5	1	y	0.4568900000000001
567.7486	0.0	+	58	noun	list	1	9	match	vite	5	1	y	0.4568900000000001
568.1481	0.2	vite	58	noun	list	1	10	match	vite	5	1	y	0.4568900000000001
568.348	0.0	+	58	noun	list	1	11	match	vite	5	1	y	0.4568900000000001
568.7478	0.0	+	58	noun	list	1	12	match	vite	5	1	y	0.4568900000000001
570.7469	0.0	VITE	58	noun	list	1	13	match	vite	5	1	y	0.4568900000000001
571.2633999999999	0.0	+	58	noun	list	1	14	match	vite	5	1	y	0.4568900000000001
571.2038	0.0	[response]	58	noun	list	1	15	match	vite	5	1	y	0.4568900000000001
573.1459	0.0	+	59	verb	list	1	1	nomatch	galoper	-1	1	p	0.67472
573.6956	0.2	mlp	59	verb	list	1	2	nomatch	galoper	-1	1	p	0.67472
573.8955	0.0	+	59	verb	list	1	3	nomatch	galoper	-1	1	p	0.67472
574.2954	0.2	gxnp	59	verb	list	1	4	nomatch	galoper	-1	1	p	0.67472
574.4952999999999	0.0	+	59	verb	list	1	5	nomatch	galoper	-1	1	p	0.67472
574.8951	0.2	xzdl	59	verb	list	1	6	nomatch	galoper	-1	1	p	0.67472
575.0949999999999	0.0	+	59	verb	list	1	7	nomatch	galoper	-1	1	p	0.67472
575.4947999999999	0.2	mgvc	59	verb	list	1	8	nomatch	galoper	-1	1	p	0.67472
575.6947	0.0	+	59	verb	list	1	9	nomatch	galoper	-1	1	p	0.67472
576.0949999999999	0.2	plonger	59	verb	list	1	10	nomatch	galoper	-1	1	p	0.67472
576.295	0.0	+	59	verb	list	1	11	nomatch	galoper	-1	1	p	0.67472
576.6949999999999	0.0	+	59	verb	list	1	12	nomatch	galoper	-1	1	p	0.67472
578.6934	0.0	GALOPER	59	verb	list	1	13	nomatch	galoper	-1	1	p	0.67472
579.4264	0.0	+	59	verb	list	1	14	nomatch	galoper	-1	1	p	0.67472
579.3680999999999	0.0	[response]	59	verb	list	1	15	nomatch	galoper	-1	1	p	0.67472
581.0922999999999	0.0	+	60	verb	list	4	1	nomatch	vers	-1	1	p	0.61808
581.6420999999999	0.2	rct	60	verb	list	4	2	nomatch	vers	-1	1	p	0.61808
581.842	0.0	+	60	verb	list	4	3	nomatch	vers	-1	1	p	0.61808
582.2423	0.2	paul	60	verb	list	4	4	nomatch	vers	-1	1	p	0.61808
582.4421	0.0	+	60	verb	list	4	5	nomatch	vers	-1	1	p	0.61808
582.8419	0.2	son	60	verb	list	4	6	nomatch	vers	-1	1	p	0.61808
583.0414999999999	0.0	+	60	verb	list	4	7	nomatch	vers	-1	1	p	0.61808
583.4413	0.2	chasser	60	verb	list	4	8	nomatch	vers	-1	1	p	0.61808
583.6411999999999	0.0	+	60	verb	list	4	9	nomatch	vers	-1	1	p	0.61808
584.0409999999999	0.2	rouge	60	verb	list	4	10	nomatch	vers	-1	1	p	0.61808
584.2409	0.0	+	60	verb	list	4	11	nomatch	vers	-1	1	p	0.61808
584.6406999999999	0.0	+	60	verb	list	4	12	nomatch	vers	-1	1	p	0.61808
586.6399	0.0	VERS	60	verb	list	4	13	nomatch	vers	-1	1	p	0.61808
587.3229	0.0	+	60	verb	list	4	14	nomatch	vers	-1	1	p	0.61808
587.2579	0.0	[response]	60	verb	list	4	15	nomatch	vers	-1	1	p	0.61808
589.0387999999999	0.0	+	61	verb	phrase	4	1	nomatch	plonger	-1	1	p	0.84708
589.5885	0.2	pxwbmn	61	verb	phrase	4	2	nomatch	plonger	-1	1	p	0.84708
589.7885	0.0	+	61	verb	phrase	4	3	nomatch	plonger	-1	1	p	0.84708
590.1882999999999	0.2	jade	61	verb	phrase	4	4	nomatch	plonger	-1	1	p	0.84708
590.3882	0.0	+	61	verb	phrase	4	5	nomatch	plonger	-1	1	p	0.84708
590.788	0.2	peut	61	verb	phrase	4	6	nomatch	plonger	-1	1	p	0.84708
590.9882	0.0	+	61	verb	phrase	4	7	nomatch	plonger	-1	1	p	0.84708
591.3879999999999	0.2	nager	61	verb	phrase	4	8	nomatch	plonger	-1	1	p	0.84708
591.5881999999999	0.0	+	61	verb	phrase	4	9	nomatch	plonger	-1	1	p	0.84708
592.0047	0.2	vite	61	verb	phrase	4	10	nomatch	plonger	-1	1	p	0.84708
592.1873999999999	0.0	+	61	verb	phrase	4	11	nomatch	plonger	-1	1	p	0.84708
592.5871999999999	0.0	+	61	verb	phrase	4	12	nomatch	plonger	-1	1	p	0.84708
594.5865	0.0	PLONGER	61	verb	phrase	4	13	nomatch	plonger	-1	1	p	0.84708
595.4859	0.0	+	61	verb	phrase	4	14	nomatch	plonger	-1	1	p	0.84708
595.4336	0.0	[response]	61	verb	phrase	4	15	nomatch	plonger	-1	1	p	0.84708
596.9852999999999	0.0	+	62	noun	phrase	4	1	match	rocher	4	1	y	1.0592
597.535	0.2	twcps	62	noun	phrase	4	2	match	rocher	4	1	y	1.0592
597.7348999999999	0.0	+	62	noun	phrase	4	3	match	rocher	4	1	y	1.0592
598.1347	0.2	pour	62	noun	phrase	4	4	match	rocher	4	1	y	1.0592
598.3345999999999	0.0	+	62	noun	phrase	4	5	match	rocher	4	1	y	1.0592
598.7348999999999	0.2	mon	62	noun	phrase	4	6	match	rocher	4	1	y	1.0592
598.9349	0.0	+	62	noun	phrase	4	7	match	rocher	4	1	y	1.0592
599.3349	0.2	rocher	62	noun	phrase	4	8	match	rocher	4	1	y	1.0592
599.5346	0.0	+	62	noun	phrase	4	9	match	rocher	4	1	y	1.0592
599.9345999999999	0.2	noir	62	noun	phrase	4	10	match	rocher	4	1	y	1.0592
600.1505999999999	0.0	+	62	noun	phrase	4	11	match	rocher	4	1	y	1.0592
600.5337	0.0	+	62	noun	phrase	4	12	match	rocher	4	1	y	1.0592
602.5494	0.0	ROCHER	62	noun	phrase	4	13	match	rocher	4	1	y	1.0592
603.6655999999999	0.0	+	62	noun	phrase	4	14	match	rocher	4	1	y	1.0592
603.6085999999999	0.0	[response]	62	noun	phrase	4	15	match	rocher	4	1	y	1.0592
604.9484	0.0	+	63	verb	phrase	2	1	nomatch	panier	-1	1	p	0.72801
605.4980999999999	0.2	qjpkvfl	63	verb	phrase	2	2	nomatch	panier	-1	1	p	0.72801
605.698	0.0	+	63	verb	phrase	2	3	nomatch	panier	-1	1	p	0.72801
606.0978	0.2	zndv	63	verb	phrase	2	4	nomatch	panier	-1	1	p	0.72801
606.2977999999999	0.0	+	63	verb	phrase	2	5	nomatch	panier	-1	1	p	0.72801
606.6976	0.2	bzct	63	verb	phrase	2	6	nomatch	panier	-1	1	p	0.72801
606.8978999999999	0.0	+	63	verb	phrase	2	7	nomatch	panier	-1	1	p	0.72801
607.2977	0.2	nager	63	verb	phrase	2	8	nomatch	panier	-1	1	p	0.72801
607.4975	0.0	+	63	verb	phrase	2	9	nomatch	panier	-1	1	p	0.72801
607.8977	0.2	vite	63	verb	phrase	2	10	nomatch	panier	-1	1	p	0.72801
608.0975	0.0	+	63	verb	phrase	2	11	nomatch	panier	-1	1	p	0.72801
608.4968	0.0	+	63	verb	phrase	2	12	nomatch	panier	-1	1	p	0.72801
610.4959	0.0	PANIER	63	verb	phrase	2	13	nomatch	panier	-1	1	p	0.72801
611.2789	0.0	+	63	verb	phrase	2	14	nomatch	panier	-1	1	p	0.72801
611.2239	0.0	[response]	63	verb	phrase	2	15	nomatch	panier	-1	1	p	0.72801
612.8947999999999	0.0	+	64	verb	list	1	1	match	rouge	5	1	y	1.1452
613.4445999999999	0.2	rngt	64	verb	list	1	2	match	rouge	5	1	y	1.1452
613.6445	0.0	+	64	verb	list	1	3	match	rouge	5	1	y	1.1452
614.0443	0.2	gxnp	64	verb	list	1	4	match	rouge	5	1	y	1.1452
614.2442	0.0	+	64	verb	list	1	5	match	rouge	5	1	y	1.1452
614.6444	0.2	rdq	64	verb	list	1	6	match	rouge	5	1	y	1.1452
614.8446	0.0	+	64	verb	list	1	7	match	rouge	5	1	y	1.1452
615.2438	0.2	nstlxbz	64	verb	list	1	8	match	rouge	5	1	y	1.1452
615.4436999999999	0.0	+	64	verb	list	1	9	match	rouge	5	1	y	1.1452
615.8439	0.2	rouge	64	verb	list	1	10	match	rouge	5	1	y	1.1452
616.0434	0.0	+	64	verb	list	1	11	match	rouge	5	1	y	1.1452
616.4431999999999	0.0	+	64	verb	list	1	12	match	rouge	5	1	y	1.1452
618.4431	0.0	ROUGE	64	verb	list	1	13	match	rouge	5	1	y	1.1452
619.6418	0.0	+	64	verb	list	1	14	match	rouge	5	1	y	1.1452
619.5883	0.0	[response]	64	verb	list	1	15	match	rouge	5	1	y	1.1452
620.8412999999999	0.0	+	65	noun	list	2	1	nomatch	panier	-1	1	p	0.9006
621.391	0.2	msc	65	noun	list	2	2	nomatch	panier	-1	1	p	0.9006
621.5908999999999	0.0	+	65	noun	list	2	3	nomatch	panier	-1	1	p	0.9006
621.9915	0.2	hrms	65	noun	list	2	4	nomatch	panier	-1	1	p	0.9006
622.1908999999999	0.0	+	65	noun	list	2	5	nomatch	panier	-1	1	p	0.9006
622.5907	0.2	sk	65	noun	list	2	6	nomatch	panier	-1	1	p	0.9006
622.7905	0.0	+	65	noun	list	2	7	nomatch	panier	-1	1	p	0.9006
623.1902	0.2	clavier	65	noun	list	2	8	nomatch	panier	-1	1	p	0.9006
623.3901	0.0	+	65	noun	list	2	9	nomatch	panier	-1	1	p	0.9006
623.79	0.2	vite	65	noun	list	2	10	nomatch	panier	-1	1	p	0.9006
623.9898999999999	0.0	+	65	noun	list	2	11	nomatch	panier	-1	1	p	0.9006
624.3897	0.0	+	65	noun	list	2	12	nomatch	panier	-1	1	p	0.9006
626.3888	0.0	PANIER	65	noun	list	2	13	nomatch	panier	-1	1	p	0.9006
627.355	0.0	+	65	noun	list	2	14	nomatch	panier	-1	1	p	0.9006
627.2894	0.0	[response]	65	noun	list	2	15	nomatch	panier	-1	1	p	0.9006
628.7877	0.0	+	66	verb	phrase	1	1	nomatch	chasser	-1	1	p	0.71012
629.3375	0.2	jfhp	66	verb	phrase	1	2	nomatch	chasser	-1	1	p	0.71012
629.5373999999999	0.0	+	66	verb	phrase	1	3	nomatch	chasser	-1	1	p	0.71012
629.9372	0.2	zndv	66	verb	phrase	1	4	nomatch	chasser	-1	1	p	0.71012
630.1370999999999	0.0	+	66	verb	phrase	1	5	nomatch	chasser	-1	1	p	0.71012
630.5369999999999	0.2	vcmh	66	verb	phrase	1	6	nomatch	chasser	-1	1	p	0.71012
630.7369	0.0	+	66	verb	phrase	1	7	nomatch	chasser	-1	1	p	0.71012
631.1367	0.2	hrtj	66	verb	phrase	1	8	nomatch	chasser	-1	1	p	0.71012
631.3366	0.0	+	66	verb	phrase	1	9	nomatch	chasser	-1	1	p	0.71012
631.7364	0.2	parader	66	verb	phrase	1	10	nomatch	chasser	-1	1	p	0.71012
631.9366	0.0	+	66	verb	phrase	1	11	nomatch	chasser	-1	1	p	0.71012
632.3363999999999	0.0	+	66	verb	phrase	1	12	nomatch	chasser	-1	1	p	0.71012
634.3353	0.0	CHASSER	66	verb	phrase	1	13	nomatch	chasser	-1	1	p	0.71012
635.1016	0.0	+	66	verb	phrase	1	14	nomatch	chasser	-1	1	p	0.71012
635.0454	0.0	[response]	66	verb	phrase	1	15	nomatch	chasser	-1	1	p	0.71012
636.7342	0.0	+	67	verb	list	3	1	match	rouler	5	1	y	0.6348
637.284	0.2	lng	67	verb	list	3	2	match	rouler	5	1	y	0.6348
637.4838	0.0	+	67	verb	list	3	3	match	rouler	5	1	y	0.6348
637.9005	0.2	vrzh	67	verb	list	3	4	match	rouler	5	1	y	0.6348
638.0842	0.0	+	67	verb	list	3	5	match	rouler	5	1	y	0.6348
638.5005	0.2	va	67	verb	list	3	6	match	rouler	5	1	y	0.6348
638.7002	0.0	+	67	verb	list	3	7	match	rouler	5	1	y	0.6348
639.1003999999999	0.2	grand	67	verb	list	3	8	match	rouler	5	1	y	0.6348
639.2996999999999	0.0	+	67	verb	list	3	9	match	rouler	5	1	y	0.6348
639.6995	0.2	rouler	67	verb	list	3	10	match	rouler	5	1	y	0.6348
639.8994	0.0	+	67	verb	list	3	11	match	rouler	5	1	y	0.6348
640.2993	0.0	+	67	verb	list	3	12	match	rouler	5	1	y	0.6348
642.299	0.0	ROULER	67	verb	list	3	13	match	rouler	5	1	y	0.6348
643.0819	0.0	+	67	verb	list	3	14	match	rouler	5	1	y	0.6348
642.9336999999999	0.0	[response]	67	verb	list	3	15	match	rouler	5	1	y	0.6348
644.6972999999999	0.0	+	68	verb	phrase	1	1	nomatch	vite	-1	1	p	0.63998
645.2470999999999	0.2	rsnlgtb	68	verb	phrase	1	2	nomatch	vite	-1	1	p	0.63998
645.447	0.0	+	68	verb	phrase	1	3	nomatch	vite	-1	1	p	0.63998
645.8467999999999	0.2	zndv	68	verb	phrase	1	4	nomatch	vite	-1	1	p	0.63998
646.0467	0.0	+	68	verb	phrase	1	5	nomatch	vite	-1	1	p	0.63998
646.4465	0.2	vcmh	68	verb	phrase	1	6	nomatch	vite	-1	1	p	0.63998
646.6464	0.0	+	68	verb	phrase	1	7	nomatch	vite	-1	1	p	0.63998
647.0466	0.2	btcks	68	verb	phrase	1	8	nomatch	vite	-1	1	p	0.63998
647.2631	0.0	+	68	verb	phrase	1	9	nomatch	vite	-1	1	p	0.63998
647.6465999999999	0.2	tôt	68	verb	phrase	1	10	nomatch	vite	-1	1	p	0.63998
647.8464	0.0	+	68	verb	phrase	1	11	nomatch	vite	-1	1	p	0.63998
648.2626	0.0	+	68	verb	phrase	1	12	nomatch	vite	-1	1	p	0.63998
650.2447999999999	0.0	VITE	68	verb	phrase	1	13	nomatch	vite	-1	1	p	0.63998
650.9445	0.0	+	68	verb	phrase	1	14	nomatch	vite	-1	1	p	0.63998
650.8847999999999	0.0	[response]	68	verb	phrase	1	15	nomatch	vite	-1	1	p	0.63998
660.6572	0.0	+	69	noun	phrase	1	1	match	beau	5	1	y	0.64161
661.1899999999999	0.2	tkczr	69	noun	phrase	1	2	match	beau	5	1	y	0.64161
661.3899	0.0	+	69	noun	phrase	1	3	match	beau	5	1	y	0.64161
661.7896999999999	0.2	hrms	69	noun	phrase	1	4	match	beau	5	1	y	0.64161
661.9896	0.0	+	69	noun	phrase	1	5	match	beau	5	1	y	0.64161
662.3893999999999	0.2	wqp	69	noun	phrase	1	6	match	beau	5	1	y	0.64161
662.5893	0.0	+	69	noun	phrase	1	7	match	beau	5	1	y	0.64161
662.9891	0.2	kdvwnxf	69	noun	phrase	1	8	match	beau	5	1	y	0.64161
663.2062	0.0	+	69	noun	phrase	1	9	match	beau	5	1	y	0.64161
663.5889999999999	0.2	beau	69	noun	phrase	1	10	match	beau	5	1	y	0.64161
663.7895	0.0	+	69	noun	phrase	1	11	match	beau	5	1	y	0.64161
664.189	0.0	+	69	noun	phrase	1	12	match	beau	5	1	y	0.64161
666.1877	0.0	BEAU	69	noun	phrase	1	13	match	beau	5	1	y	0.64161
666.9377	0.0	+	69	noun	phrase	1	14	match	beau	5	1	y	0.64161
666.8293	0.0	[response]	69	noun	phrase	1	15	match	beau	5	1	y	0.64161
668.5866	0.0	+	70	verb	list	1	1	match	noir	5	1	y	0.6041600000000001
669.1364	0.2	kxbz	70	verb	list	1	2	match	noir	5	1	y	0.6041600000000001
669.3362999999999	0.0	+	70	verb	list	1	3	match	noir	5	1	y	0.6041600000000001
669.7361999999999	0.2	gpqk	70	verb	list	1	4	match	noir	5	1	y	0.6041600000000001
669.9359999999999	0.0	+	70	verb	list	1	5	match	noir	5	1	y	0.6041600000000001
670.3358999999999	0.2	rdq	70	verb	list	1	6	match	noir	5	1	y	0.6041600000000001
670.5358	0.0	+	70	verb	list	1	7	match	noir	5	1	y	0.6041600000000001
670.953	0.2	swbfgn	70	verb	list	1	8	match	noir	5	1	y	0.6041600000000001
671.1363	0.0	+	70	verb	list	1	9	match	noir	5	1	y	0.6041600000000001
671.5359	0.2	noir	70	verb	list	1	10	match	noir	5	1	y	0.6041600000000001
671.7357	0.0	+	70	verb	list	1	11	match	noir	5	1	y	0.6041600000000001
672.1523	0.0	+	70	verb	list	1	12	match	noir	5	1	y	0.6041600000000001
674.1514999999999	0.0	NOIR	70	verb	list	1	13	match	noir	5	1	y	0.6041600000000001
674.8172	0.0	+	70	verb	list	1	14	match	noir	5	1	y	0.6041600000000001
674.7556	0.0	[response]	70	verb	list	1	15	match	noir	5	1	y	0.6041600000000001
676.5498	0.0	+	71	verb	list	4	1	nomatch	boîtier	-1	1	p	0.7674400000000001
677.0994999999999	0.2	bxsmp	71	verb	list	4	2	nomatch	boîtier	-1	1	p	0.7674400000000001
677.2994	0.0	+	71	verb	list	4	3	nomatch	boîtier	-1	1	p	0.7674400000000001
677.6993	0.2	sous	71	verb	list	4	4	nomatch	boîtier	-1	1	p	0.7674400000000001
677.8992	0.0	+	71	verb	list	4	5	nomatch	boîtier	-1	1	p	0.7674400000000001
678.2996999999999	0.2	doit	71	verb	list	4	6	nomatch	boîtier	-1	1	p	0.7674400000000001
678.4992	0.0	+	71	verb	list	4	7	nomatch	boîtier	-1	1	p	0.7674400000000001
678.8992999999999	0.2	grand	71	verb	list	4	8	nomatch	boîtier	-1	1	p	0.7674400000000001
679.0992	0.0	+	71	verb	list	4	9	nomatch	boîtier	-1	1	p	0.7674400000000001
679.4984999999999	0.2	galoper	71	verb	list	4	10	nomatch	boîtier	-1	1	p	0.7674400000000001
679.6984	0.0	+	71	verb	list	4	11	nomatch	boîtier	-1	1	p	0.7674400000000001
680.0982	0.0	+	71	verb	list	4	12	nomatch	boîtier	-1	1	p	0.7674400000000001
682.0973	0.0	BOÎTIER	71	verb	list	4	13	nomatch	boîtier	-1	1	p	0.7674400000000001
682.947	0.0	+	71	verb	list	4	14	nomatch	boîtier	-1	1	p	0.7674400000000001
682.8647000000001	0.0	[response]	71	verb	list	4	15	nomatch	boîtier	-1	1	p	0.7674400000000001
684.4961999999999	0.0	+	72	noun	list	3	1	nomatch	mon	-1	0	TIMEOUT	-1.0
685.0459999999999	0.2	wjvhcq	72	noun	list	3	2	nomatch	mon	-1	0	TIMEOUT	-1.0
685.2459	0.0	+	72	noun	list	3	3	nomatch	mon	-1	0	TIMEOUT	-1.0
685.6456999999999	0.2	gtzv	72	noun	list	3	4	nomatch	mon	-1	0	TIMEOUT	-1.0
685.8457	0.0	+	72	noun	list	3	5	nomatch	mon	-1	0	TIMEOUT	-1.0
686.2456	0.2	son	72	noun	list	3	6	nomatch	mon	-1	0	TIMEOUT	-1.0
686.4461	0.0	+	72	noun	list	3	7	nomatch	mon	-1	0	TIMEOUT	-1.0
686.8456	0.2	mieux	72	noun	list	3	8	nomatch	mon	-1	0	TIMEOUT	-1.0
687.0450999999999	0.0	+	72	noun	list	3	9	nomatch	mon	-1	0	TIMEOUT	-1.0
687.4449	0.2	voilier	72	noun	list	3	10	nomatch	mon	-1	0	TIMEOUT	-1.0
687.6447999999999	0.0	+	72	noun	list	3	11	nomatch	mon	-1	0	TIMEOUT	-1.0
688.0446	0.0	+	72	noun	list	3	12	nomatch	mon	-1	0	TIMEOUT	-1.0
690.044	0.0	MON	72	noun	list	3	13	nomatch	mon	-1	0	TIMEOUT	-1.0
692.4427	0.0	+	73	verb	list	3	1	match	chasser	5	1	y	0.72508
693.0423999999999	0.2	jndz	73	verb	list	3	2	match	chasser	5	1	y	0.72508
693.2423	0.0	+	73	verb	list	3	3	match	chasser	5	1	y	0.72508
693.6422	0.2	rkh	73	verb	list	3	4	match	chasser	5	1	y	0.72508
693.8421	0.0	+	73	verb	list	3	5	match	chasser	5	1	y	0.72508
694.2419	0.2	doit	73	verb	list	3	6	match	chasser	5	1	y	0.72508
694.4418	0.0	+	73	verb	list	3	7	match	chasser	5	1	y	0.72508
694.8416	0.2	vieux	73	verb	list	3	8	match	chasser	5	1	y	0.72508
695.0414999999999	0.0	+	73	verb	list	3	9	match	chasser	5	1	y	0.72508
695.4413999999999	0.2	chasser	73	verb	list	3	10	match	chasser	5	1	y	0.72508
695.6413	0.0	+	73	verb	list	3	11	match	chasser	5	1	y	0.72508
696.0410999999999	0.0	+	73	verb	list	3	12	match	chasser	5	1	y	0.72508
698.0401999999999	0.0	CHASSER	73	verb	list	3	13	match	chasser	5	1	y	0.72508
698.8565	0.0	+	73	verb	list	3	14	match	chasser	5	1	y	0.72508
698.7652999999999	0.0	[response]	73	verb	list	3	15	match	chasser	5	1	y	0.72508
700.4390999999999	0.0	+	74	verb	list	1	1	nomatch	loin	-1	1	p	0.79561
700.9889	0.2	zflvk	74	verb	list	1	2	nomatch	loin	-1	1	p	0.79561
701.1888	0.0	+	74	verb	list	1	3	nomatch	loin	-1	1	p	0.79561
701.5885999999999	0.2	tgcf	74	verb	list	1	4	nomatch	loin	-1	1	p	0.79561
701.7891999999999	0.0	+	74	verb	list	1	5	nomatch	loin	-1	1	p	0.79561
702.1888	0.2	wqp	74	verb	list	1	6	nomatch	loin	-1	1	p	0.79561
702.4051999999999	0.0	+	74	verb	list	1	7	nomatch	loin	-1	1	p	0.79561
702.7887999999999	0.2	fhmqprb	74	verb	list	1	8	nomatch	loin	-1	1	p	0.79561
703.0052	0.0	+	74	verb	list	1	9	nomatch	loin	-1	1	p	0.79561
703.3878	0.2	bleu	74	verb	list	1	10	nomatch	loin	-1	1	p	0.79561
703.5876999999999	0.0	+	74	verb	list	1	11	nomatch	loin	-1	1	p	0.79561
703.9879999999999	0.0	+	74	verb	list	1	12	nomatch	loin	-1	1	p	0.79561
705.9866999999999	0.0	LOIN	74	verb	list	1	13	nomatch	loin	-1	1	p	0.79561
706.8362999999999	0.0	+	74	verb	list	1	14	nomatch	loin	-1	1	p	0.79561
706.7823	0.0	[response]	74	verb	list	1	15	nomatch	loin	-1	1	p	0.79561
716.3987	0.0	+	75	noun	list	1	1	match	tard	5	1	y	0.7266
716.9485	0.2	lzbrj	75	noun	list	1	2	match	tard	5	1	y	0.7266
717.149	0.0	+	75	noun	list	1	3	match	tard	5	1	y	0.7266
717.5653	0.2	ctdq	75	noun	list	1	4	match	tard	5	1	y	0.7266
717.7483	0.0	+	75	noun	list	1	5	match	tard	5	1	y	0.7266
718.1478999999999	0.2	sk	75	noun	list	1	6	match	tard	5	1	y	0.7266
718.3478	0.0	+	75	noun	list	1	7	match	tard	5	1	y	0.7266
718.7475999999999	0.2	trdnjzw	75	noun	list	1	8	match	tard	5	1	y	0.7266
718.9475	0.0	+	75	noun	list	1	9	match	tard	5	1	y	0.7266
719.3474	0.2	tard	75	noun	list	1	10	match	tard	5	1	y	0.7266
719.5473	0.0	+	75	noun	list	1	11	match	tard	5	1	y	0.7266
719.9472	0.0	+	75	noun	list	1	12	match	tard	5	1	y	0.7266
721.9462	0.0	TARD	75	noun	list	1	13	match	tard	5	1	y	0.7266
722.7292	0.0	+	75	noun	list	1	14	match	tard	5	1	y	0.7266
722.6728	0.0	[response]	75	noun	list	1	15	match	tard	5	1	y	0.7266
724.3451	0.0	+	76	verb	phrase	2	1	nomatch	mieux	-1	1	p	0.77931
724.8949	0.2	dlpszfv	76	verb	phrase	2	2	nomatch	mieux	-1	1	p	0.77931
725.0948	0.0	+	76	verb	phrase	2	3	nomatch	mieux	-1	1	p	0.77931
725.4946	0.2	vqf	76	verb	phrase	2	4	nomatch	mieux	-1	1	p	0.77931
725.6945	0.0	+	76	verb	phrase	2	5	nomatch	mieux	-1	1	p	0.77931
726.0944	0.2	bzct	76	verb	phrase	2	6	nomatch	mieux	-1	1	p	0.77931
726.2943	0.0	+	76	verb	phrase	2	7	nomatch	mieux	-1	1	p	0.77931
726.6947	0.2	plus	76	verb	phrase	2	8	nomatch	mieux	-1	1	p	0.77931
726.894	0.0	+	76	verb	phrase	2	9	nomatch	mieux	-1	1	p	0.77931
727.2937999999999	0.2	parader	76	verb	phrase	2	10	nomatch	mieux	-1	1	p	0.77931
727.4937	0.0	+	76	verb	phrase	2	11	nomatch	mieux	-1	1	p	0.77931
727.8935	0.0	+	76	verb	phrase	2	12	nomatch	mieux	-1	1	p	0.77931
729.8927	0.0	MIEUX	76	verb	phrase	2	13	nomatch	mieux	-1	1	p	0.77931
730.7256	0.0	+	76	verb	phrase	2	14	nomatch	mieux	-1	1	p	0.77931
730.6719999999999	0.0	[response]	76	verb	phrase	2	15	nomatch	mieux	-1	1	p	0.77931
732.2916	0.0	+	77	verb	list	3	1	nomatch	rocher	-1	1	p	0.65041
732.8412999999999	0.2	jwsbvlq	77	verb	list	3	2	nomatch	rocher	-1	1	p	0.65041
733.0413	0.0	+	77	verb	list	3	3	nomatch	rocher	-1	1	p	0.65041
733.4416	0.2	gpqk	77	verb	list	3	4	nomatch	rocher	-1	1	p	0.65041
733.6413	0.0	+	77	verb	list	3	5	nomatch	rocher	-1	1	p	0.65041
734.0409	0.2	leur	77	verb	list	3	6	nomatch	rocher	-1	1	p	0.65041
734.2407	0.0	+	77	verb	list	3	7	nomatch	rocher	-1	1	p	0.65041
734.6405	0.2	patiner	77	verb	list	3	8	nomatch	rocher	-1	1	p	0.65041
734.8403999999999	0.0	+	77	verb	list	3	9	nomatch	rocher	-1	1	p	0.65041
735.2402999999999	0.2	bleu	77	verb	list	3	10	nomatch	rocher	-1	1	p	0.65041
735.4402	0.0	+	77	verb	list	3	11	nomatch	rocher	-1	1	p	0.65041
735.8403	0.0	+	77	verb	list	3	12	nomatch	rocher	-1	1	p	0.65041
737.8390999999999	0.0	ROCHER	77	verb	list	3	13	nomatch	rocher	-1	1	p	0.65041
738.5554999999999	0.0	+	77	verb	list	3	14	nomatch	rocher	-1	1	p	0.65041
738.4895000000001	0.0	[response]	77	verb	list	3	15	nomatch	rocher	-1	1	p	0.65041
740.2379999999999	0.0	+	78	verb	phrase	3	1	match	doit	3	1	y	0.81241
740.7878	0.2	wqljnf	78	verb	phrase	3	2	match	doit	3	1	y	0.81241
740.9879999999999	0.0	+	78	verb	phrase	3	3	match	doit	3	1	y	0.81241
741.3874999999999	0.2	gtzv	78	verb	phrase	3	4	match	doit	3	1	y	0.81241
741.5874	0.0	+	78	verb	phrase	3	5	match	doit	3	1	y	0.81241
742.0045	0.2	doit	78	verb	phrase	3	6	match	doit	3	1	y	0.81241
742.1872	0.0	+	78	verb	phrase	3	7	match	doit	3	1	y	0.81241
742.5872999999999	0.2	chasser	78	verb	phrase	3	8	match	doit	3	1	y	0.81241
742.7873999999999	0.0	+	78	verb	phrase	3	9	match	doit	3	1	y	0.81241
743.187	0.2	vite	78	verb	phrase	3	10	match	doit	3	1	y	0.81241
743.3865999999999	0.0	+	78	verb	phrase	3	11	match	doit	3	1	y	0.81241
743.7864999999999	0.0	+	78	verb	phrase	3	12	match	doit	3	1	y	0.81241
745.7855999999999	0.0	DOIT	78	verb	phrase	3	13	match	doit	3	1	y	0.81241
746.6519	0.0	+	78	verb	phrase	3	14	match	doit	3	1	y	0.81241
746.598	0.0	[response]	78	verb	phrase	3	15	match	doit	3	1	y	0.81241
748.1845	0.0	+	79	verb	phrase	2	1	match	patiner	5	1	y	0.65042
748.7342	0.2	zvwm	79	verb	phrase	2	2	match	patiner	5	1	y	0.65042
748.9341999999999	0.0	+	79	verb	phrase	2	3	match	patiner	5	1	y	0.65042
749.334	0.2	gpqk	79	verb	phrase	2	4	match	patiner	5	1	y	0.65042
749.5339	0.0	+	79	verb	phrase	2	5	match	patiner	5	1	y	0.65042
749.9339	0.2	bzct	79	verb	phrase	2	6	match	patiner	5	1	y	0.65042
750.1342999999999	0.0	+	79	verb	phrase	2	7	match	patiner	5	1	y	0.65042
750.5505999999999	0.2	plus	79	verb	phrase	2	8	match	patiner	5	1	y	0.65042
750.7504	0.0	+	79	verb	phrase	2	9	match	patiner	5	1	y	0.65042
751.1499	0.2	patiner	79	verb	phrase	2	10	match	patiner	5	1	y	0.65042
751.3498	0.0	+	79	verb	phrase	2	11	match	patiner	5	1	y	0.65042
751.7496	0.0	+	79	verb	phrase	2	12	match	patiner	5	1	y	0.65042
753.7656999999999	0.0	PATINER	79	verb	phrase	2	13	match	patiner	5	1	y	0.65042
754.5317	0.0	+	79	verb	phrase	2	14	match	patiner	5	1	y	0.65042
754.4160999999999	0.0	[response]	79	verb	phrase	2	15	match	patiner	5	1	y	0.65042
756.1476	0.0	+	80	noun	phrase	2	1	nomatch	bleu	-1	1	p	0.80832
756.6974	0.2	nzblphw	80	noun	phrase	2	2	nomatch	bleu	-1	1	p	0.80832
756.8979999999999	0.0	+	80	noun	phrase	2	3	nomatch	bleu	-1	1	p	0.80832
757.2977999999999	0.2	hrms	80	noun	phrase	2	4	nomatch	bleu	-1	1	p	0.80832
757.5138999999999	0.0	+	80	noun	phrase	2	5	nomatch	bleu	-1	1	p	0.80832
757.8974999999999	0.2	rdq	80	noun	phrase	2	6	nomatch	bleu	-1	1	p	0.80832
758.0966999999999	0.0	+	80	noun	phrase	2	7	nomatch	bleu	-1	1	p	0.80832
758.4966	0.2	casier	80	noun	phrase	2	8	nomatch	bleu	-1	1	p	0.80832
758.6965	0.0	+	80	noun	phrase	2	9	nomatch	bleu	-1	1	p	0.80832
759.0962999999999	0.2	vert	80	noun	phrase	2	10	nomatch	bleu	-1	1	p	0.80832
759.2962	0.0	+	80	noun	phrase	2	11	nomatch	bleu	-1	1	p	0.80832
759.6959999999999	0.0	+	80	noun	phrase	2	12	nomatch	bleu	-1	1	p	0.80832
761.6952	0.0	BLEU	80	noun	phrase	2	13	nomatch	bleu	-1	1	p	0.80832
762.5613999999999	0.0	+	80	noun	phrase	2	14	nomatch	bleu	-1	1	p	0.80832
764.0940999999999	0.0	+	80	noun	phrase	2	15	nomatch	bleu	-1	1	p	0.80832
765.0102999999999	0.0	+	80	noun	phrase	2	16	nomatch	bleu	-1	1	p	0.80832
765.1102999999999	0.0	+	80	noun	phrase	2	17	nomatch	bleu	-1	1	p	0.80832
766.5097	0.0	+	80	noun	phrase	2	18	nomatch	bleu	-1	1	p	0.80832
766.6096	0.0	+	80	noun	phrase	2	19	nomatch	bleu	-1	1	p	0.80832
768.009	0.0	+	80	noun	phrase	2	20	nomatch	bleu	-1	1	p	0.80832
768.1089999999999	0.0	+	80	noun	phrase	2	21	nomatch	bleu	-1	1	p	0.80832
769.4916999999999	0.0	+	80	noun	phrase	2	22	nomatch	bleu	-1	1	p	0.80832
769.5916	0.0	+	80	noun	phrase	2	23	nomatch	bleu	-1	1	p	0.80832
771.0077	0.0	+	80	noun	phrase	2	24	nomatch	bleu	-1	1	p	0.80832
771.1075999999999	0.0	+	80	noun	phrase	2	25	nomatch	bleu	-1	1	p	0.80832
772.507	0.0	+	80	noun	phrase	2	26	nomatch	bleu	-1	1	p	0.80832
772.6069	0.0	+	80	noun	phrase	2	27	nomatch	bleu	-1	1	p	0.80832
774.0063	0.0	+	80	noun	phrase	2	28	nomatch	bleu	-1	1	p	0.80832
774.1062999999999	0.0	+	80	noun	phrase	2	29	nomatch	bleu	-1	1	p	0.80832
775.5056999999999	0.0	+	80	noun	phrase	2	30	nomatch	bleu	-1	1	p	0.80832
775.6056	0.0	+	80	noun	phrase	2	31	nomatch	bleu	-1	1	p	0.80832
777.005	0.0	+	80	noun	phrase	2	32	nomatch	bleu	-1	1	p	0.80832
777.1048999999999	0.0	+	80	noun	phrase	2	33	nomatch	bleu	-1	1	p	0.80832
778.5043	0.0	+	80	noun	phrase	2	34	nomatch	bleu	-1	1	p	0.80832
778.6043	0.0	+	80	noun	phrase	2	35	nomatch	bleu	-1	1	p	0.80832
788.9162999999999	0.0	+	80	noun	phrase	2	36	nomatch	bleu	-1	1	p	0.80832
762.5034999999999	0.0	[response]	80	noun	phrase	2	37	nomatch	bleu	-1	1	p	0.80832
