onset	duration	stim	trial_number	trial_type	trial_structure	trial_length	sequential_position	probe_type	probe	probe_position	response_correct	response_key	response_time
0.052599999999998204	0.0	+	1	noun	list	1	1	nomatch	son	-1	1	y	1.0003
0.5357000000000056	0.2	wpxgf	1	noun	list	1	2	nomatch	son	-1	1	y	1.0003
0.7356000000000051	0.0	+	1	noun	list	1	3	nomatch	son	-1	1	y	1.0003
1.1355000000000075	0.2	dsmq	1	noun	list	1	4	nomatch	son	-1	1	y	1.0003
1.335400000000007	0.0	+	1	noun	list	1	5	nomatch	son	-1	1	y	1.0003
1.735200000000006	0.2	kqfr	1	noun	list	1	6	nomatch	son	-1	1	y	1.0003
1.9351000000000056	0.0	+	1	noun	list	1	7	nomatch	son	-1	1	y	1.0003
2.3349000000000046	0.2	kprx	1	noun	list	1	8	nomatch	son	-1	1	y	1.0003
2.534800000000004	0.0	+	1	noun	list	1	9	nomatch	son	-1	1	y	1.0003
2.934600000000003	0.2	casier	1	noun	list	1	10	nomatch	son	-1	1	y	1.0003
3.1517000000000053	0.0	+	1	noun	list	1	11	nomatch	son	-1	1	y	1.0003
3.534700000000001	0.0	+	1	noun	list	1	12	nomatch	son	-1	1	y	1.0003
5.5501000000000005	0.0	SON	1	noun	list	1	13	nomatch	son	-1	1	y	1.0003
6.617000000000004	0.0	+	1	noun	list	1	14	nomatch	son	-1	1	y	1.0003
6.5504999999999995	0.0	[response]	1	noun	list	1	15	nomatch	son	-1	1	y	1.0003
7.948999999999998	0.0	+	2	noun	list	2	1	match	mieux	4	1	p	0.77747
8.498800000000003	0.2	fgshb	2	noun	list	2	2	match	mieux	4	1	p	0.77747
8.698700000000002	0.0	+	2	noun	list	2	3	match	mieux	4	1	p	0.77747
9.098500000000001	0.2	vhfx	2	noun	list	2	4	match	mieux	4	1	p	0.77747
9.2984	0.0	+	2	noun	list	2	5	match	mieux	4	1	p	0.77747
9.6982	0.2	rgnb	2	noun	list	2	6	match	mieux	4	1	p	0.77747
9.898200000000003	0.0	+	2	noun	list	2	7	match	mieux	4	1	p	0.77747
10.298000000000002	0.2	mieux	2	noun	list	2	8	match	mieux	4	1	p	0.77747
10.497900000000001	0.0	+	2	noun	list	2	9	match	mieux	4	1	p	0.77747
10.89800000000001	0.2	tablier	2	noun	list	2	10	match	mieux	4	1	p	0.77747
11.097800000000007	0.0	+	2	noun	list	2	11	match	mieux	4	1	p	0.77747
11.497900000000001	0.0	+	2	noun	list	2	12	match	mieux	4	1	p	0.77747
13.497100000000003	0.0	MIEUX	2	noun	list	2	13	match	mieux	4	1	p	0.77747
14.362800000000007	0.0	+	2	noun	list	2	14	match	mieux	4	1	p	0.77747
14.274600000000007	0.0	[response]	2	noun	list	2	15	match	mieux	4	1	p	0.77747
15.89540000000001	0.0	+	3	noun	list	1	1	match	panier	5	1	p	0.85541
16.4452	0.2	zkmtq	3	noun	list	1	2	match	panier	5	1	p	0.85541
16.6451	0.0	+	3	noun	list	1	3	match	panier	5	1	p	0.85541
17.0449	0.2	mrlw	3	noun	list	1	4	match	panier	5	1	p	0.85541
17.244799999999998	0.0	+	3	noun	list	1	5	match	panier	5	1	p	0.85541
17.64460000000001	0.2	kqfr	3	noun	list	1	6	match	panier	5	1	p	0.85541
17.845200000000006	0.0	+	3	noun	list	1	7	match	panier	5	1	p	0.85541
18.245000000000005	0.2	fhmq	3	noun	list	1	8	match	panier	5	1	p	0.85541
18.4448	0.0	+	3	noun	list	1	9	match	panier	5	1	p	0.85541
18.844800000000006	0.2	panier	3	noun	list	1	10	match	panier	5	1	p	0.85541
19.044600000000003	0.0	+	3	noun	list	1	11	match	panier	5	1	p	0.85541
19.44380000000001	0.0	+	3	noun	list	1	12	match	panier	5	1	p	0.85541
21.44290000000001	0.0	PANIER	3	noun	list	1	13	match	panier	5	1	p	0.85541
22.3592	0.0	+	3	noun	list	1	14	match	panier	5	1	p	0.85541
22.298299999999998	0.0	[response]	3	noun	list	1	15	match	panier	5	1	p	0.85541
23.841800000000006	0.0	+	4	noun	list	1	1	match	loin	5	1	p	1.1331
24.39160000000001	0.2	mgsj	4	noun	list	1	2	match	loin	5	1	p	1.1331
24.59150000000001	0.0	+	4	noun	list	1	3	match	loin	5	1	p	1.1331
24.99130000000001	0.2	dsmq	4	noun	list	1	4	match	loin	5	1	p	1.1331
25.19120000000001	0.0	+	4	noun	list	1	5	match	loin	5	1	p	1.1331
25.591000000000008	0.2	tk	4	noun	list	1	6	match	loin	5	1	p	1.1331
25.790900000000008	0.0	+	4	noun	list	1	7	match	loin	5	1	p	1.1331
26.19080000000001	0.2	tsjpbd	4	noun	list	1	8	match	loin	5	1	p	1.1331
26.39070000000001	0.0	+	4	noun	list	1	9	match	loin	5	1	p	1.1331
26.790800000000004	0.2	loin	4	noun	list	1	10	match	loin	5	1	p	1.1331
26.990400000000008	0.0	+	4	noun	list	1	11	match	loin	5	1	p	1.1331
27.390200000000007	0.0	+	4	noun	list	1	12	match	loin	5	1	p	1.1331
29.39	0.0	LOIN	4	noun	list	1	13	match	loin	5	1	p	1.1331
30.588800000000006	0.0	+	4	noun	list	1	14	match	loin	5	1	p	1.1331
30.523200000000003	0.0	[response]	4	noun	list	1	15	match	loin	5	1	p	1.1331
31.788200000000003	0.0	+	5	verb	list	3	1	nomatch	son	-1	0	p	0.85803
32.33800000000001	0.2	mpxtjrk	5	verb	list	3	2	nomatch	son	-1	0	p	0.85803
32.53790000000001	0.0	+	5	verb	list	3	3	nomatch	son	-1	0	p	0.85803
32.93770000000001	0.2	dxcb	5	verb	list	3	4	nomatch	son	-1	0	p	0.85803
33.1382	0.0	+	5	verb	list	3	5	nomatch	son	-1	0	p	0.85803
33.53800000000001	0.2	mon	5	verb	list	3	6	nomatch	son	-1	0	p	0.85803
33.73750000000001	0.0	+	5	verb	list	3	7	nomatch	son	-1	0	p	0.85803
34.137100000000004	0.2	galoper	5	verb	list	3	8	nomatch	son	-1	0	p	0.85803
34.33710000000001	0.0	+	5	verb	list	3	9	nomatch	son	-1	0	p	0.85803
34.736900000000006	0.2	noir	5	verb	list	3	10	nomatch	son	-1	0	p	0.85803
34.936800000000005	0.0	+	5	verb	list	3	11	nomatch	son	-1	0	p	0.85803
35.336600000000004	0.0	+	5	verb	list	3	12	nomatch	son	-1	0	p	0.85803
37.33590000000001	0.0	SON	5	verb	list	3	13	nomatch	son	-1	0	p	0.85803
38.25200000000001	0.0	+	5	verb	list	3	14	nomatch	son	-1	0	p	0.85803
38.194	0.0	[response]	5	verb	list	3	15	nomatch	son	-1	0	p	0.85803
39.7346	0.0	+	6	noun	list	1	1	nomatch	avec	-1	1	y	0.8648300000000001
40.284400000000005	0.2	frjkc	6	noun	list	1	2	nomatch	avec	-1	1	y	0.8648300000000001
40.484300000000005	0.0	+	6	noun	list	1	3	nomatch	avec	-1	1	y	0.8648300000000001
40.884100000000004	0.2	gbpz	6	noun	list	1	4	nomatch	avec	-1	1	y	0.8648300000000001
41.084	0.0	+	6	noun	list	1	5	nomatch	avec	-1	1	y	0.8648300000000001
41.4838	0.2	kqfr	6	noun	list	1	6	nomatch	avec	-1	1	y	0.8648300000000001
41.6837	0.0	+	6	noun	list	1	7	nomatch	avec	-1	1	y	0.8648300000000001
42.083600000000004	0.2	kldhfxr	6	noun	list	1	8	nomatch	avec	-1	1	y	0.8648300000000001
42.300200000000004	0.0	+	6	noun	list	1	9	nomatch	avec	-1	1	y	0.8648300000000001
42.7003	0.2	tard	6	noun	list	1	10	nomatch	avec	-1	1	y	0.8648300000000001
42.9003	0.0	+	6	noun	list	1	11	nomatch	avec	-1	1	y	0.8648300000000001
43.2997	0.0	+	6	noun	list	1	12	nomatch	avec	-1	1	y	0.8648300000000001
45.2988	0.0	AVEC	6	noun	list	1	13	nomatch	avec	-1	1	y	0.8648300000000001
46.215	0.0	+	6	noun	list	1	14	nomatch	avec	-1	1	y	0.8648300000000001
46.1636	0.0	[response]	6	noun	list	1	15	nomatch	avec	-1	1	y	0.8648300000000001
47.6977	0.0	+	7	noun	phrase	1	1	match	rocher	5	1	p	0.71654
48.2474	0.2	bnhdk	7	noun	phrase	1	2	match	rocher	5	1	p	0.71654
48.4473	0.0	+	7	noun	phrase	1	3	match	rocher	5	1	p	0.71654
48.864000000000004	0.2	tfbq	7	noun	phrase	1	4	match	rocher	5	1	p	0.71654
49.0471	0.0	+	7	noun	phrase	1	5	match	rocher	5	1	p	0.71654
49.4473	0.2	pqk	7	noun	phrase	1	6	match	rocher	5	1	p	0.71654
49.647000000000006	0.0	+	7	noun	phrase	1	7	match	rocher	5	1	p	0.71654
50.047100000000015	0.2	mtnpk	7	noun	phrase	1	8	match	rocher	5	1	p	0.71654
50.24650000000001	0.0	+	7	noun	phrase	1	9	match	rocher	5	1	p	0.71654
50.64630000000001	0.2	rocher	7	noun	phrase	1	10	match	rocher	5	1	p	0.71654
50.846199999999996	0.0	+	7	noun	phrase	1	11	match	rocher	5	1	p	0.71654
51.2461	0.0	+	7	noun	phrase	1	12	match	rocher	5	1	p	0.71654
53.2452	0.0	ROCHER	7	noun	phrase	1	13	match	rocher	5	1	p	0.71654
54.04550000000002	0.0	+	7	noun	phrase	1	14	match	rocher	5	1	p	0.71654
53.96169999999999	0.0	[response]	7	noun	phrase	1	15	match	rocher	5	1	p	0.71654
55.644099999999995	0.0	+	8	noun	list	1	1	match	sablier	5	1	p	0.69983
56.193799999999996	0.2	kqvcrg	8	noun	list	1	2	match	sablier	5	1	p	0.69983
56.39370000000001	0.0	+	8	noun	list	1	3	match	sablier	5	1	p	0.69983
56.79350000000001	0.2	gbpz	8	noun	list	1	4	match	sablier	5	1	p	0.69983
56.9935	0.0	+	8	noun	list	1	5	match	sablier	5	1	p	0.69983
57.393299999999996	0.2	kqfr	8	noun	list	1	6	match	sablier	5	1	p	0.69983
57.59320000000001	0.0	+	8	noun	list	1	7	match	sablier	5	1	p	0.69983
57.9935	0.2	kprx	8	noun	list	1	8	match	sablier	5	1	p	0.69983
58.20989999999999	0.0	+	8	noun	list	1	9	match	sablier	5	1	p	0.69983
58.59340000000002	0.2	sablier	8	noun	list	1	10	match	sablier	5	1	p	0.69983
58.7932	0.0	+	8	noun	list	1	11	match	sablier	5	1	p	0.69983
59.19260000000001	0.0	+	8	noun	list	1	12	match	sablier	5	1	p	0.69983
61.19160000000001	0.0	SABLIER	8	noun	list	1	13	match	sablier	5	1	p	0.69983
61.95790000000001	0.0	+	8	noun	list	1	14	match	sablier	5	1	p	0.69983
61.89140000000002	0.0	[response]	8	noun	list	1	15	match	sablier	5	1	p	0.69983
63.590500000000006	0.0	+	9	verb	phrase	3	1	nomatch	doit	-1	1	y	1.6260000000000001
64.14020000000001	0.2	gdwqtsr	9	verb	phrase	3	2	nomatch	doit	-1	1	y	1.6260000000000001
64.34009999999999	0.0	+	9	verb	phrase	3	3	nomatch	doit	-1	1	y	1.6260000000000001
64.75699999999999	0.2	mkxz	9	verb	phrase	3	4	nomatch	doit	-1	1	y	1.6260000000000001
64.93990000000001	0.0	+	9	verb	phrase	3	5	nomatch	doit	-1	1	y	1.6260000000000001
65.33970000000001	0.2	va	9	verb	phrase	3	6	nomatch	doit	-1	1	y	1.6260000000000001
65.5396	0.0	+	9	verb	phrase	3	7	nomatch	doit	-1	1	y	1.6260000000000001
65.93939999999999	0.2	galoper	9	verb	phrase	3	8	nomatch	doit	-1	1	y	1.6260000000000001
66.1393	0.0	+	9	verb	phrase	3	9	nomatch	doit	-1	1	y	1.6260000000000001
66.5391	0.2	tard	9	verb	phrase	3	10	nomatch	doit	-1	1	y	1.6260000000000001
66.7391	0.0	+	9	verb	phrase	3	11	nomatch	doit	-1	1	y	1.6260000000000001
67.13960000000002	0.0	+	9	verb	phrase	3	12	nomatch	doit	-1	1	y	1.6260000000000001
69.13799999999999	0.0	DOIT	9	verb	phrase	3	13	nomatch	doit	-1	1	y	1.6260000000000001
70.8205	0.0	+	9	verb	phrase	3	14	nomatch	doit	-1	1	y	1.6260000000000001
70.764	0.0	[response]	9	verb	phrase	3	15	nomatch	doit	-1	1	y	1.6260000000000001
71.53690000000002	0.0	+	10	noun	list	1	1	nomatch	moins	-1	1	y	1.0473
72.08660000000002	0.2	mrkjvb	10	noun	list	1	2	nomatch	moins	-1	1	y	1.0473
72.2865	0.0	+	10	noun	list	1	3	nomatch	moins	-1	1	y	1.0473
72.6864	0.2	bzsw	10	noun	list	1	4	nomatch	moins	-1	1	y	1.0473
72.88629999999999	0.0	+	10	noun	list	1	5	nomatch	moins	-1	1	y	1.0473
73.28609999999999	0.2	rgnb	10	noun	list	1	6	nomatch	moins	-1	1	y	1.0473
73.486	0.0	+	10	noun	list	1	7	nomatch	moins	-1	1	y	1.0473
73.8858	0.2	jctkwzl	10	noun	list	1	8	nomatch	moins	-1	1	y	1.0473
74.0861	0.0	+	10	noun	list	1	9	nomatch	moins	-1	1	y	1.0473
74.48620000000001	0.2	beaucoup	10	noun	list	1	10	nomatch	moins	-1	1	y	1.0473
74.6861	0.0	+	10	noun	list	1	11	nomatch	moins	-1	1	y	1.0473
75.0853	0.0	+	10	noun	list	1	12	nomatch	moins	-1	1	y	1.0473
77.0844	0.0	MOINS	10	noun	list	1	13	nomatch	moins	-1	1	y	1.0473
78.2677	0.0	+	10	noun	list	1	14	nomatch	moins	-1	1	y	1.0473
78.13170000000004	0.0	[response]	10	noun	list	1	15	nomatch	moins	-1	1	y	1.0473
79.49990000000001	0.0	+	11	noun	phrase	1	1	nomatch	plonger	-1	1	y	1.1677
80.04970000000002	0.2	srjpdh	11	noun	phrase	1	2	nomatch	plonger	-1	1	y	1.1677
80.2496	0.0	+	11	noun	phrase	1	3	nomatch	plonger	-1	1	y	1.1677
80.6494	0.2	gbpz	11	noun	phrase	1	4	nomatch	plonger	-1	1	y	1.1677
80.84930000000001	0.0	+	11	noun	phrase	1	5	nomatch	plonger	-1	1	y	1.1677
81.24910000000001	0.2	pqk	11	noun	phrase	1	6	nomatch	plonger	-1	1	y	1.1677
81.4491	0.0	+	11	noun	phrase	1	7	nomatch	plonger	-1	1	y	1.1677
81.84930000000001	0.2	ftdsmc	11	noun	phrase	1	8	nomatch	plonger	-1	1	y	1.1677
82.0656	0.0	+	11	noun	phrase	1	9	nomatch	plonger	-1	1	y	1.1677
82.4492	0.2	vieux	11	noun	phrase	1	10	nomatch	plonger	-1	1	y	1.1677
82.64890000000001	0.0	+	11	noun	phrase	1	11	nomatch	plonger	-1	1	y	1.1677
83.0483	0.0	+	11	noun	phrase	1	12	nomatch	plonger	-1	1	y	1.1677
85.04800000000002	0.0	PLONGER	11	noun	phrase	1	13	nomatch	plonger	-1	1	y	1.1677
86.2802	0.0	+	11	noun	phrase	1	14	nomatch	plonger	-1	1	y	1.1677
86.21560000000001	0.0	[response]	11	noun	phrase	1	15	nomatch	plonger	-1	1	y	1.1677
87.4463	0.0	+	12	verb	list	1	1	match	blanc	5	1	p	1.9049
87.9961	0.2	vpgrnb	12	verb	list	1	2	match	blanc	5	1	p	1.9049
88.19600000000001	0.0	+	12	verb	list	1	3	match	blanc	5	1	p	1.9049
88.59580000000001	0.2	vhfx	12	verb	list	1	4	match	blanc	5	1	p	1.9049
88.7957	0.0	+	12	verb	list	1	5	match	blanc	5	1	p	1.9049
89.1955	0.2	rgnb	12	verb	list	1	6	match	blanc	5	1	p	1.9049
89.39540000000001	0.0	+	12	verb	list	1	7	match	blanc	5	1	p	1.9049
89.79530000000001	0.2	cstmb	12	verb	list	1	8	match	blanc	5	1	p	1.9049
89.9952	0.0	+	12	verb	list	1	9	match	blanc	5	1	p	1.9049
90.39550000000001	0.2	blanc	12	verb	list	1	10	match	blanc	5	1	p	1.9049
90.5956	0.0	+	12	verb	list	1	11	match	blanc	5	1	p	1.9049
90.99470000000001	0.0	+	12	verb	list	1	12	match	blanc	5	1	p	1.9049
92.99380000000001	0.0	BLANC	12	verb	list	1	13	match	blanc	5	1	p	1.9049
94.95960000000001	0.0	+	12	verb	list	1	14	match	blanc	5	1	p	1.9049
94.8987	0.0	[response]	12	verb	list	1	15	match	blanc	5	1	p	1.9049
95.3927	0.0	+	13	verb	list	4	1	nomatch	loin	-1	0	p	1.5821
95.94250000000001	0.2	qwt	13	verb	list	4	2	nomatch	loin	-1	0	p	1.5821
96.1424	0.0	+	13	verb	list	4	3	nomatch	loin	-1	0	p	1.5821
96.5422	0.2	yves	13	verb	list	4	4	nomatch	loin	-1	0	p	1.5821
96.74220000000001	0.0	+	13	verb	list	4	5	nomatch	loin	-1	0	p	1.5821
97.14200000000001	0.2	son	13	verb	list	4	6	nomatch	loin	-1	0	p	1.5821
97.34250000000002	0.0	+	13	verb	list	4	7	nomatch	loin	-1	0	p	1.5821
97.742	0.2	patiner	13	verb	list	4	8	nomatch	loin	-1	0	p	1.5821
97.95900000000002	0.0	+	13	verb	list	4	9	nomatch	loin	-1	0	p	1.5821
98.34140000000001	0.2	vert	13	verb	list	4	10	nomatch	loin	-1	0	p	1.5821
98.54129999999999	0.0	+	13	verb	list	4	11	nomatch	loin	-1	0	p	1.5821
98.94109999999999	0.0	+	13	verb	list	4	12	nomatch	loin	-1	0	p	1.5821
100.9404	0.0	LOIN	13	verb	list	4	13	nomatch	loin	-1	0	p	1.5821
102.5895	0.0	+	13	verb	list	4	14	nomatch	loin	-1	0	p	1.5821
102.5225	0.0	[response]	13	verb	list	4	15	nomatch	loin	-1	0	p	1.5821
103.33910000000002	0.0	+	14	verb	list	1	1	match	nager	5	1	p	0.76693
103.88889999999999	0.2	cmsfp	14	verb	list	1	2	match	nager	5	1	p	0.76693
104.0888	0.0	+	14	verb	list	1	3	match	nager	5	1	p	0.76693
104.4886	0.2	gbpz	14	verb	list	1	4	match	nager	5	1	p	0.76693
104.68849999999999	0.0	+	14	verb	list	1	5	match	nager	5	1	p	0.76693
105.08830000000002	0.2	kqfr	14	verb	list	1	6	match	nager	5	1	p	0.76693
105.2882	0.0	+	14	verb	list	1	7	match	nager	5	1	p	0.76693
105.6881	0.2	nrtjf	14	verb	list	1	8	match	nager	5	1	p	0.76693
105.88799999999999	0.0	+	14	verb	list	1	9	match	nager	5	1	p	0.76693
106.28780000000002	0.2	nager	14	verb	list	1	10	match	nager	5	1	p	0.76693
106.4884	0.0	+	14	verb	list	1	11	match	nager	5	1	p	0.76693
106.8882	0.0	+	14	verb	list	1	12	match	nager	5	1	p	0.76693
108.88719999999999	0.0	NAGER	14	verb	list	1	13	match	nager	5	1	p	0.76693
109.7196	0.0	+	14	verb	list	1	14	match	nager	5	1	p	0.76693
109.65410000000001	0.0	[response]	14	verb	list	1	15	match	nager	5	1	p	0.76693
111.2855	0.0	+	15	noun	phrase	3	1	match	mon	3	1	p	1.7204
111.8353	0.2	flj	15	noun	phrase	3	2	match	mon	3	1	p	1.7204
112.03520000000002	0.0	+	15	noun	phrase	3	3	match	mon	3	1	p	1.7204
112.43500000000002	0.2	mrlw	15	noun	phrase	3	4	match	mon	3	1	p	1.7204
112.6349	0.0	+	15	noun	phrase	3	5	match	mon	3	1	p	1.7204
113.03500000000001	0.2	mon	15	noun	phrase	3	6	match	mon	3	1	p	1.7204
113.23540000000001	0.0	+	15	noun	phrase	3	7	match	mon	3	1	p	1.7204
113.6349	0.2	sablier	15	noun	phrase	3	8	match	mon	3	1	p	1.7204
113.83460000000001	0.0	+	15	noun	phrase	3	9	match	mon	3	1	p	1.7204
114.2342	0.2	bleu	15	noun	phrase	3	10	match	mon	3	1	p	1.7204
114.43410000000002	0.0	+	15	noun	phrase	3	11	match	mon	3	1	p	1.7204
114.83390000000001	0.0	+	15	noun	phrase	3	12	match	mon	3	1	p	1.7204
116.8497	0.0	MON	15	noun	phrase	3	13	match	mon	3	1	p	1.7204
118.6322	0.0	+	15	noun	phrase	3	14	match	mon	3	1	p	1.7204
118.57010000000001	0.0	[response]	15	noun	phrase	3	15	match	mon	3	1	p	1.7204
135.24130000000002	0.0	+	16	verb	list	3	1	nomatch	jade	-1	0	p	1.9348000000000003
135.79110000000003	0.2	kmwv	16	verb	list	3	2	nomatch	jade	-1	0	p	1.9348000000000003
135.99099999999999	0.0	+	16	verb	list	3	3	nomatch	jade	-1	0	p	1.9348000000000003
136.3913	0.2	tfbq	16	verb	list	3	4	nomatch	jade	-1	0	p	1.9348000000000003
136.59140000000002	0.0	+	16	verb	list	3	5	nomatch	jade	-1	0	p	1.9348000000000003
136.9912	0.2	doit	16	verb	list	3	6	nomatch	jade	-1	0	p	1.9348000000000003
137.2077	0.0	+	16	verb	list	3	7	nomatch	jade	-1	0	p	1.9348000000000003
137.5903	0.2	vieux	16	verb	list	3	8	nomatch	jade	-1	0	p	1.9348000000000003
137.79020000000003	0.0	+	16	verb	list	3	9	nomatch	jade	-1	0	p	1.9348000000000003
138.19	0.2	voyager	16	verb	list	3	10	nomatch	jade	-1	0	p	1.9348000000000003
138.3899	0.0	+	16	verb	list	3	11	nomatch	jade	-1	0	p	1.9348000000000003
138.78969999999998	0.0	+	16	verb	list	3	12	nomatch	jade	-1	0	p	1.9348000000000003
140.78879999999998	0.0	JADE	16	verb	list	3	13	nomatch	jade	-1	0	p	1.9348000000000003
142.78789999999998	0.0	+	16	verb	list	3	14	nomatch	jade	-1	0	p	1.9348000000000003
142.72359999999998	0.0	[response]	16	verb	list	3	15	nomatch	jade	-1	0	p	1.9348000000000003
143.1877	0.0	+	17	verb	phrase	2	1	nomatch	rouler	-1	1	y	1.1317
143.7375	0.2	mjpz	17	verb	phrase	2	2	nomatch	rouler	-1	1	y	1.1317
143.93740000000003	0.0	+	17	verb	phrase	2	3	nomatch	rouler	-1	1	y	1.1317
144.3372	0.2	dxcb	17	verb	phrase	2	4	nomatch	rouler	-1	1	y	1.1317
144.5371	0.0	+	17	verb	phrase	2	5	nomatch	rouler	-1	1	y	1.1317
144.93689999999998	0.2	fhgp	17	verb	phrase	2	6	nomatch	rouler	-1	1	y	1.1317
145.1368	0.0	+	17	verb	phrase	2	7	nomatch	rouler	-1	1	y	1.1317
145.5367	0.2	galoper	17	verb	phrase	2	8	nomatch	rouler	-1	1	y	1.1317
145.7366	0.0	+	17	verb	phrase	2	9	nomatch	rouler	-1	1	y	1.1317
146.137	0.2	vite	17	verb	phrase	2	10	nomatch	rouler	-1	1	y	1.1317
146.3367	0.0	+	17	verb	phrase	2	11	nomatch	rouler	-1	1	y	1.1317
146.7369	0.0	+	17	verb	phrase	2	12	nomatch	rouler	-1	1	y	1.1317
148.73520000000002	0.0	ROULER	17	verb	phrase	2	13	nomatch	rouler	-1	1	y	1.1317
149.93470000000002	0.0	+	17	verb	phrase	2	14	nomatch	rouler	-1	1	y	1.1317
149.86700000000002	0.0	[response]	17	verb	phrase	2	15	nomatch	rouler	-1	1	y	1.1317
159.14710000000002	0.0	+	18	noun	phrase	4	1	match	grand	4	1	p	0.9693700000000001
159.69690000000003	0.2	kgdpz	18	noun	phrase	4	2	match	grand	4	1	p	0.9693700000000001
159.89679999999998	0.0	+	18	noun	phrase	4	3	match	grand	4	1	p	0.9693700000000001
160.2966	0.2	avec	18	noun	phrase	4	4	match	grand	4	1	p	0.9693700000000001
160.49650000000003	0.0	+	18	noun	phrase	4	5	match	grand	4	1	p	0.9693700000000001
160.89659999999998	0.2	son	18	noun	phrase	4	6	match	grand	4	1	p	0.9693700000000001
161.09640000000002	0.0	+	18	noun	phrase	4	7	match	grand	4	1	p	0.9693700000000001
161.49670000000003	0.2	grand	18	noun	phrase	4	8	match	grand	4	1	p	0.9693700000000001
161.69650000000001	0.0	+	18	noun	phrase	4	9	match	grand	4	1	p	0.9693700000000001
162.096	0.2	panier	18	noun	phrase	4	10	match	grand	4	1	p	0.9693700000000001
162.2957	0.0	+	18	noun	phrase	4	11	match	grand	4	1	p	0.9693700000000001
162.69549999999998	0.0	+	18	noun	phrase	4	12	match	grand	4	1	p	0.9693700000000001
164.695	0.0	GRAND	18	noun	phrase	4	13	match	grand	4	1	p	0.9693700000000001
165.72750000000002	0.0	+	18	noun	phrase	4	14	match	grand	4	1	p	0.9693700000000001
165.6644	0.0	[response]	18	noun	phrase	4	15	match	grand	4	1	p	0.9693700000000001
167.09359999999998	0.0	+	19	verb	list	1	1	match	nouveau	5	1	p	0.97304
167.64350000000002	0.2	szl	19	verb	list	1	2	match	nouveau	5	1	p	0.97304
167.8433	0.0	+	19	verb	list	1	3	match	nouveau	5	1	p	0.97304
168.2432	0.2	gbpz	19	verb	list	1	4	match	nouveau	5	1	p	0.97304
168.4432	0.0	+	19	verb	list	1	5	match	nouveau	5	1	p	0.97304
168.8433	0.2	kqfr	19	verb	list	1	6	match	nouveau	5	1	p	0.97304
169.04270000000002	0.0	+	19	verb	list	1	7	match	nouveau	5	1	p	0.97304
169.4425	0.2	vmscrjk	19	verb	list	1	8	match	nouveau	5	1	p	0.97304
169.6424	0.0	+	19	verb	list	1	9	match	nouveau	5	1	p	0.97304
170.04219999999998	0.2	nouveau	19	verb	list	1	10	match	nouveau	5	1	p	0.97304
170.2421	0.0	+	19	verb	list	1	11	match	nouveau	5	1	p	0.97304
170.64190000000002	0.0	+	19	verb	list	1	12	match	nouveau	5	1	p	0.97304
172.64100000000002	0.0	NOUVEAU	19	verb	list	1	13	match	nouveau	5	1	p	0.97304
173.6739	0.0	+	19	verb	list	1	14	match	nouveau	5	1	p	0.97304
173.6141	0.0	[response]	19	verb	list	1	15	match	nouveau	5	1	p	0.97304
183.03630000000004	0.0	+	20	noun	phrase	1	1	match	noir	5	1	p	0.5767900000000001
183.58610000000004	0.2	bzp	20	noun	phrase	1	2	match	noir	5	1	p	0.5767900000000001
183.786	0.0	+	20	noun	phrase	1	3	match	noir	5	1	p	0.5767900000000001
184.18580000000003	0.2	dzq	20	noun	phrase	1	4	match	noir	5	1	p	0.5767900000000001
184.38570000000004	0.0	+	20	noun	phrase	1	5	match	noir	5	1	p	0.5767900000000001
184.7855	0.2	smx	20	noun	phrase	1	6	match	noir	5	1	p	0.5767900000000001
184.98540000000003	0.0	+	20	noun	phrase	1	7	match	noir	5	1	p	0.5767900000000001
185.3852	0.2	xstwlfq	20	noun	phrase	1	8	match	noir	5	1	p	0.5767900000000001
185.58520000000004	0.0	+	20	noun	phrase	1	9	match	noir	5	1	p	0.5767900000000001
185.9857	0.2	noir	20	noun	phrase	1	10	match	noir	5	1	p	0.5767900000000001
186.18560000000002	0.0	+	20	noun	phrase	1	11	match	noir	5	1	p	0.5767900000000001
186.58500000000004	0.0	+	20	noun	phrase	1	12	match	noir	5	1	p	0.5767900000000001
188.5838	0.0	NOIR	20	noun	phrase	1	13	match	noir	5	1	p	0.5767900000000001
189.21680000000003	0.0	+	20	noun	phrase	1	14	match	noir	5	1	p	0.5767900000000001
189.16060000000004	0.0	[response]	20	noun	phrase	1	15	match	noir	5	1	p	0.5767900000000001
206.9921	0.0	+	21	verb	list	1	1	match	vieux	5	1	p	0.63789
207.5419	0.2	jvxw	21	verb	list	1	2	match	vieux	5	1	p	0.63789
207.7418	0.0	+	21	verb	list	1	3	match	vieux	5	1	p	0.63789
208.14160000000004	0.2	hrjc	21	verb	list	1	4	match	vieux	5	1	p	0.63789
208.3415	0.0	+	21	verb	list	1	5	match	vieux	5	1	p	0.63789
208.74130000000002	0.2	tk	21	verb	list	1	6	match	vieux	5	1	p	0.63789
208.94120000000004	0.0	+	21	verb	list	1	7	match	vieux	5	1	p	0.63789
209.341	0.2	ckfqvlm	21	verb	list	1	8	match	vieux	5	1	p	0.63789
209.541	0.0	+	21	verb	list	1	9	match	vieux	5	1	p	0.63789
209.95820000000003	0.2	vieux	21	verb	list	1	10	match	vieux	5	1	p	0.63789
210.14090000000004	0.0	+	21	verb	list	1	11	match	vieux	5	1	p	0.63789
210.541	0.0	+	21	verb	list	1	12	match	vieux	5	1	p	0.63789
212.5401	0.0	VIEUX	21	verb	list	1	13	match	vieux	5	1	p	0.63789
213.27300000000002	0.0	+	21	verb	list	1	14	match	vieux	5	1	p	0.63789
213.17790000000002	0.0	[response]	21	verb	list	1	15	match	vieux	5	1	p	0.63789
214.93850000000003	0.0	+	22	noun	list	3	1	nomatch	vers	-1	1	y	1.6126000000000003
215.48830000000004	0.2	cmz	22	noun	list	3	2	nomatch	vers	-1	1	y	1.6126000000000003
215.6882	0.0	+	22	noun	list	3	3	nomatch	vers	-1	1	y	1.6126000000000003
216.08800000000002	0.2	mrlw	22	noun	list	3	4	nomatch	vers	-1	1	y	1.6126000000000003
216.28790000000004	0.0	+	22	noun	list	3	5	nomatch	vers	-1	1	y	1.6126000000000003
216.6877	0.2	peut	22	noun	list	3	6	nomatch	vers	-1	1	y	1.6126000000000003
216.88830000000002	0.0	+	22	noun	list	3	7	nomatch	vers	-1	1	y	1.6126000000000003
217.30450000000002	0.2	casier	22	noun	list	3	8	nomatch	vers	-1	1	y	1.6126000000000003
217.48760000000004	0.0	+	22	noun	list	3	9	nomatch	vers	-1	1	y	1.6126000000000003
217.88780000000003	0.2	tôt	22	noun	list	3	10	nomatch	vers	-1	1	y	1.6126000000000003
218.08750000000003	0.0	+	22	noun	list	3	11	nomatch	vers	-1	1	y	1.6126000000000003
218.4869	0.0	+	22	noun	list	3	12	nomatch	vers	-1	1	y	1.6126000000000003
220.48600000000005	0.0	VERS	22	noun	list	3	13	nomatch	vers	-1	1	y	1.6126000000000003
222.1519	0.0	+	22	noun	list	3	14	nomatch	vers	-1	1	y	1.6126000000000003
222.09860000000003	0.0	[response]	22	noun	list	3	15	nomatch	vers	-1	1	y	1.6126000000000003
222.88490000000002	0.0	+	23	noun	phrase	4	1	nomatch	son	-1	1	y	1.6208
223.43470000000002	0.2	chrbx	23	noun	phrase	4	2	nomatch	son	-1	1	y	1.6208
223.63460000000003	0.0	+	23	noun	phrase	4	3	nomatch	son	-1	1	y	1.6208
224.0344	0.2	sur	23	noun	phrase	4	4	nomatch	son	-1	1	y	1.6208
224.23430000000002	0.0	+	23	noun	phrase	4	5	nomatch	son	-1	1	y	1.6208
224.63410000000005	0.2	mon	23	noun	phrase	4	6	nomatch	son	-1	1	y	1.6208
224.834	0.0	+	23	noun	phrase	4	7	nomatch	son	-1	1	y	1.6208
225.2339	0.2	tablier	23	noun	phrase	4	8	nomatch	son	-1	1	y	1.6208
225.4345	0.0	+	23	noun	phrase	4	9	nomatch	son	-1	1	y	1.6208
225.83390000000003	0.2	noir	23	noun	phrase	4	10	nomatch	son	-1	1	y	1.6208
226.05010000000004	0.0	+	23	noun	phrase	4	11	nomatch	son	-1	1	y	1.6208
226.45000000000005	0.0	+	23	noun	phrase	4	12	nomatch	son	-1	1	y	1.6208
228.4497	0.0	SON	23	noun	phrase	4	13	nomatch	son	-1	1	y	1.6208
230.1316	0.0	+	23	noun	phrase	4	14	nomatch	son	-1	1	y	1.6208
230.07050000000004	0.0	[response]	23	noun	phrase	4	15	nomatch	son	-1	1	y	1.6208
230.848	0.0	+	24	noun	phrase	1	1	match	beau	5	0	TIMEOUT	-1.0
231.39770000000004	0.2	kts	24	noun	phrase	1	2	match	beau	5	0	TIMEOUT	-1.0
231.59810000000004	0.0	+	24	noun	phrase	1	3	match	beau	5	0	TIMEOUT	-1.0
231.99810000000002	0.2	gjml	24	noun	phrase	1	4	match	beau	5	0	TIMEOUT	-1.0
232.1979	0.0	+	24	noun	phrase	1	5	match	beau	5	0	TIMEOUT	-1.0
232.5974	0.2	smx	24	noun	phrase	1	6	match	beau	5	0	TIMEOUT	-1.0
232.79770000000002	0.0	+	24	noun	phrase	1	7	match	beau	5	0	TIMEOUT	-1.0
233.19690000000003	0.2	kldhfxr	24	noun	phrase	1	8	match	beau	5	0	TIMEOUT	-1.0
233.39680000000004	0.0	+	24	noun	phrase	1	9	match	beau	5	0	TIMEOUT	-1.0
233.7966	0.2	beau	24	noun	phrase	1	10	match	beau	5	0	TIMEOUT	-1.0
233.99650000000003	0.0	+	24	noun	phrase	1	11	match	beau	5	0	TIMEOUT	-1.0
234.39640000000003	0.0	+	24	noun	phrase	1	12	match	beau	5	0	TIMEOUT	-1.0
236.3958	0.0	BEAU	24	noun	phrase	1	13	match	beau	5	0	TIMEOUT	-1.0
238.7944	0.0	+	25	noun	list	3	1	nomatch	sablier	-1	1	y	2.0221
239.39410000000004	0.2	rvtlcn	25	noun	list	3	2	nomatch	sablier	-1	1	y	2.0221
239.594	0.0	+	25	noun	list	3	3	nomatch	sablier	-1	1	y	2.0221
239.99380000000002	0.2	hrjc	25	noun	list	3	4	nomatch	sablier	-1	1	y	2.0221
240.19370000000004	0.0	+	25	noun	list	3	5	nomatch	sablier	-1	1	y	2.0221
240.5935	0.2	va	25	noun	list	3	6	nomatch	sablier	-1	1	y	2.0221
240.7935	0.0	+	25	noun	list	3	7	nomatch	sablier	-1	1	y	2.0221
241.19330000000002	0.2	clavier	25	noun	list	3	8	nomatch	sablier	-1	1	y	2.0221
241.39320000000004	0.0	+	25	noun	list	3	9	nomatch	sablier	-1	1	y	2.0221
241.793	0.2	loin	25	noun	list	3	10	nomatch	sablier	-1	1	y	2.0221
241.99290000000002	0.0	+	25	noun	list	3	11	nomatch	sablier	-1	1	y	2.0221
242.39340000000004	0.0	+	25	noun	list	3	12	nomatch	sablier	-1	1	y	2.0221
244.39180000000005	0.0	SABLIER	25	noun	list	3	13	nomatch	sablier	-1	1	y	2.0221
246.4742	0.0	+	25	noun	list	3	14	nomatch	sablier	-1	1	y	2.0221
246.41400000000004	0.0	[response]	25	noun	list	3	15	nomatch	sablier	-1	1	y	2.0221
246.79070000000002	0.0	+	26	noun	list	4	1	nomatch	rouler	-1	0	TIMEOUT	-1.0
247.34050000000002	0.2	pnjtmxf	26	noun	list	4	2	nomatch	rouler	-1	0	TIMEOUT	-1.0
247.54040000000003	0.0	+	26	noun	list	4	3	nomatch	rouler	-1	0	TIMEOUT	-1.0
247.9402	0.2	marc	26	noun	list	4	4	nomatch	rouler	-1	0	TIMEOUT	-1.0
248.14010000000002	0.0	+	26	noun	list	4	5	nomatch	rouler	-1	0	TIMEOUT	-1.0
248.54000000000002	0.2	mon	26	noun	list	4	6	nomatch	rouler	-1	0	TIMEOUT	-1.0
248.73990000000003	0.0	+	26	noun	list	4	7	nomatch	rouler	-1	0	TIMEOUT	-1.0
249.1397	0.2	moins	26	noun	list	4	8	nomatch	rouler	-1	0	TIMEOUT	-1.0
249.33960000000002	0.0	+	26	noun	list	4	9	nomatch	rouler	-1	0	TIMEOUT	-1.0
249.73940000000005	0.2	tablier	26	noun	list	4	10	nomatch	rouler	-1	0	TIMEOUT	-1.0
249.9393	0.0	+	26	noun	list	4	11	nomatch	rouler	-1	0	TIMEOUT	-1.0
250.33910000000003	0.0	+	26	noun	list	4	12	nomatch	rouler	-1	0	TIMEOUT	-1.0
252.33820000000003	0.0	ROULER	26	noun	list	4	13	nomatch	rouler	-1	0	TIMEOUT	-1.0
254.7371	0.0	+	27	noun	phrase	1	1	nomatch	bleu	-1	0	p	2.0714
255.3369	0.2	glpj	27	noun	phrase	1	2	nomatch	bleu	-1	0	p	2.0714
255.53680000000003	0.0	+	27	noun	phrase	1	3	nomatch	bleu	-1	0	p	2.0714
255.9366	0.2	hrjc	27	noun	phrase	1	4	nomatch	bleu	-1	0	p	2.0714
256.1365	0.0	+	27	noun	phrase	1	5	nomatch	bleu	-1	0	p	2.0714
256.53630000000004	0.2	rgnb	27	noun	phrase	1	6	nomatch	bleu	-1	0	p	2.0714
256.7362	0.0	+	27	noun	phrase	1	7	nomatch	bleu	-1	0	p	2.0714
257.136	0.2	kldhfxr	27	noun	phrase	1	8	nomatch	bleu	-1	0	p	2.0714
257.336	0.0	+	27	noun	phrase	1	9	nomatch	bleu	-1	0	p	2.0714
257.73580000000004	0.2	blanc	27	noun	phrase	1	10	nomatch	bleu	-1	0	p	2.0714
257.9357	0.0	+	27	noun	phrase	1	11	nomatch	bleu	-1	0	p	2.0714
258.33590000000004	0.0	+	27	noun	phrase	1	12	nomatch	bleu	-1	0	p	2.0714
260.3346	0.0	BLEU	27	noun	phrase	1	13	nomatch	bleu	-1	0	p	2.0714
262.46700000000004	0.0	+	27	noun	phrase	1	14	nomatch	bleu	-1	0	p	2.0714
262.406	0.0	[response]	27	noun	phrase	1	15	nomatch	bleu	-1	0	p	2.0714
262.7335	0.0	+	28	noun	phrase	2	1	nomatch	casier	-1	1	y	1.6449
263.29990000000004	0.2	plbg	28	noun	phrase	2	2	nomatch	casier	-1	1	y	1.6449
263.4998	0.0	+	28	noun	phrase	2	3	nomatch	casier	-1	1	y	1.6449
263.8997	0.2	dsmq	28	noun	phrase	2	4	nomatch	casier	-1	1	y	1.6449
264.0996	0.0	+	28	noun	phrase	2	5	nomatch	casier	-1	1	y	1.6449
264.49940000000004	0.2	smx	28	noun	phrase	2	6	nomatch	casier	-1	1	y	1.6449
264.6993	0.0	+	28	noun	phrase	2	7	nomatch	casier	-1	1	y	1.6449
265.0991	0.2	clavier	28	noun	phrase	2	8	nomatch	casier	-1	1	y	1.6449
265.29900000000004	0.0	+	28	noun	phrase	2	9	nomatch	casier	-1	1	y	1.6449
265.69890000000004	0.2	rouge	28	noun	phrase	2	10	nomatch	casier	-1	1	y	1.6449
265.8988	0.0	+	28	noun	phrase	2	11	nomatch	casier	-1	1	y	1.6449
266.2987	0.0	+	28	noun	phrase	2	12	nomatch	casier	-1	1	y	1.6449
268.2977	0.0	CASIER	28	noun	phrase	2	13	nomatch	casier	-1	1	y	1.6449
269.99690000000004	0.0	+	28	noun	phrase	2	14	nomatch	casier	-1	1	y	1.6449
269.9426	0.0	[response]	28	noun	phrase	2	15	nomatch	casier	-1	1	y	1.6449
270.69660000000005	0.0	+	29	verb	phrase	1	1	nomatch	galoper	-1	1	y	1.0435
271.2463	0.2	mpbvqhx	29	verb	phrase	1	2	nomatch	galoper	-1	1	y	1.0435
271.44620000000003	0.0	+	29	verb	phrase	1	3	nomatch	galoper	-1	1	y	1.0435
271.84610000000004	0.2	glv	29	verb	phrase	1	4	nomatch	galoper	-1	1	y	1.0435
272.046	0.0	+	29	verb	phrase	1	5	nomatch	galoper	-1	1	y	1.0435
272.4458	0.2	tk	29	verb	phrase	1	6	nomatch	galoper	-1	1	y	1.0435
272.64570000000003	0.0	+	29	verb	phrase	1	7	nomatch	galoper	-1	1	y	1.0435
273.0455	0.2	nhkgrd	29	verb	phrase	1	8	nomatch	galoper	-1	1	y	1.0435
273.24600000000004	0.0	+	29	verb	phrase	1	9	nomatch	galoper	-1	1	y	1.0435
273.6455	0.2	trop	29	verb	phrase	1	10	nomatch	galoper	-1	1	y	1.0435
273.8453	0.0	+	29	verb	phrase	1	11	nomatch	galoper	-1	1	y	1.0435
274.2455	0.0	+	29	verb	phrase	1	12	nomatch	galoper	-1	1	y	1.0435
276.2441	0.0	GALOPER	29	verb	phrase	1	13	nomatch	galoper	-1	1	y	1.0435
277.34360000000004	0.0	+	29	verb	phrase	1	14	nomatch	galoper	-1	1	y	1.0435
277.2876	0.0	[response]	29	verb	phrase	1	15	nomatch	galoper	-1	1	y	1.0435
278.64300000000003	0.0	+	30	noun	phrase	4	1	nomatch	blanc	-1	1	y	1.2824000000000002
279.1927	0.2	kvf	30	noun	phrase	4	2	nomatch	blanc	-1	1	y	1.2824000000000002
279.3926	0.0	+	30	noun	phrase	4	3	nomatch	blanc	-1	1	y	1.2824000000000002
279.79240000000004	0.2	sans	30	noun	phrase	4	4	nomatch	blanc	-1	1	y	1.2824000000000002
279.99240000000003	0.0	+	30	noun	phrase	4	5	nomatch	blanc	-1	1	y	1.2824000000000002
280.3922	0.2	son	30	noun	phrase	4	6	nomatch	blanc	-1	1	y	1.2824000000000002
280.5921	0.0	+	30	noun	phrase	4	7	nomatch	blanc	-1	1	y	1.2824000000000002
281.00910000000005	0.2	sablier	30	noun	phrase	4	8	nomatch	blanc	-1	1	y	1.2824000000000002
281.1925	0.0	+	30	noun	phrase	4	9	nomatch	blanc	-1	1	y	1.2824000000000002
281.5924	0.2	rouge	30	noun	phrase	4	10	nomatch	blanc	-1	1	y	1.2824000000000002
281.7921	0.0	+	30	noun	phrase	4	11	nomatch	blanc	-1	1	y	1.2824000000000002
282.192	0.0	+	30	noun	phrase	4	12	nomatch	blanc	-1	1	y	1.2824000000000002
284.1909	0.0	BLANC	30	noun	phrase	4	13	nomatch	blanc	-1	1	y	1.2824000000000002
285.5398	0.0	+	30	noun	phrase	4	14	nomatch	blanc	-1	1	y	1.2824000000000002
285.4733	0.0	[response]	30	noun	phrase	4	15	nomatch	blanc	-1	1	y	1.2824000000000002
294.58570000000003	0.0	+	31	noun	phrase	2	1	nomatch	jade	-1	1	y	1.2907000000000002
295.13550000000004	0.2	qplkd	31	noun	phrase	2	2	nomatch	jade	-1	1	y	1.2907000000000002
295.3354	0.0	+	31	noun	phrase	2	3	nomatch	jade	-1	1	y	1.2907000000000002
295.752	0.2	gbpz	31	noun	phrase	2	4	nomatch	jade	-1	1	y	1.2907000000000002
295.9518	0.0	+	31	noun	phrase	2	5	nomatch	jade	-1	1	y	1.2907000000000002
296.3354	0.2	rgnb	31	noun	phrase	2	6	nomatch	jade	-1	1	y	1.2907000000000002
296.5351	0.0	+	31	noun	phrase	2	7	nomatch	jade	-1	1	y	1.2907000000000002
296.935	0.2	nouveau	31	noun	phrase	2	8	nomatch	jade	-1	1	y	1.2907000000000002
297.13460000000003	0.0	+	31	noun	phrase	2	9	nomatch	jade	-1	1	y	1.2907000000000002
297.5344	0.2	voilier	31	noun	phrase	2	10	nomatch	jade	-1	1	y	1.2907000000000002
297.7343	0.0	+	31	noun	phrase	2	11	nomatch	jade	-1	1	y	1.2907000000000002
298.13410000000005	0.0	+	31	noun	phrase	2	12	nomatch	jade	-1	1	y	1.2907000000000002
300.1505	0.0	JADE	31	noun	phrase	2	13	nomatch	jade	-1	1	y	1.2907000000000002
301.4993	0.0	+	31	noun	phrase	2	14	nomatch	jade	-1	1	y	1.2907000000000002
301.4412000000001	0.0	[response]	31	noun	phrase	2	15	nomatch	jade	-1	1	y	1.2907000000000002
302.5488	0.0	+	32	noun	list	1	1	nomatch	casier	-1	0	TIMEOUT	-1.0
303.0985	0.2	jvck	32	noun	list	1	2	nomatch	casier	-1	0	TIMEOUT	-1.0
303.2984	0.0	+	32	noun	list	1	3	nomatch	casier	-1	0	TIMEOUT	-1.0
303.6983	0.2	glv	32	noun	list	1	4	nomatch	casier	-1	0	TIMEOUT	-1.0
303.89820000000003	0.0	+	32	noun	list	1	5	nomatch	casier	-1	0	TIMEOUT	-1.0
304.298	0.2	smx	32	noun	list	1	6	nomatch	casier	-1	0	TIMEOUT	-1.0
304.4979	0.0	+	32	noun	list	1	7	nomatch	casier	-1	0	TIMEOUT	-1.0
304.89770000000004	0.2	njxzb	32	noun	list	1	8	nomatch	casier	-1	0	TIMEOUT	-1.0
305.0976	0.0	+	32	noun	list	1	9	nomatch	casier	-1	0	TIMEOUT	-1.0
305.4982	0.2	tablier	32	noun	list	1	10	nomatch	casier	-1	0	TIMEOUT	-1.0
305.7146	0.0	+	32	noun	list	1	11	nomatch	casier	-1	0	TIMEOUT	-1.0
306.09720000000004	0.0	+	32	noun	list	1	12	nomatch	casier	-1	0	TIMEOUT	-1.0
308.09630000000004	0.0	CASIER	32	noun	list	1	13	nomatch	casier	-1	0	TIMEOUT	-1.0
318.4916	0.0	+	33	verb	list	1	1	nomatch	blanc	-1	0	p	1.6767
319.09130000000005	0.2	dlhgmxp	33	verb	list	1	2	nomatch	blanc	-1	0	p	1.6767
319.2912	0.0	+	33	verb	list	1	3	nomatch	blanc	-1	0	p	1.6767
319.69100000000003	0.2	dvjc	33	verb	list	1	4	nomatch	blanc	-1	0	p	1.6767
319.89090000000004	0.0	+	33	verb	list	1	5	nomatch	blanc	-1	0	p	1.6767
320.29080000000005	0.2	rgnb	33	verb	list	1	6	nomatch	blanc	-1	0	p	1.6767
320.4907	0.0	+	33	verb	list	1	7	nomatch	blanc	-1	0	p	1.6767
320.89050000000003	0.2	vmscrjk	33	verb	list	1	8	nomatch	blanc	-1	0	p	1.6767
321.09040000000005	0.0	+	33	verb	list	1	9	nomatch	blanc	-1	0	p	1.6767
321.4902	0.2	noir	33	verb	list	1	10	nomatch	blanc	-1	0	p	1.6767
321.69010000000003	0.0	+	33	verb	list	1	11	nomatch	blanc	-1	0	p	1.6767
322.0899	0.0	+	33	verb	list	1	12	nomatch	blanc	-1	0	p	1.6767
324.089	0.0	BLANC	33	verb	list	1	13	nomatch	blanc	-1	0	p	1.6767
325.82160000000005	0.0	+	33	verb	list	1	14	nomatch	blanc	-1	0	p	1.6767
325.7657000000001	0.0	[response]	33	verb	list	1	15	nomatch	blanc	-1	0	p	1.6767
326.488	0.0	+	34	verb	list	1	1	nomatch	tôt	-1	1	y	1.1126000000000003
327.03770000000003	0.2	nmpgb	34	verb	list	1	2	nomatch	tôt	-1	1	y	1.1126000000000003
327.23760000000004	0.0	+	34	verb	list	1	3	nomatch	tôt	-1	1	y	1.1126000000000003
327.6374	0.2	vhfx	34	verb	list	1	4	nomatch	tôt	-1	1	y	1.1126000000000003
327.8373	0.0	+	34	verb	list	1	5	nomatch	tôt	-1	1	y	1.1126000000000003
328.2371	0.2	pqk	34	verb	list	1	6	nomatch	tôt	-1	1	y	1.1126000000000003
328.43710000000004	0.0	+	34	verb	list	1	7	nomatch	tôt	-1	1	y	1.1126000000000003
328.8369	0.2	nbqk	34	verb	list	1	8	nomatch	tôt	-1	1	y	1.1126000000000003
329.0368	0.0	+	34	verb	list	1	9	nomatch	tôt	-1	1	y	1.1126000000000003
329.4366	0.2	plonger	34	verb	list	1	10	nomatch	tôt	-1	1	y	1.1126000000000003
329.6372	0.0	+	34	verb	list	1	11	nomatch	tôt	-1	1	y	1.1126000000000003
330.03630000000004	0.0	+	34	verb	list	1	12	nomatch	tôt	-1	1	y	1.1126000000000003
332.03540000000004	0.0	TÔT	34	verb	list	1	13	nomatch	tôt	-1	1	y	1.1126000000000003
333.20160000000004	0.0	+	34	verb	list	1	14	nomatch	tôt	-1	1	y	1.1126000000000003
333.1481	0.0	[response]	34	verb	list	1	15	nomatch	tôt	-1	1	y	1.1126000000000003
334.4343	0.0	+	35	noun	list	4	1	nomatch	marc	-1	1	y	1.871
334.98420000000004	0.2	tjx	35	noun	list	4	2	nomatch	marc	-1	1	y	1.871
335.1847	0.0	+	35	noun	list	4	3	nomatch	marc	-1	1	y	1.871
335.58410000000003	0.2	luc	35	noun	list	4	4	nomatch	marc	-1	1	y	1.871
335.7844	0.0	+	35	noun	list	4	5	nomatch	marc	-1	1	y	1.871
336.20090000000005	0.2	leur	35	noun	list	4	6	nomatch	marc	-1	1	y	1.871
336.4001	0.0	+	35	noun	list	4	7	nomatch	marc	-1	1	y	1.871
336.79990000000004	0.2	beaucoup	35	noun	list	4	8	nomatch	marc	-1	1	y	1.871
336.9998	0.0	+	35	noun	list	4	9	nomatch	marc	-1	1	y	1.871
337.3997	0.2	casier	35	noun	list	4	10	nomatch	marc	-1	1	y	1.871
337.5996	0.0	+	35	noun	list	4	11	nomatch	marc	-1	1	y	1.871
337.99940000000004	0.0	+	35	noun	list	4	12	nomatch	marc	-1	1	y	1.871
339.9991	0.0	MARC	35	noun	list	4	13	nomatch	marc	-1	1	y	1.871
341.9309	0.0	+	35	noun	list	4	14	nomatch	marc	-1	1	y	1.871
341.87010000000004	0.0	[response]	35	noun	list	4	15	nomatch	marc	-1	1	y	1.871
342.3974	0.0	+	36	noun	list	2	1	match	moins	4	1	p	0.617
342.94710000000003	0.2	mtfsch	36	noun	list	2	2	match	moins	4	1	p	0.617
343.147	0.0	+	36	noun	list	2	3	match	moins	4	1	p	0.617
343.5469	0.2	zbkp	36	noun	list	2	4	match	moins	4	1	p	0.617
343.7468	0.0	+	36	noun	list	2	5	match	moins	4	1	p	0.617
344.14660000000003	0.2	rgnb	36	noun	list	2	6	match	moins	4	1	p	0.617
344.3465	0.0	+	36	noun	list	2	7	match	moins	4	1	p	0.617
344.7463	0.2	moins	36	noun	list	2	8	match	moins	4	1	p	0.617
344.96360000000004	0.0	+	36	noun	list	2	9	match	moins	4	1	p	0.617
345.34630000000004	0.2	panier	36	noun	list	2	10	match	moins	4	1	p	0.617
345.56280000000004	0.0	+	36	noun	list	2	11	match	moins	4	1	p	0.617
345.9463	0.0	+	36	noun	list	2	12	match	moins	4	1	p	0.617
347.94530000000003	0.0	MOINS	36	noun	list	2	13	match	moins	4	1	p	0.617
348.6279	0.0	+	36	noun	list	2	14	match	moins	4	1	p	0.617
348.5623	0.0	[response]	36	noun	list	2	15	match	moins	4	1	p	0.617
350.34380000000004	0.0	+	37	noun	list	4	1	nomatch	noir	-1	1	y	1.4742000000000002
350.8935	0.2	tqcds	37	noun	list	4	2	nomatch	noir	-1	1	y	1.4742000000000002
351.0937	0.0	+	37	noun	list	4	3	nomatch	noir	-1	1	y	1.4742000000000002
351.49330000000003	0.2	jade	37	noun	list	4	4	nomatch	noir	-1	1	y	1.4742000000000002
351.69320000000005	0.0	+	37	noun	list	4	5	nomatch	noir	-1	1	y	1.4742000000000002
352.09340000000003	0.2	son	37	noun	list	4	6	nomatch	noir	-1	1	y	1.4742000000000002
352.29310000000004	0.0	+	37	noun	list	4	7	nomatch	noir	-1	1	y	1.4742000000000002
352.6931	0.2	plus	37	noun	list	4	8	nomatch	noir	-1	1	y	1.4742000000000002
352.8928	0.0	+	37	noun	list	4	9	nomatch	noir	-1	1	y	1.4742000000000002
353.2925	0.2	grenier	37	noun	list	4	10	nomatch	noir	-1	1	y	1.4742000000000002
353.49240000000003	0.0	+	37	noun	list	4	11	nomatch	noir	-1	1	y	1.4742000000000002
353.8922	0.0	+	37	noun	list	4	12	nomatch	noir	-1	1	y	1.4742000000000002
355.8913	0.0	NOIR	37	noun	list	4	13	nomatch	noir	-1	1	y	1.4742000000000002
357.4406	0.0	+	37	noun	list	4	14	nomatch	noir	-1	1	y	1.4742000000000002
357.3655	0.0	[response]	37	noun	list	4	15	nomatch	noir	-1	1	y	1.4742000000000002
358.2902	0.0	+	38	noun	phrase	4	1	nomatch	adam	-1	1	y	0.86943
358.8399	0.2	smngh	38	noun	phrase	4	2	nomatch	adam	-1	1	y	0.86943
359.03990000000005	0.0	+	38	noun	phrase	4	3	nomatch	adam	-1	1	y	0.86943
359.4397	0.2	sous	38	noun	phrase	4	4	nomatch	adam	-1	1	y	0.86943
359.63960000000003	0.0	+	38	noun	phrase	4	5	nomatch	adam	-1	1	y	0.86943
360.03990000000005	0.2	mon	38	noun	phrase	4	6	nomatch	adam	-1	1	y	0.86943
360.2397	0.0	+	38	noun	phrase	4	7	nomatch	adam	-1	1	y	0.86943
360.63910000000004	0.2	vieux	38	noun	phrase	4	8	nomatch	adam	-1	1	y	0.86943
360.8396	0.0	+	38	noun	phrase	4	9	nomatch	adam	-1	1	y	0.86943
361.2388	0.2	casier	38	noun	phrase	4	10	nomatch	adam	-1	1	y	0.86943
361.4388	0.0	+	38	noun	phrase	4	11	nomatch	adam	-1	1	y	0.86943
361.83860000000004	0.0	+	38	noun	phrase	4	12	nomatch	adam	-1	1	y	0.86943
363.8381	0.0	ADAM	38	noun	phrase	4	13	nomatch	adam	-1	1	y	0.86943
364.7706	0.0	+	38	noun	phrase	4	14	nomatch	adam	-1	1	y	0.86943
364.7076	0.0	[response]	38	noun	phrase	4	15	nomatch	adam	-1	1	y	0.86943
366.2366	0.0	+	39	verb	list	1	1	nomatch	moins	-1	1	y	1.3526000000000002
366.7864	0.2	clq	39	verb	list	1	2	nomatch	moins	-1	1	y	1.3526000000000002
366.9868	0.0	+	39	verb	list	1	3	nomatch	moins	-1	1	y	1.3526000000000002
367.3867	0.2	hrjc	39	verb	list	1	4	nomatch	moins	-1	1	y	1.3526000000000002
367.5864	0.0	+	39	verb	list	1	5	nomatch	moins	-1	1	y	1.3526000000000002
367.98580000000004	0.2	fhgp	39	verb	list	1	6	nomatch	moins	-1	1	y	1.3526000000000002
368.1857	0.0	+	39	verb	list	1	7	nomatch	moins	-1	1	y	1.3526000000000002
368.5855	0.2	gvlmd	39	verb	list	1	8	nomatch	moins	-1	1	y	1.3526000000000002
368.78540000000004	0.0	+	39	verb	list	1	9	nomatch	moins	-1	1	y	1.3526000000000002
369.1852	0.2	voyager	39	verb	list	1	10	nomatch	moins	-1	1	y	1.3526000000000002
369.3851	0.0	+	39	verb	list	1	11	nomatch	moins	-1	1	y	1.3526000000000002
369.785	0.0	+	39	verb	list	1	12	nomatch	moins	-1	1	y	1.3526000000000002
371.7841	0.0	MOINS	39	verb	list	1	13	nomatch	moins	-1	1	y	1.3526000000000002
373.2001	0.0	+	39	verb	list	1	14	nomatch	moins	-1	1	y	1.3526000000000002
373.13660000000004	0.0	[response]	39	verb	list	1	15	nomatch	moins	-1	1	y	1.3526000000000002
382.196	0.0	+	40	verb	phrase	4	1	nomatch	sablier	-1	0	TIMEOUT	-1.0
382.74580000000003	0.2	shfrmq	40	verb	phrase	4	2	nomatch	sablier	-1	0	TIMEOUT	-1.0
382.94570000000004	0.0	+	40	verb	phrase	4	3	nomatch	sablier	-1	0	TIMEOUT	-1.0
383.3455	0.2	jean	40	verb	phrase	4	4	nomatch	sablier	-1	0	TIMEOUT	-1.0
383.54540000000003	0.0	+	40	verb	phrase	4	5	nomatch	sablier	-1	0	TIMEOUT	-1.0
383.9452	0.2	peut	40	verb	phrase	4	6	nomatch	sablier	-1	0	TIMEOUT	-1.0
384.1451	0.0	+	40	verb	phrase	4	7	nomatch	sablier	-1	0	TIMEOUT	-1.0
384.545	0.2	danser	40	verb	phrase	4	8	nomatch	sablier	-1	0	TIMEOUT	-1.0
384.74490000000003	0.0	+	40	verb	phrase	4	9	nomatch	sablier	-1	0	TIMEOUT	-1.0
385.14480000000003	0.2	tôt	40	verb	phrase	4	10	nomatch	sablier	-1	0	TIMEOUT	-1.0
385.3448	0.0	+	40	verb	phrase	4	11	nomatch	sablier	-1	0	TIMEOUT	-1.0
385.745	0.0	+	40	verb	phrase	4	12	nomatch	sablier	-1	0	TIMEOUT	-1.0
387.744	0.0	SABLIER	40	verb	phrase	4	13	nomatch	sablier	-1	0	TIMEOUT	-1.0
390.1424	0.0	+	41	verb	list	2	1	nomatch	ainsi	-1	0	TIMEOUT	-1.0
390.7421	0.2	rvkcjm	41	verb	list	2	2	nomatch	ainsi	-1	0	TIMEOUT	-1.0
390.942	0.0	+	41	verb	list	2	3	nomatch	ainsi	-1	0	TIMEOUT	-1.0
391.3419	0.2	gbpz	41	verb	list	2	4	nomatch	ainsi	-1	0	TIMEOUT	-1.0
391.5418	0.0	+	41	verb	list	2	5	nomatch	ainsi	-1	0	TIMEOUT	-1.0
391.9416	0.2	kqfr	41	verb	list	2	6	nomatch	ainsi	-1	0	TIMEOUT	-1.0
392.1415	0.0	+	41	verb	list	2	7	nomatch	ainsi	-1	0	TIMEOUT	-1.0
392.54130000000004	0.2	nouveau	41	verb	list	2	8	nomatch	ainsi	-1	0	TIMEOUT	-1.0
392.7412	0.0	+	41	verb	list	2	9	nomatch	ainsi	-1	0	TIMEOUT	-1.0
393.1411	0.2	rouler	41	verb	list	2	10	nomatch	ainsi	-1	0	TIMEOUT	-1.0
393.3416	0.0	+	41	verb	list	2	11	nomatch	ainsi	-1	0	TIMEOUT	-1.0
393.7412	0.0	+	41	verb	list	2	12	nomatch	ainsi	-1	0	TIMEOUT	-1.0
395.73990000000003	0.0	AINSI	41	verb	list	2	13	nomatch	ainsi	-1	0	TIMEOUT	-1.0
398.1388	0.0	+	42	noun	list	1	1	nomatch	leur	-1	0	p	1.1034
398.73850000000004	0.2	vrdhsnz	42	noun	list	1	2	nomatch	leur	-1	0	p	1.1034
398.9384	0.0	+	42	noun	list	1	3	nomatch	leur	-1	0	p	1.1034
399.33820000000003	0.2	dxcb	42	noun	list	1	4	nomatch	leur	-1	0	p	1.1034
399.5382	0.0	+	42	noun	list	1	5	nomatch	leur	-1	0	p	1.1034
399.9554	0.2	pqk	42	noun	list	1	6	nomatch	leur	-1	0	p	1.1034
400.1379	0.0	+	42	noun	list	1	7	nomatch	leur	-1	0	p	1.1034
400.53810000000004	0.2	hqxbpwsz	42	noun	list	1	8	nomatch	leur	-1	0	p	1.1034
400.7379	0.0	+	42	noun	list	1	9	nomatch	leur	-1	0	p	1.1034
401.1374	0.2	casier	42	noun	list	1	10	nomatch	leur	-1	0	p	1.1034
401.3373	0.0	+	42	noun	list	1	11	nomatch	leur	-1	0	p	1.1034
401.73720000000003	0.0	+	42	noun	list	1	12	nomatch	leur	-1	0	p	1.1034
403.7364	0.0	LEUR	42	noun	list	1	13	nomatch	leur	-1	0	p	1.1034
404.9024	0.0	+	42	noun	list	1	14	nomatch	leur	-1	0	p	1.1034
404.83990000000006	0.0	[response]	42	noun	list	1	15	nomatch	leur	-1	0	p	1.1034
406.1352	0.0	+	43	verb	phrase	4	1	match	peut	3	1	p	1.4283
406.6849	0.2	dfw	43	verb	phrase	4	2	match	peut	3	1	p	1.4283
406.88480000000004	0.0	+	43	verb	phrase	4	3	match	peut	3	1	p	1.4283
407.2846	0.2	paul	43	verb	phrase	4	4	match	peut	3	1	p	1.4283
407.50140000000005	0.0	+	43	verb	phrase	4	5	match	peut	3	1	p	1.4283
407.8847	0.2	peut	43	verb	phrase	4	6	match	peut	3	1	p	1.4283
408.08430000000004	0.0	+	43	verb	phrase	4	7	match	peut	3	1	p	1.4283
408.4841	0.2	patiner	43	verb	phrase	4	8	match	peut	3	1	p	1.4283
408.684	0.0	+	43	verb	phrase	4	9	match	peut	3	1	p	1.4283
409.0838	0.2	tard	43	verb	phrase	4	10	match	peut	3	1	p	1.4283
409.2837	0.0	+	43	verb	phrase	4	11	match	peut	3	1	p	1.4283
409.6836	0.0	+	43	verb	phrase	4	12	match	peut	3	1	p	1.4283
411.6993	0.0	PEUT	43	verb	phrase	4	13	match	peut	3	1	p	1.4283
413.182	0.0	+	43	verb	phrase	4	14	match	peut	3	1	p	1.4283
413.12760000000003	0.0	[response]	43	verb	phrase	4	15	match	peut	3	1	p	1.4283
414.0984	0.0	+	44	noun	phrase	3	1	match	leur	3	0	TIMEOUT	-1.0
414.648	0.2	jzhf	44	noun	phrase	3	2	match	leur	3	0	TIMEOUT	-1.0
414.84790000000004	0.0	+	44	noun	phrase	3	3	match	leur	3	0	TIMEOUT	-1.0
415.2477	0.2	gbpz	44	noun	phrase	3	4	match	leur	3	0	TIMEOUT	-1.0
415.4476	0.0	+	44	noun	phrase	3	5	match	leur	3	0	TIMEOUT	-1.0
415.84770000000003	0.2	leur	44	noun	phrase	3	6	match	leur	3	0	TIMEOUT	-1.0
416.0478	0.0	+	44	noun	phrase	3	7	match	leur	3	0	TIMEOUT	-1.0
416.4477	0.2	grand	44	noun	phrase	3	8	match	leur	3	0	TIMEOUT	-1.0
416.6471	0.0	+	44	noun	phrase	3	9	match	leur	3	0	TIMEOUT	-1.0
417.0475	0.2	voilier	44	noun	phrase	3	10	match	leur	3	0	TIMEOUT	-1.0
417.2468	0.0	+	44	noun	phrase	3	11	match	leur	3	0	TIMEOUT	-1.0
417.64660000000003	0.0	+	44	noun	phrase	3	12	match	leur	3	0	TIMEOUT	-1.0
419.64570000000003	0.0	LEUR	44	noun	phrase	3	13	match	leur	3	0	TIMEOUT	-1.0
422.0446	0.0	+	45	noun	phrase	2	1	match	rocher	4	0	TIMEOUT	-1.0
422.64430000000004	0.2	njsdtz	45	noun	phrase	2	2	match	rocher	4	0	TIMEOUT	-1.0
422.84430000000003	0.0	+	45	noun	phrase	2	3	match	rocher	4	0	TIMEOUT	-1.0
423.2441	0.2	tfbq	45	noun	phrase	2	4	match	rocher	4	0	TIMEOUT	-1.0
423.444	0.0	+	45	noun	phrase	2	5	match	rocher	4	0	TIMEOUT	-1.0
423.8439	0.2	smx	45	noun	phrase	2	6	match	rocher	4	0	TIMEOUT	-1.0
424.0445	0.0	+	45	noun	phrase	2	7	match	rocher	4	0	TIMEOUT	-1.0
424.44390000000004	0.2	rocher	45	noun	phrase	2	8	match	rocher	4	0	TIMEOUT	-1.0
424.6437	0.0	+	45	noun	phrase	2	9	match	rocher	4	0	TIMEOUT	-1.0
425.04330000000004	0.2	rouge	45	noun	phrase	2	10	match	rocher	4	0	TIMEOUT	-1.0
425.2432	0.0	+	45	noun	phrase	2	11	match	rocher	4	0	TIMEOUT	-1.0
425.64300000000003	0.0	+	45	noun	phrase	2	12	match	rocher	4	0	TIMEOUT	-1.0
427.64230000000003	0.0	ROCHER	45	noun	phrase	2	13	match	rocher	4	0	TIMEOUT	-1.0
430.041	0.0	+	46	noun	list	2	1	match	sablier	5	0	TIMEOUT	-1.0
430.64070000000004	0.2	tnfr	46	noun	list	2	2	match	sablier	5	0	TIMEOUT	-1.0
430.8406	0.0	+	46	noun	list	2	3	match	sablier	5	0	TIMEOUT	-1.0
431.2404	0.2	dxcb	46	noun	list	2	4	match	sablier	5	0	TIMEOUT	-1.0
431.4404	0.0	+	46	noun	list	2	5	match	sablier	5	0	TIMEOUT	-1.0
431.84020000000004	0.2	pqk	46	noun	list	2	6	match	sablier	5	0	TIMEOUT	-1.0
432.0401	0.0	+	46	noun	list	2	7	match	sablier	5	0	TIMEOUT	-1.0
432.4399	0.2	mieux	46	noun	list	2	8	match	sablier	5	0	TIMEOUT	-1.0
432.63980000000004	0.0	+	46	noun	list	2	9	match	sablier	5	0	TIMEOUT	-1.0
433.0396	0.2	sablier	46	noun	list	2	10	match	sablier	5	0	TIMEOUT	-1.0
433.2395	0.0	+	46	noun	list	2	11	match	sablier	5	0	TIMEOUT	-1.0
433.63980000000004	0.0	+	46	noun	list	2	12	match	sablier	5	0	TIMEOUT	-1.0
435.6385	0.0	SABLIER	46	noun	list	2	13	match	sablier	5	0	TIMEOUT	-1.0
438.03740000000005	0.0	+	47	verb	list	3	1	match	petit	4	0	TIMEOUT	-1.0
438.63710000000003	0.2	lfp	47	verb	list	3	2	match	petit	4	0	TIMEOUT	-1.0
438.837	0.0	+	47	verb	list	3	3	match	petit	4	0	TIMEOUT	-1.0
439.2368	0.2	gbpz	47	verb	list	3	4	match	petit	4	0	TIMEOUT	-1.0
439.4367	0.0	+	47	verb	list	3	5	match	petit	4	0	TIMEOUT	-1.0
439.8365	0.2	peut	47	verb	list	3	6	match	petit	4	0	TIMEOUT	-1.0
440.03650000000005	0.0	+	47	verb	list	3	7	match	petit	4	0	TIMEOUT	-1.0
440.453	0.2	petit	47	verb	list	3	8	match	petit	4	0	TIMEOUT	-1.0
440.6536	0.0	+	47	verb	list	3	9	match	petit	4	0	TIMEOUT	-1.0
441.03640000000007	0.2	nager	47	verb	list	3	10	match	petit	4	0	TIMEOUT	-1.0
441.2359	0.0	+	47	verb	list	3	11	match	petit	4	0	TIMEOUT	-1.0
441.63570000000004	0.0	+	47	verb	list	3	12	match	petit	4	0	TIMEOUT	-1.0
443.6522	0.0	PETIT	47	verb	list	3	13	match	petit	4	0	TIMEOUT	-1.0
446.05039999999997	0.0	+	48	verb	phrase	1	1	match	voyager	5	1	p	0.77818
446.65010000000007	0.2	lrcpn	48	verb	phrase	1	2	match	voyager	5	1	p	0.77818
446.85	0.0	+	48	verb	phrase	1	3	match	voyager	5	1	p	0.77818
447.2499	0.2	zbkp	48	verb	phrase	1	4	match	voyager	5	1	p	0.77818
447.4498	0.0	+	48	verb	phrase	1	5	match	voyager	5	1	p	0.77818
447.8496	0.2	fhgp	48	verb	phrase	1	6	match	voyager	5	1	p	0.77818
448.04949999999997	0.0	+	48	verb	phrase	1	7	match	voyager	5	1	p	0.77818
448.4493	0.2	jbcx	48	verb	phrase	1	8	match	voyager	5	1	p	0.77818
448.64920000000006	0.0	+	48	verb	phrase	1	9	match	voyager	5	1	p	0.77818
449.049	0.2	voyager	48	verb	phrase	1	10	match	voyager	5	1	p	0.77818
449.249	0.0	+	48	verb	phrase	1	11	match	voyager	5	1	p	0.77818
449.6494	0.0	+	48	verb	phrase	1	12	match	voyager	5	1	p	0.77818
451.64790000000005	0.0	VOYAGER	48	verb	phrase	1	13	match	voyager	5	1	p	0.77818
452.48080000000004	0.0	+	48	verb	phrase	1	14	match	voyager	5	1	p	0.77818
452.42600000000004	0.0	[response]	48	verb	phrase	1	15	match	voyager	5	1	p	0.77818
454.04679999999996	0.0	+	49	verb	phrase	2	1	match	moins	4	0	TIMEOUT	-1.0
454.5965	0.2	grthpc	49	verb	phrase	2	2	match	moins	4	0	TIMEOUT	-1.0
454.79640000000006	0.0	+	49	verb	phrase	2	3	match	moins	4	0	TIMEOUT	-1.0
455.19630000000006	0.2	mkxz	49	verb	phrase	2	4	match	moins	4	0	TIMEOUT	-1.0
455.3962	0.0	+	49	verb	phrase	2	5	match	moins	4	0	TIMEOUT	-1.0
455.79600000000005	0.2	tk	49	verb	phrase	2	6	match	moins	4	0	TIMEOUT	-1.0
455.9959	0.0	+	49	verb	phrase	2	7	match	moins	4	0	TIMEOUT	-1.0
456.39570000000003	0.2	moins	49	verb	phrase	2	8	match	moins	4	0	TIMEOUT	-1.0
456.59590000000003	0.0	+	49	verb	phrase	2	9	match	moins	4	0	TIMEOUT	-1.0
456.99610000000007	0.2	danser	49	verb	phrase	2	10	match	moins	4	0	TIMEOUT	-1.0
457.1957	0.0	+	49	verb	phrase	2	11	match	moins	4	0	TIMEOUT	-1.0
457.59530000000007	0.0	+	49	verb	phrase	2	12	match	moins	4	0	TIMEOUT	-1.0
459.5943	0.0	MOINS	49	verb	phrase	2	13	match	moins	4	0	TIMEOUT	-1.0
461.9932	0.0	+	50	noun	phrase	3	1	match	nouveau	4	0	TIMEOUT	-1.0
462.5929	0.2	xzlkncd	50	noun	phrase	3	2	match	nouveau	4	0	TIMEOUT	-1.0
462.79280000000006	0.0	+	50	noun	phrase	3	3	match	nouveau	4	0	TIMEOUT	-1.0
463.19259999999997	0.2	gjml	50	noun	phrase	3	4	match	nouveau	4	0	TIMEOUT	-1.0
463.39250000000004	0.0	+	50	noun	phrase	3	5	match	nouveau	4	0	TIMEOUT	-1.0
463.793	0.2	mon	50	noun	phrase	3	6	match	nouveau	4	0	TIMEOUT	-1.0
464.0095	0.0	+	50	noun	phrase	3	7	match	nouveau	4	0	TIMEOUT	-1.0
464.3923	0.2	nouveau	50	noun	phrase	3	8	match	nouveau	4	0	TIMEOUT	-1.0
464.5924	0.0	+	50	noun	phrase	3	9	match	nouveau	4	0	TIMEOUT	-1.0
464.9918	0.2	sablier	50	noun	phrase	3	10	match	nouveau	4	0	TIMEOUT	-1.0
465.19169999999997	0.0	+	50	noun	phrase	3	11	match	nouveau	4	0	TIMEOUT	-1.0
465.5915	0.0	+	50	noun	phrase	3	12	match	nouveau	4	0	TIMEOUT	-1.0
467.5914	0.0	NOUVEAU	50	noun	phrase	3	13	match	nouveau	4	0	TIMEOUT	-1.0
469.9895	0.0	+	51	verb	phrase	3	1	match	va	3	1	p	0.67327
470.5893	0.2	lswtfd	51	verb	phrase	3	2	match	va	3	1	p	0.67327
470.78920000000005	0.0	+	51	verb	phrase	3	3	match	va	3	1	p	0.67327
471.18899999999996	0.2	bzsw	51	verb	phrase	3	4	match	va	3	1	p	0.67327
471.38890000000004	0.0	+	51	verb	phrase	3	5	match	va	3	1	p	0.67327
471.78870000000006	0.2	va	51	verb	phrase	3	6	match	va	3	1	p	0.67327
471.9886	0.0	+	51	verb	phrase	3	7	match	va	3	1	p	0.67327
472.38840000000005	0.2	moins	51	verb	phrase	3	8	match	va	3	1	p	0.67327
472.5884	0.0	+	51	verb	phrase	3	9	match	va	3	1	p	0.67327
472.9882	0.2	galoper	51	verb	phrase	3	10	match	va	3	1	p	0.67327
473.18809999999996	0.0	+	51	verb	phrase	3	11	match	va	3	1	p	0.67327
473.58850000000007	0.0	+	51	verb	phrase	3	12	match	va	3	1	p	0.67327
475.587	0.0	VA	51	verb	phrase	3	13	match	va	3	1	p	0.67327
476.32000000000005	0.0	+	51	verb	phrase	3	14	match	va	3	1	p	0.67327
476.26030000000003	0.0	[response]	51	verb	phrase	3	15	match	va	3	1	p	0.67327
477.9859	0.0	+	52	verb	list	4	1	match	avec	2	0	TIMEOUT	-1.0
478.5357	0.2	stgqj	52	verb	list	4	2	match	avec	2	0	TIMEOUT	-1.0
478.7356	0.0	+	52	verb	list	4	3	match	avec	2	0	TIMEOUT	-1.0
479.1354	0.2	avec	52	verb	list	4	4	match	avec	2	0	TIMEOUT	-1.0
479.3353000000001	0.0	+	52	verb	list	4	5	match	avec	2	0	TIMEOUT	-1.0
479.7351	0.2	doit	52	verb	list	4	6	match	avec	2	0	TIMEOUT	-1.0
479.93510000000003	0.0	+	52	verb	list	4	7	match	avec	2	0	TIMEOUT	-1.0
480.3352	0.2	grand	52	verb	list	4	8	match	avec	2	0	TIMEOUT	-1.0
480.5348	0.0	+	52	verb	list	4	9	match	avec	2	0	TIMEOUT	-1.0
480.93460000000005	0.2	nager	52	verb	list	4	10	match	avec	2	0	TIMEOUT	-1.0
481.13509999999997	0.0	+	52	verb	list	4	11	match	avec	2	0	TIMEOUT	-1.0
481.53430000000003	0.0	+	52	verb	list	4	12	match	avec	2	0	TIMEOUT	-1.0
483.55010000000004	0.0	AVEC	52	verb	list	4	13	match	avec	2	0	TIMEOUT	-1.0
485.94900000000007	0.0	+	53	verb	list	1	1	match	nouveau	5	0	y	2.3122
486.54870000000005	0.2	bkq	53	verb	list	1	2	match	nouveau	5	0	y	2.3122
486.7486	0.0	+	53	verb	list	1	3	match	nouveau	5	0	y	2.3122
487.14840000000004	0.2	dsmq	53	verb	list	1	4	match	nouveau	5	0	y	2.3122
487.3483	0.0	+	53	verb	list	1	5	match	nouveau	5	0	y	2.3122
487.7482	0.2	kqfr	53	verb	list	1	6	match	nouveau	5	0	y	2.3122
487.94810000000007	0.0	+	53	verb	list	1	7	match	nouveau	5	0	y	2.3122
488.3479	0.2	jqmbhvf	53	verb	list	1	8	match	nouveau	5	0	y	2.3122
488.54780000000005	0.0	+	53	verb	list	1	9	match	nouveau	5	0	y	2.3122
488.94759999999997	0.2	nouveau	53	verb	list	1	10	match	nouveau	5	0	y	2.3122
489.14750000000004	0.0	+	53	verb	list	1	11	match	nouveau	5	0	y	2.3122
489.5479	0.0	+	53	verb	list	1	12	match	nouveau	5	0	y	2.3122
491.54640000000006	0.0	NOUVEAU	53	verb	list	1	13	match	nouveau	5	0	y	2.3122
493.91200000000003	0.0	+	53	verb	list	1	14	match	nouveau	5	0	y	2.3122
493.8586	0.0	[response]	53	verb	list	1	15	match	nouveau	5	0	y	2.3122
493.9787	0.0	+	54	verb	phrase	4	1	match	jade	2	1	p	0.87707
494.4951	0.2	dxnlrg	54	verb	phrase	4	2	match	jade	2	1	p	0.87707
494.69500000000005	0.0	+	54	verb	phrase	4	3	match	jade	2	1	p	0.87707
495.09479999999996	0.2	jade	54	verb	phrase	4	4	match	jade	2	1	p	0.87707
495.29470000000003	0.0	+	54	verb	phrase	4	5	match	jade	2	1	p	0.87707
495.69460000000004	0.2	va	54	verb	phrase	4	6	match	jade	2	1	p	0.87707
495.8945	0.0	+	54	verb	phrase	4	7	match	jade	2	1	p	0.87707
496.2943	0.2	plonger	54	verb	phrase	4	8	match	jade	2	1	p	0.87707
496.4942	0.0	+	54	verb	phrase	4	9	match	jade	2	1	p	0.87707
496.894	0.2	loin	54	verb	phrase	4	10	match	jade	2	1	p	0.87707
497.09389999999996	0.0	+	54	verb	phrase	4	11	match	jade	2	1	p	0.87707
497.49430000000007	0.0	+	54	verb	phrase	4	12	match	jade	2	1	p	0.87707
499.4928	0.0	JADE	54	verb	phrase	4	13	match	jade	2	1	p	0.87707
500.4429	0.0	+	54	verb	phrase	4	14	match	jade	2	1	p	0.87707
500.36990000000003	0.0	[response]	54	verb	phrase	4	15	match	jade	2	1	p	0.87707
501.8918	0.0	+	55	noun	phrase	1	1	match	rouge	5	0	TIMEOUT	-1.0
502.4415	0.2	dkzfvb	55	noun	phrase	1	2	match	rouge	5	0	TIMEOUT	-1.0
502.6414	0.0	+	55	noun	phrase	1	3	match	rouge	5	0	TIMEOUT	-1.0
503.05860000000007	0.2	tfbq	55	noun	phrase	1	4	match	rouge	5	0	TIMEOUT	-1.0
503.24160000000006	0.0	+	55	noun	phrase	1	5	match	rouge	5	0	TIMEOUT	-1.0
503.64110000000005	0.2	smx	55	noun	phrase	1	6	match	rouge	5	0	TIMEOUT	-1.0
503.8412000000001	0.0	+	55	noun	phrase	1	7	match	rouge	5	0	TIMEOUT	-1.0
504.24080000000004	0.2	ftdsmc	55	noun	phrase	1	8	match	rouge	5	0	TIMEOUT	-1.0
504.4406	0.0	+	55	noun	phrase	1	9	match	rouge	5	0	TIMEOUT	-1.0
504.84040000000005	0.2	rouge	55	noun	phrase	1	10	match	rouge	5	0	TIMEOUT	-1.0
505.0403	0.0	+	55	noun	phrase	1	11	match	rouge	5	0	TIMEOUT	-1.0
505.44010000000003	0.0	+	55	noun	phrase	1	12	match	rouge	5	0	TIMEOUT	-1.0
507.4392	0.0	ROUGE	55	noun	phrase	1	13	match	rouge	5	0	TIMEOUT	-1.0
509.83810000000005	0.0	+	56	verb	phrase	1	1	nomatch	vers	-1	0	TIMEOUT	-1.0
510.4379	0.2	qmc	56	verb	phrase	1	2	nomatch	vers	-1	0	TIMEOUT	-1.0
510.63779999999997	0.0	+	56	verb	phrase	1	3	nomatch	vers	-1	0	TIMEOUT	-1.0
511.0376	0.2	mkxz	56	verb	phrase	1	4	nomatch	vers	-1	0	TIMEOUT	-1.0
511.23750000000007	0.0	+	56	verb	phrase	1	5	nomatch	vers	-1	0	TIMEOUT	-1.0
511.6373	0.2	fhgp	56	verb	phrase	1	6	nomatch	vers	-1	0	TIMEOUT	-1.0
511.83720000000005	0.0	+	56	verb	phrase	1	7	nomatch	vers	-1	0	TIMEOUT	-1.0
512.2371	0.2	jqmbhvf	56	verb	phrase	1	8	nomatch	vers	-1	0	TIMEOUT	-1.0
512.437	0.0	+	56	verb	phrase	1	9	nomatch	vers	-1	0	TIMEOUT	-1.0
512.8372	0.2	moins	56	verb	phrase	1	10	nomatch	vers	-1	0	TIMEOUT	-1.0
513.0368	0.0	+	56	verb	phrase	1	11	nomatch	vers	-1	0	TIMEOUT	-1.0
513.4533	0.0	+	56	verb	phrase	1	12	nomatch	vers	-1	0	TIMEOUT	-1.0
515.4357	0.0	VERS	56	verb	phrase	1	13	nomatch	vers	-1	0	TIMEOUT	-1.0
517.8512000000001	0.0	+	57	noun	phrase	1	1	nomatch	rouge	-1	0	TIMEOUT	-1.0
518.4343	0.2	nxzf	57	noun	phrase	1	2	nomatch	rouge	-1	0	TIMEOUT	-1.0
518.6343	0.0	+	57	noun	phrase	1	3	nomatch	rouge	-1	0	TIMEOUT	-1.0
519.034	0.2	mrlw	57	noun	phrase	1	4	nomatch	rouge	-1	0	TIMEOUT	-1.0
519.2339000000001	0.0	+	57	noun	phrase	1	5	nomatch	rouge	-1	0	TIMEOUT	-1.0
519.6337	0.2	pqk	57	noun	phrase	1	6	nomatch	rouge	-1	0	TIMEOUT	-1.0
519.8339	0.0	+	57	noun	phrase	1	7	nomatch	rouge	-1	0	TIMEOUT	-1.0
520.2501	0.2	fpvtzcb	57	noun	phrase	1	8	nomatch	rouge	-1	0	TIMEOUT	-1.0
520.45	0.0	+	57	noun	phrase	1	9	nomatch	rouge	-1	0	TIMEOUT	-1.0
520.8498000000001	0.2	noir	57	noun	phrase	1	10	nomatch	rouge	-1	0	TIMEOUT	-1.0
521.0497	0.0	+	57	noun	phrase	1	11	nomatch	rouge	-1	0	TIMEOUT	-1.0
521.4503	0.0	+	57	noun	phrase	1	12	nomatch	rouge	-1	0	TIMEOUT	-1.0
523.4486	0.0	ROUGE	57	noun	phrase	1	13	nomatch	rouge	-1	0	TIMEOUT	-1.0
525.8476	0.0	+	58	verb	phrase	1	1	nomatch	patiner	-1	1	y	1.5008
526.4473	0.2	mvq	58	verb	phrase	1	2	nomatch	patiner	-1	1	y	1.5008
526.6472	0.0	+	58	verb	phrase	1	3	nomatch	patiner	-1	1	y	1.5008
527.047	0.2	dxcb	58	verb	phrase	1	4	nomatch	patiner	-1	1	y	1.5008
527.2469	0.0	+	58	verb	phrase	1	5	nomatch	patiner	-1	1	y	1.5008
527.6472	0.2	tk	58	verb	phrase	1	6	nomatch	patiner	-1	1	y	1.5008
527.8637	0.0	+	58	verb	phrase	1	7	nomatch	patiner	-1	1	y	1.5008
528.2467	0.2	gtdpf	58	verb	phrase	1	8	nomatch	patiner	-1	1	y	1.5008
528.447	0.0	+	58	verb	phrase	1	9	nomatch	patiner	-1	1	y	1.5008
528.8465	0.2	plonger	58	verb	phrase	1	10	nomatch	patiner	-1	1	y	1.5008
529.0461	0.0	+	58	verb	phrase	1	11	nomatch	patiner	-1	1	y	1.5008
529.4459	0.0	+	58	verb	phrase	1	12	nomatch	patiner	-1	1	y	1.5008
531.4451	0.0	PATINER	58	verb	phrase	1	13	nomatch	patiner	-1	1	y	1.5008
533.011	0.0	+	58	verb	phrase	1	14	nomatch	patiner	-1	1	y	1.5008
532.9459	0.0	[response]	58	verb	phrase	1	15	nomatch	patiner	-1	1	y	1.5008
533.8439	0.0	+	59	noun	list	3	1	match	vite	5	0	TIMEOUT	-1.0
534.3937	0.2	phmgjk	59	noun	list	3	2	match	vite	5	0	TIMEOUT	-1.0
534.5936	0.0	+	59	noun	list	3	3	match	vite	5	0	TIMEOUT	-1.0
534.9938	0.2	mrlw	59	noun	list	3	4	match	vite	5	0	TIMEOUT	-1.0
535.1940000000001	0.0	+	59	noun	list	3	5	match	vite	5	0	TIMEOUT	-1.0
535.5939	0.2	peut	59	noun	list	3	6	match	vite	5	0	TIMEOUT	-1.0
535.7938	0.0	+	59	noun	list	3	7	match	vite	5	0	TIMEOUT	-1.0
536.1929	0.2	sablier	59	noun	list	3	8	match	vite	5	0	TIMEOUT	-1.0
536.3928	0.0	+	59	noun	list	3	9	match	vite	5	0	TIMEOUT	-1.0
536.7926	0.2	vite	59	noun	list	3	10	match	vite	5	0	TIMEOUT	-1.0
536.9925000000001	0.0	+	59	noun	list	3	11	match	vite	5	0	TIMEOUT	-1.0
537.3923	0.0	+	59	noun	list	3	12	match	vite	5	0	TIMEOUT	-1.0
539.3914	0.0	VITE	59	noun	list	3	13	match	vite	5	0	TIMEOUT	-1.0
541.7903	0.0	+	60	verb	phrase	3	1	match	nager	5	0	TIMEOUT	-1.0
542.39	0.2	wfh	60	verb	phrase	3	2	match	nager	5	0	TIMEOUT	-1.0
542.59	0.0	+	60	verb	phrase	3	3	match	nager	5	0	TIMEOUT	-1.0
542.9898000000001	0.2	zbkp	60	verb	phrase	3	4	match	nager	5	0	TIMEOUT	-1.0
543.1897	0.0	+	60	verb	phrase	3	5	match	nager	5	0	TIMEOUT	-1.0
543.5895	0.2	va	60	verb	phrase	3	6	match	nager	5	0	TIMEOUT	-1.0
543.7894	0.0	+	60	verb	phrase	3	7	match	nager	5	0	TIMEOUT	-1.0
544.1892	0.2	plus	60	verb	phrase	3	8	match	nager	5	0	TIMEOUT	-1.0
544.3891	0.0	+	60	verb	phrase	3	9	match	nager	5	0	TIMEOUT	-1.0
544.789	0.2	nager	60	verb	phrase	3	10	match	nager	5	0	TIMEOUT	-1.0
544.9889000000001	0.0	+	60	verb	phrase	3	11	match	nager	5	0	TIMEOUT	-1.0
545.3887	0.0	+	60	verb	phrase	3	12	match	nager	5	0	TIMEOUT	-1.0
547.3878	0.0	NAGER	60	verb	phrase	3	13	match	nager	5	0	TIMEOUT	-1.0
549.7867	0.0	+	61	verb	phrase	1	1	match	loin	5	0	TIMEOUT	-1.0
550.3864	0.2	lrtbzfw	61	verb	phrase	1	2	match	loin	5	0	TIMEOUT	-1.0
550.5863	0.0	+	61	verb	phrase	1	3	match	loin	5	0	TIMEOUT	-1.0
550.9862	0.2	bzsw	61	verb	phrase	1	4	match	loin	5	0	TIMEOUT	-1.0
551.1861	0.0	+	61	verb	phrase	1	5	match	loin	5	0	TIMEOUT	-1.0
551.5859	0.2	tk	61	verb	phrase	1	6	match	loin	5	0	TIMEOUT	-1.0
551.7858	0.0	+	61	verb	phrase	1	7	match	loin	5	0	TIMEOUT	-1.0
552.1856	0.2	xvprhjt	61	verb	phrase	1	8	match	loin	5	0	TIMEOUT	-1.0
552.3855	0.0	+	61	verb	phrase	1	9	match	loin	5	0	TIMEOUT	-1.0
552.7853	0.2	loin	61	verb	phrase	1	10	match	loin	5	0	TIMEOUT	-1.0
552.9852	0.0	+	61	verb	phrase	1	11	match	loin	5	0	TIMEOUT	-1.0
553.3851	0.0	+	61	verb	phrase	1	12	match	loin	5	0	TIMEOUT	-1.0
555.3842	0.0	LOIN	61	verb	phrase	1	13	match	loin	5	0	TIMEOUT	-1.0
557.7997	0.0	+	62	verb	list	4	1	nomatch	galoper	-1	1	y	6.413700000000001
558.3995	0.2	gxqtv	62	verb	list	4	2	nomatch	galoper	-1	1	y	6.413700000000001
558.5994000000001	0.0	+	62	verb	list	4	3	nomatch	galoper	-1	1	y	6.413700000000001
558.9992	0.2	sur	62	verb	list	4	4	nomatch	galoper	-1	1	y	6.413700000000001
559.1991	0.0	+	62	verb	list	4	5	nomatch	galoper	-1	1	y	6.413700000000001
559.5989000000001	0.2	doit	62	verb	list	4	6	nomatch	galoper	-1	1	y	6.413700000000001
559.7988	0.0	+	62	verb	list	4	7	nomatch	galoper	-1	1	y	6.413700000000001
560.1987	0.2	beau	62	verb	list	4	8	nomatch	galoper	-1	1	y	6.413700000000001
560.3986	0.0	+	62	verb	list	4	9	nomatch	galoper	-1	1	y	6.413700000000001
560.7984	0.2	danser	62	verb	list	4	10	nomatch	galoper	-1	1	y	6.413700000000001
560.9983	0.0	+	62	verb	list	4	11	nomatch	galoper	-1	1	y	6.413700000000001
561.3986	0.0	+	62	verb	list	4	12	nomatch	galoper	-1	1	y	6.413700000000001
563.3972	0.0	GALOPER	62	verb	list	4	13	nomatch	galoper	-1	1	y	6.413700000000001
569.8776	0.0	+	62	verb	list	4	14	nomatch	galoper	-1	1	y	6.413700000000001
569.8109000000001	0.0	[response]	62	verb	list	4	15	nomatch	galoper	-1	1	y	6.413700000000001
573.8095000000001	0.0	+	63	noun	phrase	3	1	match	panier	4	1	p	0.80974
574.3422	0.2	tbfclx	63	noun	phrase	3	2	match	panier	4	1	p	0.80974
574.5421	0.0	+	63	noun	phrase	3	3	match	panier	4	1	p	0.80974
574.942	0.2	dsmq	63	noun	phrase	3	4	match	panier	4	1	p	0.80974
575.1419	0.0	+	63	noun	phrase	3	5	match	panier	4	1	p	0.80974
575.5417	0.2	mon	63	noun	phrase	3	6	match	panier	4	1	p	0.80974
575.7416000000001	0.0	+	63	noun	phrase	3	7	match	panier	4	1	p	0.80974
576.1414	0.2	panier	63	noun	phrase	3	8	match	panier	4	1	p	0.80974
576.3421000000001	0.0	+	63	noun	phrase	3	9	match	panier	4	1	p	0.80974
576.7413	0.2	rouge	63	noun	phrase	3	10	match	panier	4	1	p	0.80974
576.9581000000001	0.0	+	63	noun	phrase	3	11	match	panier	4	1	p	0.80974
577.3416	0.0	+	63	noun	phrase	3	12	match	panier	4	1	p	0.80974
579.34	0.0	PANIER	63	noun	phrase	3	13	match	panier	4	1	p	0.80974
580.2735	0.0	+	63	noun	phrase	3	14	match	panier	4	1	p	0.80974
580.1497	0.0	[response]	63	noun	phrase	3	15	match	panier	4	1	p	0.80974
581.7389000000001	0.0	+	64	verb	phrase	1	1	nomatch	clavier	-1	1	y	0.8201500000000002
582.2886	0.2	jprn	64	verb	phrase	1	2	nomatch	clavier	-1	1	y	0.8201500000000002
582.4885	0.0	+	64	verb	phrase	1	3	nomatch	clavier	-1	1	y	0.8201500000000002
582.8884	0.2	vhfx	64	verb	phrase	1	4	nomatch	clavier	-1	1	y	0.8201500000000002
583.0883	0.0	+	64	verb	phrase	1	5	nomatch	clavier	-1	1	y	0.8201500000000002
583.4881	0.2	kqfr	64	verb	phrase	1	6	nomatch	clavier	-1	1	y	0.8201500000000002
583.688	0.0	+	64	verb	phrase	1	7	nomatch	clavier	-1	1	y	0.8201500000000002
584.0884	0.2	vmscrjk	64	verb	phrase	1	8	nomatch	clavier	-1	1	y	0.8201500000000002
584.3049	0.0	+	64	verb	phrase	1	9	nomatch	clavier	-1	1	y	0.8201500000000002
584.6877000000001	0.2	beaucoup	64	verb	phrase	1	10	nomatch	clavier	-1	1	y	0.8201500000000002
584.888	0.0	+	64	verb	phrase	1	11	nomatch	clavier	-1	1	y	0.8201500000000002
585.2873000000001	0.0	+	64	verb	phrase	1	12	nomatch	clavier	-1	1	y	0.8201500000000002
587.2865	0.0	CLAVIER	64	verb	phrase	1	13	nomatch	clavier	-1	1	y	0.8201500000000002
588.1693	0.0	+	64	verb	phrase	1	14	nomatch	clavier	-1	1	y	0.8201500000000002
588.1067	0.0	[response]	64	verb	phrase	1	15	nomatch	clavier	-1	1	y	0.8201500000000002
597.6983	0.0	+	65	verb	phrase	2	1	nomatch	peut	-1	1	y	1.3778
598.2481	0.2	hmdbqr	65	verb	phrase	2	2	nomatch	peut	-1	1	y	1.3778
598.448	0.0	+	65	verb	phrase	2	3	nomatch	peut	-1	1	y	1.3778
598.8478	0.2	mkxz	65	verb	phrase	2	4	nomatch	peut	-1	1	y	1.3778
599.0477	0.0	+	65	verb	phrase	2	5	nomatch	peut	-1	1	y	1.3778
599.4475	0.2	fhgp	65	verb	phrase	2	6	nomatch	peut	-1	1	y	1.3778
599.6474000000001	0.0	+	65	verb	phrase	2	7	nomatch	peut	-1	1	y	1.3778
600.0472	0.2	nager	65	verb	phrase	2	8	nomatch	peut	-1	1	y	1.3778
600.2472	0.0	+	65	verb	phrase	2	9	nomatch	peut	-1	1	y	1.3778
600.647	0.2	loin	65	verb	phrase	2	10	nomatch	peut	-1	1	y	1.3778
600.8472	0.0	+	65	verb	phrase	2	11	nomatch	peut	-1	1	y	1.3778
601.2467	0.0	+	65	verb	phrase	2	12	nomatch	peut	-1	1	y	1.3778
603.2465	0.0	PEUT	65	verb	phrase	2	13	nomatch	peut	-1	1	y	1.3778
604.6785	0.0	+	65	verb	phrase	2	14	nomatch	peut	-1	1	y	1.3778
604.6243000000001	0.0	[response]	65	verb	phrase	2	15	nomatch	peut	-1	1	y	1.3778
605.6447000000001	0.0	+	66	noun	list	4	1	match	va	3	1	p	0.68936
606.1945000000001	0.2	hqcgbsx	66	noun	list	4	2	match	va	3	1	p	0.68936
606.3944	0.0	+	66	noun	list	4	3	match	va	3	1	p	0.68936
606.7942	0.2	sous	66	noun	list	4	4	match	va	3	1	p	0.68936
606.9941	0.0	+	66	noun	list	4	5	match	va	3	1	p	0.68936
607.3939	0.2	va	66	noun	list	4	6	match	va	3	1	p	0.68936
607.5938	0.0	+	66	noun	list	4	7	match	va	3	1	p	0.68936
607.9943000000001	0.2	casier	66	noun	list	4	8	match	va	3	1	p	0.68936
608.1941	0.0	+	66	noun	list	4	9	match	va	3	1	p	0.68936
608.5934	0.2	tard	66	noun	list	4	10	match	va	3	1	p	0.68936
608.7936	0.0	+	66	noun	list	4	11	match	va	3	1	p	0.68936
609.1931000000001	0.0	+	66	noun	list	4	12	match	va	3	1	p	0.68936
611.1922000000001	0.0	VA	66	noun	list	4	13	match	va	3	1	p	0.68936
611.9418000000001	0.0	+	66	noun	list	4	14	match	va	3	1	p	0.68936
611.8816	0.0	[response]	66	noun	list	4	15	match	va	3	1	p	0.68936
613.5911	0.0	+	67	verb	phrase	2	1	match	patiner	5	1	p	0.77273
614.1409	0.2	fkrwqdp	67	verb	phrase	2	2	match	patiner	5	1	p	0.77273
614.3408000000001	0.0	+	67	verb	phrase	2	3	match	patiner	5	1	p	0.77273
614.7406	0.2	dvjc	67	verb	phrase	2	4	match	patiner	5	1	p	0.77273
614.9575	0.0	+	67	verb	phrase	2	5	match	patiner	5	1	p	0.77273
615.3405	0.2	tk	67	verb	phrase	2	6	match	patiner	5	1	p	0.77273
615.5575	0.0	+	67	verb	phrase	2	7	match	patiner	5	1	p	0.77273
615.9403	0.2	mieux	67	verb	phrase	2	8	match	patiner	5	1	p	0.77273
616.1402	0.0	+	67	verb	phrase	2	9	match	patiner	5	1	p	0.77273
616.5398	0.2	patiner	67	verb	phrase	2	10	match	patiner	5	1	p	0.77273
616.7397	0.0	+	67	verb	phrase	2	11	match	patiner	5	1	p	0.77273
617.1396	0.0	+	67	verb	phrase	2	12	match	patiner	5	1	p	0.77273
619.1386	0.0	PATINER	67	verb	phrase	2	13	match	patiner	5	1	p	0.77273
619.9715	0.0	+	67	verb	phrase	2	14	match	patiner	5	1	p	0.77273
619.9113	0.0	[response]	67	verb	phrase	2	15	match	patiner	5	1	p	0.77273
621.5375	0.0	+	68	verb	phrase	1	1	nomatch	ainsi	-1	1	y	0.84451
622.0873	0.2	bkl	68	verb	phrase	1	2	nomatch	ainsi	-1	1	y	0.84451
622.2872	0.0	+	68	verb	phrase	1	3	nomatch	ainsi	-1	1	y	0.84451
622.687	0.2	vhfx	68	verb	phrase	1	4	nomatch	ainsi	-1	1	y	0.84451
622.8869	0.0	+	68	verb	phrase	1	5	nomatch	ainsi	-1	1	y	0.84451
623.2871	0.2	kqfr	68	verb	phrase	1	6	nomatch	ainsi	-1	1	y	0.84451
623.487	0.0	+	68	verb	phrase	1	7	nomatch	ainsi	-1	1	y	0.84451
623.8871	0.2	nhkgrd	68	verb	phrase	1	8	nomatch	ainsi	-1	1	y	0.84451
624.0863	0.0	+	68	verb	phrase	1	9	nomatch	ainsi	-1	1	y	0.84451
624.4862	0.2	tôt	68	verb	phrase	1	10	nomatch	ainsi	-1	1	y	0.84451
624.6861	0.0	+	68	verb	phrase	1	11	nomatch	ainsi	-1	1	y	0.84451
625.0859	0.0	+	68	verb	phrase	1	12	nomatch	ainsi	-1	1	y	0.84451
627.0855	0.0	AINSI	68	verb	phrase	1	13	nomatch	ainsi	-1	1	y	0.84451
627.9846	0.0	+	68	verb	phrase	1	14	nomatch	ainsi	-1	1	y	0.84451
627.9300000000002	0.0	[response]	68	verb	phrase	1	15	nomatch	ainsi	-1	1	y	0.84451
629.4839000000001	0.0	+	69	verb	list	2	1	nomatch	blanc	-1	1	y	1.2556000000000003
630.0339	0.2	lfwxm	69	verb	list	2	2	nomatch	blanc	-1	1	y	1.2556000000000003
630.2343	0.0	+	69	verb	list	2	3	nomatch	blanc	-1	1	y	1.2556000000000003
630.6507	0.2	dxcb	69	verb	list	2	4	nomatch	blanc	-1	1	y	1.2556000000000003
630.8504	0.0	+	69	verb	list	2	5	nomatch	blanc	-1	1	y	1.2556000000000003
631.2498	0.2	pqk	69	verb	list	2	6	nomatch	blanc	-1	1	y	1.2556000000000003
631.4497	0.0	+	69	verb	list	2	7	nomatch	blanc	-1	1	y	1.2556000000000003
631.8495	0.2	danser	69	verb	list	2	8	nomatch	blanc	-1	1	y	1.2556000000000003
632.0494	0.0	+	69	verb	list	2	9	nomatch	blanc	-1	1	y	1.2556000000000003
632.4492	0.2	bleu	69	verb	list	2	10	nomatch	blanc	-1	1	y	1.2556000000000003
632.6491	0.0	+	69	verb	list	2	11	nomatch	blanc	-1	1	y	1.2556000000000003
633.0661	0.0	+	69	verb	list	2	12	nomatch	blanc	-1	1	y	1.2556000000000003
635.048	0.0	BLANC	69	verb	list	2	13	nomatch	blanc	-1	1	y	1.2556000000000003
636.3641	0.0	+	69	verb	list	2	14	nomatch	blanc	-1	1	y	1.2556000000000003
636.3036000000001	0.0	[response]	69	verb	list	2	15	nomatch	blanc	-1	1	y	1.2556000000000003
637.447	0.0	+	70	noun	phrase	2	1	nomatch	clavier	-1	1	y	0.89507
637.9967	0.2	smzfpw	70	noun	phrase	2	2	nomatch	clavier	-1	1	y	0.89507
638.1966	0.0	+	70	noun	phrase	2	3	nomatch	clavier	-1	1	y	0.89507
638.5964	0.2	gjml	70	noun	phrase	2	4	nomatch	clavier	-1	1	y	0.89507
638.7964000000001	0.0	+	70	noun	phrase	2	5	nomatch	clavier	-1	1	y	0.89507
639.1962	0.2	smx	70	noun	phrase	2	6	nomatch	clavier	-1	1	y	0.89507
639.3961	0.0	+	70	noun	phrase	2	7	nomatch	clavier	-1	1	y	0.89507
639.7959000000001	0.2	sablier	70	noun	phrase	2	8	nomatch	clavier	-1	1	y	0.89507
639.9958	0.0	+	70	noun	phrase	2	9	nomatch	clavier	-1	1	y	0.89507
640.3960000000001	0.2	vert	70	noun	phrase	2	10	nomatch	clavier	-1	1	y	0.89507
640.5958	0.0	+	70	noun	phrase	2	11	nomatch	clavier	-1	1	y	0.89507
640.9961000000001	0.0	+	70	noun	phrase	2	12	nomatch	clavier	-1	1	y	0.89507
642.9944	0.0	CLAVIER	70	noun	phrase	2	13	nomatch	clavier	-1	1	y	0.89507
643.9947	0.0	+	70	noun	phrase	2	14	nomatch	clavier	-1	1	y	0.89507
643.8895	0.0	[response]	70	noun	phrase	2	15	nomatch	clavier	-1	1	y	0.89507
653.3897000000001	0.0	+	71	verb	phrase	3	1	nomatch	blanc	-1	1	y	1.0655000000000001
653.9395000000001	0.2	nmcxlb	71	verb	phrase	3	2	nomatch	blanc	-1	1	y	1.0655000000000001
654.1394	0.0	+	71	verb	phrase	3	3	nomatch	blanc	-1	1	y	1.0655000000000001
654.5392	0.2	mkxz	71	verb	phrase	3	4	nomatch	blanc	-1	1	y	1.0655000000000001
654.7391	0.0	+	71	verb	phrase	3	5	nomatch	blanc	-1	1	y	1.0655000000000001
655.1389	0.2	peut	71	verb	phrase	3	6	nomatch	blanc	-1	1	y	1.0655000000000001
655.3396	0.0	+	71	verb	phrase	3	7	nomatch	blanc	-1	1	y	1.0655000000000001
655.7391	0.2	voyager	71	verb	phrase	3	8	nomatch	blanc	-1	1	y	1.0655000000000001
655.939	0.0	+	71	verb	phrase	3	9	nomatch	blanc	-1	1	y	1.0655000000000001
656.3384	0.2	tard	71	verb	phrase	3	10	nomatch	blanc	-1	1	y	1.0655000000000001
656.5383	0.0	+	71	verb	phrase	3	11	nomatch	blanc	-1	1	y	1.0655000000000001
656.9381	0.0	+	71	verb	phrase	3	12	nomatch	blanc	-1	1	y	1.0655000000000001
658.9372000000001	0.0	BLANC	71	verb	phrase	3	13	nomatch	blanc	-1	1	y	1.0655000000000001
660.0873	0.0	+	71	verb	phrase	3	14	nomatch	blanc	-1	1	y	1.0655000000000001
660.0027	0.0	[response]	71	verb	phrase	3	15	nomatch	blanc	-1	1	y	1.0655000000000001
661.3361	0.0	+	72	verb	list	3	1	match	va	3	1	p	2.2812
661.8859	0.2	tznhvf	72	verb	list	3	2	match	va	3	1	p	2.2812
662.0858000000001	0.0	+	72	verb	list	3	3	match	va	3	1	p	2.2812
662.4856	0.2	dsmq	72	verb	list	3	4	match	va	3	1	p	2.2812
662.6856	0.0	+	72	verb	list	3	5	match	va	3	1	p	2.2812
663.0859	0.2	va	72	verb	list	3	6	match	va	3	1	p	2.2812
663.2856	0.0	+	72	verb	list	3	7	match	va	3	1	p	2.2812
663.6851	0.2	grand	72	verb	list	3	8	match	va	3	1	p	2.2812
663.8856000000001	0.0	+	72	verb	list	3	9	match	va	3	1	p	2.2812
664.2848	0.2	jongler	72	verb	list	3	10	match	va	3	1	p	2.2812
664.4847	0.0	+	72	verb	list	3	11	match	va	3	1	p	2.2812
664.8845	0.0	+	72	verb	list	3	12	match	va	3	1	p	2.2812
666.9009	0.0	VA	72	verb	list	3	13	match	va	3	1	p	2.2812
669.2492	0.0	+	72	verb	list	3	14	match	va	3	1	p	2.2812
669.1821	0.0	[response]	72	verb	list	3	15	match	va	3	1	p	2.2812
677.296	0.0	+	73	verb	list	4	1	match	leur	3	1	p	1.2207
677.8453000000001	0.2	gqmxbz	73	verb	list	4	2	match	leur	3	1	p	1.2207
678.0452	0.0	+	73	verb	list	4	3	match	leur	3	1	p	1.2207
678.445	0.2	adam	73	verb	list	4	4	match	leur	3	1	p	1.2207
678.6449	0.0	+	73	verb	list	4	5	match	leur	3	1	p	1.2207
679.0448	0.2	leur	73	verb	list	4	6	match	leur	3	1	p	1.2207
679.2447	0.0	+	73	verb	list	4	7	match	leur	3	1	p	1.2207
679.6445	0.2	rouler	73	verb	list	4	8	match	leur	3	1	p	1.2207
679.8444000000001	0.0	+	73	verb	list	4	9	match	leur	3	1	p	1.2207
680.2442	0.2	rouge	73	verb	list	4	10	match	leur	3	1	p	1.2207
680.4441	0.0	+	73	verb	list	4	11	match	leur	3	1	p	1.2207
680.8439	0.0	+	73	verb	list	4	12	match	leur	3	1	p	1.2207
682.8430000000001	0.0	LEUR	73	verb	list	4	13	match	leur	3	1	p	1.2207
684.1258	0.0	+	73	verb	list	4	14	match	leur	3	1	p	1.2207
684.0637	0.0	[response]	73	verb	list	4	15	match	leur	3	1	p	1.2207
701.2514	0.0	+	74	noun	list	2	1	nomatch	loin	-1	0	TIMEOUT	-1.0
701.7848	0.2	ltzbp	74	noun	list	2	2	nomatch	loin	-1	0	TIMEOUT	-1.0
701.9844	0.0	+	74	noun	list	2	3	nomatch	loin	-1	0	TIMEOUT	-1.0
702.3842	0.2	dzq	74	noun	list	2	4	nomatch	loin	-1	0	TIMEOUT	-1.0
702.5841	0.0	+	74	noun	list	2	5	nomatch	loin	-1	0	TIMEOUT	-1.0
702.9839000000001	0.2	fhgp	74	noun	list	2	6	nomatch	loin	-1	0	TIMEOUT	-1.0
703.1838	0.0	+	74	noun	list	2	7	nomatch	loin	-1	0	TIMEOUT	-1.0
703.5837	0.2	grenier	74	noun	list	2	8	nomatch	loin	-1	0	TIMEOUT	-1.0
703.7835	0.0	+	74	noun	list	2	9	nomatch	loin	-1	0	TIMEOUT	-1.0
704.2174	0.2	tard	74	noun	list	2	10	nomatch	loin	-1	0	TIMEOUT	-1.0
704.4005	0.0	+	74	noun	list	2	11	nomatch	loin	-1	0	TIMEOUT	-1.0
704.8168000000001	0.0	+	74	noun	list	2	12	nomatch	loin	-1	0	TIMEOUT	-1.0
706.7989	0.0	LOIN	74	noun	list	2	13	nomatch	loin	-1	0	TIMEOUT	-1.0
709.1977	0.0	+	75	verb	list	2	1	match	vert	5	0	TIMEOUT	-1.0
709.7975	0.2	rmcp	75	verb	list	2	2	match	vert	5	0	TIMEOUT	-1.0
709.9974	0.0	+	75	verb	list	2	3	match	vert	5	0	TIMEOUT	-1.0
710.3972	0.2	dvjc	75	verb	list	2	4	match	vert	5	0	TIMEOUT	-1.0
710.5971000000001	0.0	+	75	verb	list	2	5	match	vert	5	0	TIMEOUT	-1.0
710.9969	0.2	rgnb	75	verb	list	2	6	match	vert	5	0	TIMEOUT	-1.0
711.1969	0.0	+	75	verb	list	2	7	match	vert	5	0	TIMEOUT	-1.0
711.5967	0.2	galoper	75	verb	list	2	8	match	vert	5	0	TIMEOUT	-1.0
711.7966	0.0	+	75	verb	list	2	9	match	vert	5	0	TIMEOUT	-1.0
712.1964	0.2	vert	75	verb	list	2	10	match	vert	5	0	TIMEOUT	-1.0
712.3963	0.0	+	75	verb	list	2	11	match	vert	5	0	TIMEOUT	-1.0
712.7961	0.0	+	75	verb	list	2	12	match	vert	5	0	TIMEOUT	-1.0
714.7952	0.0	VERT	75	verb	list	2	13	match	vert	5	0	TIMEOUT	-1.0
717.1941	0.0	+	76	noun	phrase	1	1	nomatch	tard	-1	0	TIMEOUT	-1.0
717.7939	0.2	dwtsrk	76	noun	phrase	1	2	nomatch	tard	-1	0	TIMEOUT	-1.0
717.9938	0.0	+	76	noun	phrase	1	3	nomatch	tard	-1	0	TIMEOUT	-1.0
718.3936	0.2	gbpz	76	noun	phrase	1	4	nomatch	tard	-1	0	TIMEOUT	-1.0
718.5935000000001	0.0	+	76	noun	phrase	1	5	nomatch	tard	-1	0	TIMEOUT	-1.0
718.9933	0.2	pqk	76	noun	phrase	1	6	nomatch	tard	-1	0	TIMEOUT	-1.0
719.1932	0.0	+	76	noun	phrase	1	7	nomatch	tard	-1	0	TIMEOUT	-1.0
719.5930000000001	0.2	shvbl	76	noun	phrase	1	8	nomatch	tard	-1	0	TIMEOUT	-1.0
719.793	0.0	+	76	noun	phrase	1	9	nomatch	tard	-1	0	TIMEOUT	-1.0
720.1928	0.2	casier	76	noun	phrase	1	10	nomatch	tard	-1	0	TIMEOUT	-1.0
720.3927	0.0	+	76	noun	phrase	1	11	nomatch	tard	-1	0	TIMEOUT	-1.0
720.7925	0.0	+	76	noun	phrase	1	12	nomatch	tard	-1	0	TIMEOUT	-1.0
722.7916	0.0	TARD	76	noun	phrase	1	13	nomatch	tard	-1	0	TIMEOUT	-1.0
725.1905	0.0	+	77	verb	list	2	1	nomatch	grand	-1	0	TIMEOUT	-1.0
725.7902	0.2	qfpsvwx	77	verb	list	2	2	nomatch	grand	-1	0	TIMEOUT	-1.0
725.9901	0.0	+	77	verb	list	2	3	nomatch	grand	-1	0	TIMEOUT	-1.0
726.39	0.2	dvjc	77	verb	list	2	4	nomatch	grand	-1	0	TIMEOUT	-1.0
726.5899000000001	0.0	+	77	verb	list	2	5	nomatch	grand	-1	0	TIMEOUT	-1.0
726.9897	0.2	rgnb	77	verb	list	2	6	nomatch	grand	-1	0	TIMEOUT	-1.0
727.1896	0.0	+	77	verb	list	2	7	nomatch	grand	-1	0	TIMEOUT	-1.0
727.5894000000001	0.2	plonger	77	verb	list	2	8	nomatch	grand	-1	0	TIMEOUT	-1.0
727.7893	0.0	+	77	verb	list	2	9	nomatch	grand	-1	0	TIMEOUT	-1.0
728.1895000000001	0.2	blanc	77	verb	list	2	10	nomatch	grand	-1	0	TIMEOUT	-1.0
728.3892000000001	0.0	+	77	verb	list	2	11	nomatch	grand	-1	0	TIMEOUT	-1.0
728.7895	0.0	+	77	verb	list	2	12	nomatch	grand	-1	0	TIMEOUT	-1.0
730.7887000000001	0.0	GRAND	77	verb	list	2	13	nomatch	grand	-1	0	TIMEOUT	-1.0
733.1869	0.0	+	78	verb	phrase	4	1	match	galoper	5	1	p	0.76028
733.7866	0.2	qmg	78	verb	phrase	4	2	match	galoper	5	1	p	0.76028
733.9865	0.0	+	78	verb	phrase	4	3	match	galoper	5	1	p	0.76028
734.3863	0.2	luc	78	verb	phrase	4	4	match	galoper	5	1	p	0.76028
734.5862	0.0	+	78	verb	phrase	4	5	match	galoper	5	1	p	0.76028
734.9861	0.2	peut	78	verb	phrase	4	6	match	galoper	5	1	p	0.76028
735.186	0.0	+	78	verb	phrase	4	7	match	galoper	5	1	p	0.76028
735.5858000000001	0.2	mieux	78	verb	phrase	4	8	match	galoper	5	1	p	0.76028
735.7857	0.0	+	78	verb	phrase	4	9	match	galoper	5	1	p	0.76028
736.1855	0.2	galoper	78	verb	phrase	4	10	match	galoper	5	1	p	0.76028
736.3854	0.0	+	78	verb	phrase	4	11	match	galoper	5	1	p	0.76028
736.7852	0.0	+	78	verb	phrase	4	12	match	galoper	5	1	p	0.76028
738.7844	0.0	GALOPER	78	verb	phrase	4	13	match	galoper	5	1	p	0.76028
739.6006	0.0	+	78	verb	phrase	4	14	match	galoper	5	1	p	0.76028
739.5446000000001	0.0	[response]	78	verb	phrase	4	15	match	galoper	5	1	p	0.76028
749.1963000000001	0.0	+	79	noun	list	3	1	match	tard	5	0	TIMEOUT	-1.0
749.746	0.2	fbsdjmc	79	noun	list	3	2	match	tard	5	0	TIMEOUT	-1.0
749.9466	0.0	+	79	noun	list	3	3	match	tard	5	0	TIMEOUT	-1.0
750.3461	0.2	gjml	79	noun	list	3	4	match	tard	5	0	TIMEOUT	-1.0
750.5625	0.0	+	79	noun	list	3	5	match	tard	5	0	TIMEOUT	-1.0
750.9458	0.2	va	79	noun	list	3	6	match	tard	5	0	TIMEOUT	-1.0
751.1459	0.0	+	79	noun	list	3	7	match	tard	5	0	TIMEOUT	-1.0
751.5458	0.2	panier	79	noun	list	3	8	match	tard	5	0	TIMEOUT	-1.0
751.7451	0.0	+	79	noun	list	3	9	match	tard	5	0	TIMEOUT	-1.0
752.1457	0.2	tard	79	noun	list	3	10	match	tard	5	0	TIMEOUT	-1.0
752.3449	0.0	+	79	noun	list	3	11	match	tard	5	0	TIMEOUT	-1.0
752.7447	0.0	+	79	noun	list	3	12	match	tard	5	0	TIMEOUT	-1.0
754.7442	0.0	TARD	79	noun	list	3	13	match	tard	5	0	TIMEOUT	-1.0
757.1427	0.0	+	80	verb	phrase	1	1	match	ainsi	5	0	TIMEOUT	-1.0
757.7424	0.2	lgdjqh	80	verb	phrase	1	2	match	ainsi	5	0	TIMEOUT	-1.0
757.9423	0.0	+	80	verb	phrase	1	3	match	ainsi	5	0	TIMEOUT	-1.0
758.3421000000001	0.2	dxcb	80	verb	phrase	1	4	match	ainsi	5	0	TIMEOUT	-1.0
758.542	0.0	+	80	verb	phrase	1	5	match	ainsi	5	0	TIMEOUT	-1.0
758.9419	0.2	fhgp	80	verb	phrase	1	6	match	ainsi	5	0	TIMEOUT	-1.0
759.1418	0.0	+	80	verb	phrase	1	7	match	ainsi	5	0	TIMEOUT	-1.0
759.5416	0.2	vmscrjk	80	verb	phrase	1	8	match	ainsi	5	0	TIMEOUT	-1.0
759.7421	0.0	+	80	verb	phrase	1	9	match	ainsi	5	0	TIMEOUT	-1.0
760.1416	0.2	ainsi	80	verb	phrase	1	10	match	ainsi	5	0	TIMEOUT	-1.0
760.3419	0.0	+	80	verb	phrase	1	11	match	ainsi	5	0	TIMEOUT	-1.0
760.7583	0.0	+	80	verb	phrase	1	12	match	ainsi	5	0	TIMEOUT	-1.0
762.7401	0.0	AINSI	80	verb	phrase	1	13	match	ainsi	5	0	TIMEOUT	-1.0
765.1391	0.0	+	80	verb	phrase	1	14	match	ainsi	5	0	TIMEOUT	-1.0
766.5051	0.0	+	80	verb	phrase	1	15	match	ainsi	5	0	TIMEOUT	-1.0
766.6051	0.0	+	80	verb	phrase	1	16	match	ainsi	5	0	TIMEOUT	-1.0
768.0044	0.0	+	80	verb	phrase	1	17	match	ainsi	5	0	TIMEOUT	-1.0
768.1044	0.0	+	80	verb	phrase	1	18	match	ainsi	5	0	TIMEOUT	-1.0
769.5038000000001	0.0	+	80	verb	phrase	1	19	match	ainsi	5	0	TIMEOUT	-1.0
769.6037	0.0	+	80	verb	phrase	1	20	match	ainsi	5	0	TIMEOUT	-1.0
771.0031	0.0	+	80	verb	phrase	1	21	match	ainsi	5	0	TIMEOUT	-1.0
771.1032	0.0	+	80	verb	phrase	1	22	match	ainsi	5	0	TIMEOUT	-1.0
772.5024	0.0	+	80	verb	phrase	1	23	match	ainsi	5	0	TIMEOUT	-1.0
772.6023	0.0	+	80	verb	phrase	1	24	match	ainsi	5	0	TIMEOUT	-1.0
774.0017	0.0	+	80	verb	phrase	1	25	match	ainsi	5	0	TIMEOUT	-1.0
774.1017	0.0	+	80	verb	phrase	1	26	match	ainsi	5	0	TIMEOUT	-1.0
775.501	0.0	+	80	verb	phrase	1	27	match	ainsi	5	0	TIMEOUT	-1.0
775.601	0.0	+	80	verb	phrase	1	28	match	ainsi	5	0	TIMEOUT	-1.0
777.0004	0.0	+	80	verb	phrase	1	29	match	ainsi	5	0	TIMEOUT	-1.0
777.1003000000001	0.0	+	80	verb	phrase	1	30	match	ainsi	5	0	TIMEOUT	-1.0
778.4997000000001	0.0	+	80	verb	phrase	1	31	match	ainsi	5	0	TIMEOUT	-1.0
778.5996	0.0	+	80	verb	phrase	1	32	match	ainsi	5	0	TIMEOUT	-1.0
782.5478	0.0	+	80	verb	phrase	1	33	match	ainsi	5	0	TIMEOUT	-1.0
