onset	duration	stim	trial_number	trial_type	trial_structure	trial_length	sequential_position	probe_type	probe	probe_position	response_correct	response_key	response_time
0.06530000000000058	0.0	+	1	verb	phrase	2	1	match	tard	5	1	p	0.52742
0.5484000000000009	0.2	jxtzvnl	1	verb	phrase	2	2	match	tard	5	1	p	0.52742
0.7483000000000004	0.0	+	1	verb	phrase	2	3	match	tard	5	1	p	0.52742
1.1480999999999995	0.2	bzsw	1	verb	phrase	2	4	match	tard	5	1	p	0.52742
1.347999999999999	0.0	+	1	verb	phrase	2	5	match	tard	5	1	p	0.52742
1.747799999999998	0.2	tk	1	verb	phrase	2	6	match	tard	5	1	p	0.52742
1.9476999999999975	0.0	+	1	verb	phrase	2	7	match	tard	5	1	p	0.52742
2.3474999999999966	0.2	patiner	1	verb	phrase	2	8	match	tard	5	1	p	0.52742
2.5474999999999994	0.0	+	1	verb	phrase	2	9	match	tard	5	1	p	0.52742
2.9472999999999985	0.2	tard	1	verb	phrase	2	10	match	tard	5	1	p	0.52742
3.147199999999998	0.0	+	1	verb	phrase	2	11	match	tard	5	1	p	0.52742
3.546999999999997	0.0	+	1	verb	phrase	2	12	match	tard	5	1	p	0.52742
5.546099999999996	0.0	TARD	1	verb	phrase	2	13	match	tard	5	1	p	0.52742
6.129199999999997	0.0	+	1	verb	phrase	2	14	match	tard	5	1	p	0.52742
6.073499999999996	0.0	[response]	1	verb	phrase	2	15	match	tard	5	1	p	0.52742
7.944999999999993	0.0	+	2	noun	phrase	4	1	match	leur	3	1	p	0.64293
8.494799999999998	0.2	mvpjbw	2	noun	phrase	4	2	match	leur	3	1	p	0.64293
8.694699999999997	0.0	+	2	noun	phrase	4	3	match	leur	3	1	p	0.64293
9.095100000000002	0.2	avec	2	noun	phrase	4	4	match	leur	3	1	p	0.64293
9.311799999999991	0.0	+	2	noun	phrase	4	5	match	leur	3	1	p	0.64293
9.694500000000005	0.2	leur	2	noun	phrase	4	6	match	leur	3	1	p	0.64293
9.894199999999998	0.0	+	2	noun	phrase	4	7	match	leur	3	1	p	0.64293
10.294600000000003	0.2	nouveau	2	noun	phrase	4	8	match	leur	3	1	p	0.64293
10.493899999999996	0.0	+	2	noun	phrase	4	9	match	leur	3	1	p	0.64293
10.893699999999995	0.2	grenier	2	noun	phrase	4	10	match	leur	3	1	p	0.64293
11.093599999999995	0.0	+	2	noun	phrase	4	11	match	leur	3	1	p	0.64293
11.493399999999994	0.0	+	2	noun	phrase	4	12	match	leur	3	1	p	0.64293
13.492499999999993	0.0	LEUR	2	noun	phrase	4	13	match	leur	3	1	p	0.64293
14.225799999999992	0.0	+	2	noun	phrase	4	14	match	leur	3	1	p	0.64293
14.135400000000004	0.0	[response]	2	noun	phrase	4	15	match	leur	3	1	p	0.64293
15.891400000000004	0.0	+	3	noun	list	1	1	match	vite	5	1	p	0.64919
16.441199999999995	0.2	wfbr	3	noun	list	1	2	match	vite	5	1	p	0.64919
16.641099999999994	0.0	+	3	noun	list	1	3	match	vite	5	1	p	0.64919
17.040899999999993	0.2	gjml	3	noun	list	1	4	match	vite	5	1	p	0.64919
17.240799999999993	0.0	+	3	noun	list	1	5	match	vite	5	1	p	0.64919
17.640599999999992	0.2	tk	3	noun	list	1	6	match	vite	5	1	p	0.64919
17.84049999999999	0.0	+	3	noun	list	1	7	match	vite	5	1	p	0.64919
18.2406	0.2	dtbqws	3	noun	list	1	8	match	vite	5	1	p	0.64919
18.441000000000003	0.0	+	3	noun	list	1	9	match	vite	5	1	p	0.64919
18.840599999999995	0.2	vite	3	noun	list	1	10	match	vite	5	1	p	0.64919
19.040300000000002	0.0	+	3	noun	list	1	11	match	vite	5	1	p	0.64919
19.439899999999994	0.0	+	3	noun	list	1	12	match	vite	5	1	p	0.64919
21.438900000000004	0.0	VITE	3	noun	list	1	13	match	vite	5	1	p	0.64919
22.155199999999994	0.0	+	3	noun	list	1	14	match	vite	5	1	p	0.64919
22.088099999999997	0.0	[response]	3	noun	list	1	15	match	vite	5	1	p	0.64919
23.8378	0.0	+	4	noun	list	3	1	nomatch	leur	-1	1	y	1.4159
24.387599999999992	0.2	pdn	4	noun	list	3	2	nomatch	leur	-1	1	y	1.4159
24.58749999999999	0.0	+	4	noun	list	3	3	nomatch	leur	-1	1	y	1.4159
24.987300000000005	0.2	dsmq	4	noun	list	3	4	nomatch	leur	-1	1	y	1.4159
25.187200000000004	0.0	+	4	noun	list	3	5	nomatch	leur	-1	1	y	1.4159
25.587000000000003	0.2	va	4	noun	list	3	6	nomatch	leur	-1	1	y	1.4159
25.786900000000003	0.0	+	4	noun	list	3	7	nomatch	leur	-1	1	y	1.4159
26.1875	0.2	grenier	4	noun	list	3	8	nomatch	leur	-1	1	y	1.4159
26.387199999999993	0.0	+	4	noun	list	3	9	nomatch	leur	-1	1	y	1.4159
26.7872	0.2	ainsi	4	noun	list	3	10	nomatch	leur	-1	1	y	1.4159
26.987099999999998	0.0	+	4	noun	list	3	11	nomatch	leur	-1	1	y	1.4159
27.386200000000002	0.0	+	4	noun	list	3	12	nomatch	leur	-1	1	y	1.4159
29.385800000000003	0.0	LEUR	4	noun	list	3	13	nomatch	leur	-1	1	y	1.4159
30.867999999999995	0.0	+	4	noun	list	3	14	nomatch	leur	-1	1	y	1.4159
30.801699999999997	0.0	[response]	4	noun	list	3	15	nomatch	leur	-1	1	y	1.4159
31.7842	0.0	+	5	noun	phrase	3	1	match	noir	5	1	p	0.6804500000000001
32.3339	0.2	gbw	5	noun	phrase	3	2	match	noir	5	1	p	0.6804500000000001
32.5339	0.0	+	5	noun	phrase	3	3	match	noir	5	1	p	0.6804500000000001
32.9337	0.2	tfbq	5	noun	phrase	3	4	match	noir	5	1	p	0.6804500000000001
33.1336	0.0	+	5	noun	phrase	3	5	match	noir	5	1	p	0.6804500000000001
33.5501	0.2	son	5	noun	phrase	3	6	match	noir	5	1	p	0.6804500000000001
33.75059999999999	0.0	+	5	noun	phrase	3	7	match	noir	5	1	p	0.6804500000000001
34.1502	0.2	rocher	5	noun	phrase	3	8	match	noir	5	1	p	0.6804500000000001
34.3497	0.0	+	5	noun	phrase	3	9	match	noir	5	1	p	0.6804500000000001
34.7495	0.2	noir	5	noun	phrase	3	10	match	noir	5	1	p	0.6804500000000001
34.9494	0.0	+	5	noun	phrase	3	11	match	noir	5	1	p	0.6804500000000001
35.349199999999996	0.0	+	5	noun	phrase	3	12	match	noir	5	1	p	0.6804500000000001
37.348299999999995	0.0	NOIR	5	noun	phrase	3	13	match	noir	5	1	p	0.6804500000000001
38.0814	0.0	+	5	noun	phrase	3	14	match	noir	5	1	p	0.6804500000000001
38.028800000000004	0.0	[response]	5	noun	phrase	3	15	match	noir	5	1	p	0.6804500000000001
39.747299999999996	0.0	+	6	noun	list	4	1	match	tablier	4	1	p	0.64598
40.297	0.2	bvnsz	6	noun	list	4	2	match	tablier	4	1	p	0.64598
40.4969	0.0	+	6	noun	list	4	3	match	tablier	4	1	p	0.64598
40.89699999999999	0.2	sous	6	noun	list	4	4	match	tablier	4	1	p	0.64598
41.1139	0.0	+	6	noun	list	4	5	match	tablier	4	1	p	0.64598
41.4965	0.2	va	6	noun	list	4	6	match	tablier	4	1	p	0.64598
41.6964	0.0	+	6	noun	list	4	7	match	tablier	4	1	p	0.64598
42.096199999999996	0.2	tablier	6	noun	list	4	8	match	tablier	4	1	p	0.64598
42.296099999999996	0.0	+	6	noun	list	4	9	match	tablier	4	1	p	0.64598
42.695899999999995	0.2	vite	6	noun	list	4	10	match	tablier	4	1	p	0.64598
42.895799999999994	0.0	+	6	noun	list	4	11	match	tablier	4	1	p	0.64598
43.2957	0.0	+	6	noun	list	4	12	match	tablier	4	1	p	0.64598
45.29469999999999	0.0	TABLIER	6	noun	list	4	13	match	tablier	4	1	p	0.64598
45.9944	0.0	+	6	noun	list	4	14	match	tablier	4	1	p	0.64598
45.94069999999999	0.0	[response]	6	noun	list	4	15	match	tablier	4	1	p	0.64598
47.69369999999999	0.0	+	7	noun	list	1	1	match	moins	5	1	p	0.55195
48.243399999999994	0.2	tbhn	7	noun	list	1	2	match	moins	5	1	p	0.55195
48.443299999999994	0.0	+	7	noun	list	1	3	match	moins	5	1	p	0.55195
48.84309999999999	0.2	dxcb	7	noun	list	1	4	match	moins	5	1	p	0.55195
49.043099999999995	0.0	+	7	noun	list	1	5	match	moins	5	1	p	0.55195
49.443200000000004	0.2	smx	7	noun	list	1	6	match	moins	5	1	p	0.55195
49.6435	0.0	+	7	noun	list	1	7	match	moins	5	1	p	0.55195
50.043099999999995	0.2	xstwlfq	7	noun	list	1	8	match	moins	5	1	p	0.55195
50.24289999999999	0.0	+	7	noun	list	1	9	match	moins	5	1	p	0.55195
50.64229999999999	0.2	moins	7	noun	list	1	10	match	moins	5	1	p	0.55195
50.84219999999999	0.0	+	7	noun	list	1	11	match	moins	5	1	p	0.55195
51.242000000000004	0.0	+	7	noun	list	1	12	match	moins	5	1	p	0.55195
53.24119999999999	0.0	MOINS	7	noun	list	1	13	match	moins	5	1	p	0.55195
53.8575	0.0	+	7	noun	list	1	14	match	moins	5	1	p	0.55195
53.79310000000001	0.0	[response]	7	noun	list	1	15	match	moins	5	1	p	0.55195
55.640100000000004	0.0	+	8	noun	phrase	1	1	match	tablier	5	1	p	0.54204
56.18979999999999	0.2	spltcr	8	noun	phrase	1	2	match	tablier	5	1	p	0.54204
56.389700000000005	0.0	+	8	noun	phrase	1	3	match	tablier	5	1	p	0.54204
56.789500000000004	0.2	hrjc	8	noun	phrase	1	4	match	tablier	5	1	p	0.54204
56.989599999999996	0.0	+	8	noun	phrase	1	5	match	tablier	5	1	p	0.54204
57.3899	0.2	rgnb	8	noun	phrase	1	6	match	tablier	5	1	p	0.54204
57.58969999999999	0.0	+	8	noun	phrase	1	7	match	tablier	5	1	p	0.54204
57.9892	0.2	psjz	8	noun	phrase	1	8	match	tablier	5	1	p	0.54204
58.18939999999999	0.0	+	8	noun	phrase	1	9	match	tablier	5	1	p	0.54204
58.5887	0.2	tablier	8	noun	phrase	1	10	match	tablier	5	1	p	0.54204
58.7886	0.0	+	8	noun	phrase	1	11	match	tablier	5	1	p	0.54204
59.188500000000005	0.0	+	8	noun	phrase	1	12	match	tablier	5	1	p	0.54204
61.1876	0.0	TABLIER	8	noun	phrase	1	13	match	tablier	5	1	p	0.54204
61.7873	0.0	+	8	noun	phrase	1	14	match	tablier	5	1	p	0.54204
61.729600000000005	0.0	[response]	8	noun	phrase	1	15	match	tablier	5	1	p	0.54204
63.5865	0.0	+	9	verb	list	3	1	match	son	3	1	p	0.67046
64.1368	0.2	vlcrsg	9	verb	list	3	2	match	son	3	1	p	0.67046
64.3365	0.0	+	9	verb	list	3	3	match	son	3	1	p	0.67046
64.7527	0.2	vhfx	9	verb	list	3	4	match	son	3	1	p	0.67046
64.9365	0.0	+	9	verb	list	3	5	match	son	3	1	p	0.67046
65.3357	0.2	son	9	verb	list	3	6	match	son	3	1	p	0.67046
65.5356	0.0	+	9	verb	list	3	7	match	son	3	1	p	0.67046
65.9354	0.2	danser	9	verb	list	3	8	match	son	3	1	p	0.67046
66.1353	0.0	+	9	verb	list	3	9	match	son	3	1	p	0.67046
66.5351	0.2	rouge	9	verb	list	3	10	match	son	3	1	p	0.67046
66.735	0.0	+	9	verb	list	3	11	match	son	3	1	p	0.67046
67.1349	0.0	+	9	verb	list	3	12	match	son	3	1	p	0.67046
69.1339	0.0	SON	9	verb	list	3	13	match	son	3	1	p	0.67046
69.8669	0.0	+	9	verb	list	3	14	match	son	3	1	p	0.67046
69.8044	0.0	[response]	9	verb	list	3	15	match	son	3	1	p	0.67046
71.54950000000001	0.0	+	10	noun	list	1	1	nomatch	tablier	-1	1	y	1.2837
72.09929999999999	0.2	mtfh	10	noun	list	1	2	nomatch	tablier	-1	1	y	1.2837
72.2992	0.0	+	10	noun	list	1	3	nomatch	tablier	-1	1	y	1.2837
72.699	0.2	dzq	10	noun	list	1	4	nomatch	tablier	-1	1	y	1.2837
72.89890000000001	0.0	+	10	noun	list	1	5	nomatch	tablier	-1	1	y	1.2837
73.29870000000001	0.2	fhgp	10	noun	list	1	6	nomatch	tablier	-1	1	y	1.2837
73.4986	0.0	+	10	noun	list	1	7	nomatch	tablier	-1	1	y	1.2837
73.8986	0.2	zndgvcp	10	noun	list	1	8	nomatch	tablier	-1	1	y	1.2837
74.09859999999999	0.0	+	10	noun	list	1	9	nomatch	tablier	-1	1	y	1.2837
74.49820000000001	0.2	tôt	10	noun	list	1	10	nomatch	tablier	-1	1	y	1.2837
74.6981	0.0	+	10	noun	list	1	11	nomatch	tablier	-1	1	y	1.2837
75.0981	0.0	+	10	noun	list	1	12	nomatch	tablier	-1	1	y	1.2837
77.097	0.0	TABLIER	10	noun	list	1	13	nomatch	tablier	-1	1	y	1.2837
78.51369999999999	0.0	+	10	noun	list	1	14	nomatch	tablier	-1	1	y	1.2837
78.3807	0.0	[response]	10	noun	list	1	15	nomatch	tablier	-1	1	y	1.2837
79.49589999999999	0.0	+	11	noun	list	4	1	nomatch	loin	-1	1	y	1.3323
80.0457	0.2	knxv	11	noun	list	4	2	nomatch	loin	-1	1	y	1.3323
80.24560000000001	0.0	+	11	noun	list	4	3	nomatch	loin	-1	1	y	1.3323
80.64540000000001	0.2	dans	11	noun	list	4	4	nomatch	loin	-1	1	y	1.3323
80.8453	0.0	+	11	noun	list	4	5	nomatch	loin	-1	1	y	1.3323
81.2451	0.2	va	11	noun	list	4	6	nomatch	loin	-1	1	y	1.3323
81.44500000000001	0.0	+	11	noun	list	4	7	nomatch	loin	-1	1	y	1.3323
81.8448	0.2	voilier	11	noun	list	4	8	nomatch	loin	-1	1	y	1.3323
82.0448	0.0	+	11	noun	list	4	9	nomatch	loin	-1	1	y	1.3323
82.4449	0.2	tard	11	noun	list	4	10	nomatch	loin	-1	1	y	1.3323
82.64469999999999	0.0	+	11	noun	list	4	11	nomatch	loin	-1	1	y	1.3323
83.0449	0.0	+	11	noun	list	4	12	nomatch	loin	-1	1	y	1.3323
85.0434	0.0	LOIN	11	noun	list	4	13	nomatch	loin	-1	1	y	1.3323
86.44279999999999	0.0	+	11	noun	list	4	14	nomatch	loin	-1	1	y	1.3323
86.37570000000004	0.0	[response]	11	noun	list	4	15	nomatch	loin	-1	1	y	1.3323
87.4423	0.0	+	12	noun	list	1	1	match	vite	5	1	p	0.62343
87.99210000000001	0.2	sqpbwrg	12	noun	list	1	2	match	vite	5	1	p	0.62343
88.192	0.0	+	12	noun	list	1	3	match	vite	5	1	p	0.62343
88.59179999999999	0.2	mrlw	12	noun	list	1	4	match	vite	5	1	p	0.62343
88.7917	0.0	+	12	noun	list	1	5	match	vite	5	1	p	0.62343
89.1915	0.2	kqfr	12	noun	list	1	6	match	vite	5	1	p	0.62343
89.39139999999999	0.0	+	12	noun	list	1	7	match	vite	5	1	p	0.62343
89.7914	0.2	xstwlfq	12	noun	list	1	8	match	vite	5	1	p	0.62343
89.99149999999999	0.0	+	12	noun	list	1	9	match	vite	5	1	p	0.62343
90.3916	0.2	vite	12	noun	list	1	10	match	vite	5	1	p	0.62343
90.59150000000001	0.0	+	12	noun	list	1	11	match	vite	5	1	p	0.62343
90.991	0.0	+	12	noun	list	1	12	match	vite	5	1	p	0.62343
92.98979999999999	0.0	VITE	12	noun	list	1	13	match	vite	5	1	p	0.62343
93.6895	0.0	+	12	noun	list	1	14	match	vite	5	1	p	0.62343
93.61319999999999	0.0	[response]	12	noun	list	1	15	match	vite	5	1	p	0.62343
95.38869999999999	0.0	+	13	noun	phrase	1	1	match	grand	5	1	p	1.0442
95.93849999999999	0.2	wndhj	13	noun	phrase	1	2	match	grand	5	1	p	1.0442
96.1384	0.0	+	13	noun	phrase	1	3	match	grand	5	1	p	1.0442
96.5389	0.2	gjml	13	noun	phrase	1	4	match	grand	5	1	p	1.0442
96.73819999999999	0.0	+	13	noun	phrase	1	5	match	grand	5	1	p	1.0442
97.13850000000001	0.2	smx	13	noun	phrase	1	6	match	grand	5	1	p	1.0442
97.33829999999999	0.0	+	13	noun	phrase	1	7	match	grand	5	1	p	1.0442
97.7377	0.2	tsjpbd	13	noun	phrase	1	8	match	grand	5	1	p	1.0442
97.93759999999999	0.0	+	13	noun	phrase	1	9	match	grand	5	1	p	1.0442
98.33739999999999	0.2	grand	13	noun	phrase	1	10	match	grand	5	1	p	1.0442
98.5373	0.0	+	13	noun	phrase	1	11	match	grand	5	1	p	1.0442
98.9371	0.0	+	13	noun	phrase	1	12	match	grand	5	1	p	1.0442
100.9362	0.0	GRAND	13	noun	phrase	1	13	match	grand	5	1	p	1.0442
102.06939999999999	0.0	+	13	noun	phrase	1	14	match	grand	5	1	p	1.0442
101.98039999999999	0.0	[response]	13	noun	phrase	1	15	match	grand	5	1	p	1.0442
103.3351	0.0	+	14	noun	phrase	3	1	nomatch	dans	-1	1	y	1.5113000000000003
103.8849	0.2	zpgvxjk	14	noun	phrase	3	2	nomatch	dans	-1	1	y	1.5113000000000003
104.08479999999999	0.0	+	14	noun	phrase	3	3	nomatch	dans	-1	1	y	1.5113000000000003
104.48459999999999	0.2	tfbq	14	noun	phrase	3	4	nomatch	dans	-1	1	y	1.5113000000000003
104.6845	0.0	+	14	noun	phrase	3	5	nomatch	dans	-1	1	y	1.5113000000000003
105.0843	0.2	mon	14	noun	phrase	3	6	nomatch	dans	-1	1	y	1.5113000000000003
105.28419999999998	0.0	+	14	noun	phrase	3	7	nomatch	dans	-1	1	y	1.5113000000000003
105.68400000000001	0.2	clavier	14	noun	phrase	3	8	nomatch	dans	-1	1	y	1.5113000000000003
105.8839	0.0	+	14	noun	phrase	3	9	nomatch	dans	-1	1	y	1.5113000000000003
106.2845	0.2	rouge	14	noun	phrase	3	10	nomatch	dans	-1	1	y	1.5113000000000003
106.48440000000001	0.0	+	14	noun	phrase	3	11	nomatch	dans	-1	1	y	1.5113000000000003
106.88359999999999	0.0	+	14	noun	phrase	3	12	nomatch	dans	-1	1	y	1.5113000000000003
108.89989999999999	0.0	DANS	14	noun	phrase	3	13	nomatch	dans	-1	1	y	1.5113000000000003
110.4652	0.0	+	14	noun	phrase	3	14	nomatch	dans	-1	1	y	1.5113000000000003
110.4112	0.0	[response]	14	noun	phrase	3	15	nomatch	dans	-1	1	y	1.5113000000000003
119.29449999999999	0.0	+	15	noun	list	3	1	nomatch	va	-1	0	TIMEOUT	-1.0
119.84429999999999	0.2	jgxfwnb	15	noun	list	3	2	nomatch	va	-1	0	TIMEOUT	-1.0
120.0442	0.0	+	15	noun	list	3	3	nomatch	va	-1	0	TIMEOUT	-1.0
120.4447	0.2	gbpz	15	noun	list	3	4	nomatch	va	-1	0	TIMEOUT	-1.0
120.6442	0.0	+	15	noun	list	3	5	nomatch	va	-1	0	TIMEOUT	-1.0
121.04440000000001	0.2	doit	15	noun	list	3	6	nomatch	va	-1	0	TIMEOUT	-1.0
121.24409999999999	0.0	+	15	noun	list	3	7	nomatch	va	-1	0	TIMEOUT	-1.0
121.6435	0.2	rocher	15	noun	list	3	8	nomatch	va	-1	0	TIMEOUT	-1.0
121.84339999999999	0.0	+	15	noun	list	3	9	nomatch	va	-1	0	TIMEOUT	-1.0
122.24319999999999	0.2	tard	15	noun	list	3	10	nomatch	va	-1	0	TIMEOUT	-1.0
122.4431	0.0	+	15	noun	list	3	11	nomatch	va	-1	0	TIMEOUT	-1.0
122.8429	0.0	+	15	noun	list	3	12	nomatch	va	-1	0	TIMEOUT	-1.0
124.842	0.0	VA	15	noun	list	3	13	nomatch	va	-1	0	TIMEOUT	-1.0
127.2409	0.0	+	16	verb	list	4	1	nomatch	luc	-1	1	y	1.2083
127.84069999999998	0.2	hxqjsg	16	verb	list	4	2	nomatch	luc	-1	1	y	1.2083
128.04059999999998	0.0	+	16	verb	list	4	3	nomatch	luc	-1	1	y	1.2083
128.4404	0.2	yves	16	verb	list	4	4	nomatch	luc	-1	1	y	1.2083
128.64030000000002	0.0	+	16	verb	list	4	5	nomatch	luc	-1	1	y	1.2083
129.0401	0.2	mon	16	verb	list	4	6	nomatch	luc	-1	1	y	1.2083
129.24	0.0	+	16	verb	list	4	7	nomatch	luc	-1	1	y	1.2083
129.6399	0.2	galoper	16	verb	list	4	8	nomatch	luc	-1	1	y	1.2083
129.83980000000003	0.0	+	16	verb	list	4	9	nomatch	luc	-1	1	y	1.2083
130.257	0.2	bleu	16	verb	list	4	10	nomatch	luc	-1	1	y	1.2083
130.43959999999998	0.0	+	16	verb	list	4	11	nomatch	luc	-1	1	y	1.2083
130.85660000000001	0.0	+	16	verb	list	4	12	nomatch	luc	-1	1	y	1.2083
132.83839999999998	0.0	LUC	16	verb	list	4	13	nomatch	luc	-1	1	y	1.2083
134.1211	0.0	+	16	verb	list	4	14	nomatch	luc	-1	1	y	1.2083
134.0467	0.0	[response]	16	verb	list	4	15	nomatch	luc	-1	1	y	1.2083
135.2373	0.0	+	17	noun	phrase	3	1	nomatch	sablier	-1	1	y	1.0754
135.7871	0.2	gdmht	17	noun	phrase	3	2	nomatch	sablier	-1	1	y	1.0754
135.98700000000002	0.0	+	17	noun	phrase	3	3	nomatch	sablier	-1	1	y	1.0754
136.3874	0.2	gbpz	17	noun	phrase	3	4	nomatch	sablier	-1	1	y	1.0754
136.5872	0.0	+	17	noun	phrase	3	5	nomatch	sablier	-1	1	y	1.0754
137.0038	0.2	son	17	noun	phrase	3	6	nomatch	sablier	-1	1	y	1.0754
137.1871	0.0	+	17	noun	phrase	3	7	nomatch	sablier	-1	1	y	1.0754
137.5867	0.2	vieux	17	noun	phrase	3	8	nomatch	sablier	-1	1	y	1.0754
137.7862	0.0	+	17	noun	phrase	3	9	nomatch	sablier	-1	1	y	1.0754
138.18599999999998	0.2	grenier	17	noun	phrase	3	10	nomatch	sablier	-1	1	y	1.0754
138.3859	0.0	+	17	noun	phrase	3	11	nomatch	sablier	-1	1	y	1.0754
138.78570000000002	0.0	+	17	noun	phrase	3	12	nomatch	sablier	-1	1	y	1.0754
140.78539999999998	0.0	SABLIER	17	noun	phrase	3	13	nomatch	sablier	-1	1	y	1.0754
141.9176	0.0	+	17	noun	phrase	3	14	nomatch	sablier	-1	1	y	1.0754
141.8607	0.0	[response]	17	noun	phrase	3	15	nomatch	sablier	-1	1	y	1.0754
143.1837	0.0	+	18	noun	phrase	4	1	nomatch	beaucoup	-1	1	y	0.83272
143.75009999999997	0.2	gvtrp	18	noun	phrase	4	2	nomatch	beaucoup	-1	1	y	0.83272
143.95	0.0	+	18	noun	phrase	4	3	nomatch	beaucoup	-1	1	y	0.83272
144.34980000000002	0.2	dans	18	noun	phrase	4	4	nomatch	beaucoup	-1	1	y	0.83272
144.5498	0.0	+	18	noun	phrase	4	5	nomatch	beaucoup	-1	1	y	0.83272
144.9502	0.2	leur	18	noun	phrase	4	6	nomatch	beaucoup	-1	1	y	0.83272
145.15019999999998	0.0	+	18	noun	phrase	4	7	nomatch	beaucoup	-1	1	y	0.83272
145.54930000000002	0.2	nouveau	18	noun	phrase	4	8	nomatch	beaucoup	-1	1	y	0.83272
145.74919999999997	0.0	+	18	noun	phrase	4	9	nomatch	beaucoup	-1	1	y	0.83272
146.149	0.2	voilier	18	noun	phrase	4	10	nomatch	beaucoup	-1	1	y	0.83272
146.34890000000001	0.0	+	18	noun	phrase	4	11	nomatch	beaucoup	-1	1	y	0.83272
146.74880000000002	0.0	+	18	noun	phrase	4	12	nomatch	beaucoup	-1	1	y	0.83272
148.74790000000002	0.0	BEAUCOUP	18	noun	phrase	4	13	nomatch	beaucoup	-1	1	y	0.83272
149.64749999999998	0.0	+	18	noun	phrase	4	14	nomatch	beaucoup	-1	1	y	0.83272
149.5806	0.0	[response]	18	noun	phrase	4	15	nomatch	beaucoup	-1	1	y	0.83272
151.14679999999998	0.0	+	19	noun	list	4	1	nomatch	tablier	-1	1	y	1.5588
151.69670000000002	0.2	mqns	19	noun	list	4	2	nomatch	tablier	-1	1	y	1.5588
151.89639999999997	0.0	+	19	noun	list	4	3	nomatch	tablier	-1	1	y	1.5588
152.29629999999997	0.2	avec	19	noun	list	4	4	nomatch	tablier	-1	1	y	1.5588
152.4961	0.0	+	19	noun	list	4	5	nomatch	tablier	-1	1	y	1.5588
152.89600000000002	0.2	doit	19	noun	list	4	6	nomatch	tablier	-1	1	y	1.5588
153.09589999999997	0.0	+	19	noun	list	4	7	nomatch	tablier	-1	1	y	1.5588
153.49630000000002	0.2	rocher	19	noun	list	4	8	nomatch	tablier	-1	1	y	1.5588
153.69580000000002	0.0	+	19	noun	list	4	9	nomatch	tablier	-1	1	y	1.5588
154.09609999999998	0.2	ainsi	19	noun	list	4	10	nomatch	tablier	-1	1	y	1.5588
154.29579999999999	0.0	+	19	noun	list	4	11	nomatch	tablier	-1	1	y	1.5588
154.6952	0.0	+	19	noun	list	4	12	nomatch	tablier	-1	1	y	1.5588
156.6943	0.0	TABLIER	19	noun	list	4	13	nomatch	tablier	-1	1	y	1.5588
158.32760000000002	0.0	+	19	noun	list	4	14	nomatch	tablier	-1	1	y	1.5588
158.25310000000002	0.0	[response]	19	noun	list	4	15	nomatch	tablier	-1	1	y	1.5588
159.09320000000002	0.0	+	20	noun	phrase	1	1	match	voilier	5	1	p	1.0408
159.6429	0.2	wcjpq	20	noun	phrase	1	2	match	voilier	5	1	p	1.0408
159.8428	0.0	+	20	noun	phrase	1	3	match	voilier	5	1	p	1.0408
160.24259999999998	0.2	dsmq	20	noun	phrase	1	4	match	voilier	5	1	p	1.0408
160.44259999999997	0.0	+	20	noun	phrase	1	5	match	voilier	5	1	p	1.0408
160.8424	0.2	rgnb	20	noun	phrase	1	6	match	voilier	5	1	p	1.0408
161.0428	0.0	+	20	noun	phrase	1	7	match	voilier	5	1	p	1.0408
161.44279999999998	0.2	svcqdlg	20	noun	phrase	1	8	match	voilier	5	1	p	1.0408
161.65890000000002	0.0	+	20	noun	phrase	1	9	match	voilier	5	1	p	1.0408
162.0424	0.2	voilier	20	noun	phrase	1	10	match	voilier	5	1	p	1.0408
162.24220000000003	0.0	+	20	noun	phrase	1	11	match	voilier	5	1	p	1.0408
162.64159999999998	0.0	+	20	noun	phrase	1	12	match	voilier	5	1	p	1.0408
164.64139999999998	0.0	VOILIER	20	noun	phrase	1	13	match	voilier	5	1	p	1.0408
165.74020000000002	0.0	+	20	noun	phrase	1	14	match	voilier	5	1	p	1.0408
165.68210000000005	0.0	[response]	20	noun	phrase	1	15	match	voilier	5	1	p	1.0408
167.0396	0.0	+	21	noun	phrase	2	1	match	casier	5	1	p	0.54521
167.58929999999998	0.2	xndgvq	21	noun	phrase	2	2	match	casier	5	1	p	0.54521
167.7892	0.0	+	21	noun	phrase	2	3	match	casier	5	1	p	0.54521
168.18900000000002	0.2	dzq	21	noun	phrase	2	4	match	casier	5	1	p	0.54521
168.389	0.0	+	21	noun	phrase	2	5	match	casier	5	1	p	0.54521
168.8059	0.2	pqk	21	noun	phrase	2	6	match	casier	5	1	p	0.54521
168.98899999999998	0.0	+	21	noun	phrase	2	7	match	casier	5	1	p	0.54521
169.38850000000002	0.2	petit	21	noun	phrase	2	8	match	casier	5	1	p	0.54521
169.58839999999998	0.0	+	21	noun	phrase	2	9	match	casier	5	1	p	0.54521
169.9882	0.2	casier	21	noun	phrase	2	10	match	casier	5	1	p	0.54521
170.18810000000002	0.0	+	21	noun	phrase	2	11	match	casier	5	1	p	0.54521
170.58800000000002	0.0	+	21	noun	phrase	2	12	match	casier	5	1	p	0.54521
172.58710000000002	0.0	CASIER	21	noun	phrase	2	13	match	casier	5	1	p	0.54521
173.1868	0.0	+	21	noun	phrase	2	14	match	casier	5	1	p	0.54521
173.1323	0.0	[response]	21	noun	phrase	2	15	match	casier	5	1	p	0.54521
182.99900000000002	0.0	+	22	noun	list	2	1	nomatch	rouler	-1	1	y	0.93788
183.54930000000002	0.2	xmrwc	22	noun	list	2	2	nomatch	rouler	-1	1	y	0.93788
183.74939999999998	0.0	+	22	noun	list	2	3	nomatch	rouler	-1	1	y	0.93788
184.1485	0.2	gjml	22	noun	list	2	4	nomatch	rouler	-1	1	y	0.93788
184.34839999999997	0.0	+	22	noun	list	2	5	nomatch	rouler	-1	1	y	0.93788
184.7482	0.2	tk	22	noun	list	2	6	nomatch	rouler	-1	1	y	0.93788
184.9481	0.0	+	22	noun	list	2	7	nomatch	rouler	-1	1	y	0.93788
185.34789999999998	0.2	rocher	22	noun	list	2	8	nomatch	rouler	-1	1	y	0.93788
185.5478	0.0	+	22	noun	list	2	9	nomatch	rouler	-1	1	y	0.93788
185.9477	0.2	tôt	22	noun	list	2	10	nomatch	rouler	-1	1	y	0.93788
186.1476	0.0	+	22	noun	list	2	11	nomatch	rouler	-1	1	y	0.93788
186.54789999999997	0.0	+	22	noun	list	2	12	nomatch	rouler	-1	1	y	0.93788
188.54649999999998	0.0	ROULER	22	noun	list	2	13	nomatch	rouler	-1	1	y	0.93788
189.546	0.0	+	22	noun	list	2	14	nomatch	rouler	-1	1	y	0.93788
189.4844	0.0	[response]	22	noun	list	2	15	nomatch	rouler	-1	1	y	0.93788
190.9454	0.0	+	23	noun	phrase	3	1	nomatch	mon	-1	1	y	1.5103
191.49509999999998	0.2	ctdrspw	23	noun	phrase	3	2	nomatch	mon	-1	1	y	1.5103
191.69510000000002	0.0	+	23	noun	phrase	3	3	nomatch	mon	-1	1	y	1.5103
192.0949	0.2	mrlw	23	noun	phrase	3	4	nomatch	mon	-1	1	y	1.5103
192.2948	0.0	+	23	noun	phrase	3	5	nomatch	mon	-1	1	y	1.5103
192.69459999999998	0.2	son	23	noun	phrase	3	6	nomatch	mon	-1	1	y	1.5103
192.8945	0.0	+	23	noun	phrase	3	7	nomatch	mon	-1	1	y	1.5103
193.29500000000002	0.2	petit	23	noun	phrase	3	8	nomatch	mon	-1	1	y	1.5103
193.5115	0.0	+	23	noun	phrase	3	9	nomatch	mon	-1	1	y	1.5103
193.8945	0.2	tablier	23	noun	phrase	3	10	nomatch	mon	-1	1	y	1.5103
194.0947	0.0	+	23	noun	phrase	3	11	nomatch	mon	-1	1	y	1.5103
194.51100000000002	0.0	+	23	noun	phrase	3	12	nomatch	mon	-1	1	y	1.5103
196.49290000000002	0.0	MON	23	noun	phrase	3	13	nomatch	mon	-1	1	y	1.5103
198.05880000000002	0.0	+	23	noun	phrase	3	14	nomatch	mon	-1	1	y	1.5103
198.00320000000005	0.0	[response]	23	noun	phrase	3	15	nomatch	mon	-1	1	y	1.5103
198.8918	0.0	+	24	verb	phrase	3	1	nomatch	tard	-1	1	y	0.84994
199.44149999999996	0.2	bkgcz	24	verb	phrase	3	2	nomatch	tard	-1	1	y	0.84994
199.6415	0.0	+	24	verb	phrase	3	3	nomatch	tard	-1	1	y	0.84994
200.04129999999998	0.2	dvjc	24	verb	phrase	3	4	nomatch	tard	-1	1	y	0.84994
200.2412	0.0	+	24	verb	phrase	3	5	nomatch	tard	-1	1	y	0.84994
200.64099999999996	0.2	peut	24	verb	phrase	3	6	nomatch	tard	-1	1	y	0.84994
200.84089999999998	0.0	+	24	verb	phrase	3	7	nomatch	tard	-1	1	y	0.84994
201.2407	0.2	rouler	24	verb	phrase	3	8	nomatch	tard	-1	1	y	0.84994
201.44059999999996	0.0	+	24	verb	phrase	3	9	nomatch	tard	-1	1	y	0.84994
201.84109999999998	0.2	ainsi	24	verb	phrase	3	10	nomatch	tard	-1	1	y	0.84994
202.04089999999997	0.0	+	24	verb	phrase	3	11	nomatch	tard	-1	1	y	0.84994
202.4402	0.0	+	24	verb	phrase	3	12	nomatch	tard	-1	1	y	0.84994
204.4393	0.0	TARD	24	verb	phrase	3	13	nomatch	tard	-1	1	y	0.84994
205.3555	0.0	+	24	verb	phrase	3	14	nomatch	tard	-1	1	y	0.84994
205.2892	0.0	[response]	24	verb	phrase	3	15	nomatch	tard	-1	1	y	0.84994
206.83819999999997	0.0	+	25	noun	phrase	2	1	nomatch	bleu	-1	1	y	0.8142
207.3879	0.2	knmzlth	25	noun	phrase	2	2	nomatch	bleu	-1	1	y	0.8142
207.5879	0.0	+	25	noun	phrase	2	3	nomatch	bleu	-1	1	y	0.8142
207.98769999999996	0.2	dsmq	25	noun	phrase	2	4	nomatch	bleu	-1	1	y	0.8142
208.18759999999997	0.0	+	25	noun	phrase	2	5	nomatch	bleu	-1	1	y	0.8142
208.5874	0.2	rgnb	25	noun	phrase	2	6	nomatch	bleu	-1	1	y	0.8142
208.8046	0.0	+	25	noun	phrase	2	7	nomatch	bleu	-1	1	y	0.8142
209.18779999999998	0.2	grand	25	noun	phrase	2	8	nomatch	bleu	-1	1	y	0.8142
209.387	0.0	+	25	noun	phrase	2	9	nomatch	bleu	-1	1	y	0.8142
209.7869	0.2	panier	25	noun	phrase	2	10	nomatch	bleu	-1	1	y	0.8142
209.98739999999998	0.0	+	25	noun	phrase	2	11	nomatch	bleu	-1	1	y	0.8142
210.3872	0.0	+	25	noun	phrase	2	12	nomatch	bleu	-1	1	y	0.8142
212.38569999999999	0.0	BLEU	25	noun	phrase	2	13	nomatch	bleu	-1	1	y	0.8142
213.252	0.0	+	25	noun	phrase	2	14	nomatch	bleu	-1	1	y	0.8142
213.19989999999996	0.0	[response]	25	noun	phrase	2	15	nomatch	bleu	-1	1	y	0.8142
214.7846	0.0	+	26	noun	phrase	2	1	match	clavier	5	1	p	0.89421
215.33429999999998	0.2	hpncm	26	noun	phrase	2	2	match	clavier	5	1	p	0.89421
215.53429999999997	0.0	+	26	noun	phrase	2	3	match	clavier	5	1	p	0.89421
215.9341	0.2	dzq	26	noun	phrase	2	4	match	clavier	5	1	p	0.89421
216.13399999999996	0.0	+	26	noun	phrase	2	5	match	clavier	5	1	p	0.89421
216.55109999999996	0.2	pqk	26	noun	phrase	2	6	match	clavier	5	1	p	0.89421
216.7344	0.0	+	26	noun	phrase	2	7	match	clavier	5	1	p	0.89421
217.13349999999997	0.2	nouveau	26	noun	phrase	2	8	match	clavier	5	1	p	0.89421
217.3501	0.0	+	26	noun	phrase	2	9	match	clavier	5	1	p	0.89421
217.74989999999997	0.2	clavier	26	noun	phrase	2	10	match	clavier	5	1	p	0.89421
217.94979999999998	0.0	+	26	noun	phrase	2	11	match	clavier	5	1	p	0.89421
218.3496	0.0	+	26	noun	phrase	2	12	match	clavier	5	1	p	0.89421
220.3657	0.0	CLAVIER	26	noun	phrase	2	13	match	clavier	5	1	p	0.89421
221.315	0.0	+	26	noun	phrase	2	14	match	clavier	5	1	p	0.89421
221.25989999999996	0.0	[response]	26	noun	phrase	2	15	match	clavier	5	1	p	0.89421
222.7477	0.0	+	27	noun	list	1	1	match	ainsi	5	1	p	0.96177
223.29739999999998	0.2	hzsv	27	noun	list	1	2	match	ainsi	5	1	p	0.96177
223.4973	0.0	+	27	noun	list	1	3	match	ainsi	5	1	p	0.96177
223.89709999999997	0.2	gjml	27	noun	list	1	4	match	ainsi	5	1	p	0.96177
224.09699999999998	0.0	+	27	noun	list	1	5	match	ainsi	5	1	p	0.96177
224.49719999999996	0.2	kqfr	27	noun	list	1	6	match	ainsi	5	1	p	0.96177
224.69729999999998	0.0	+	27	noun	list	1	7	match	ainsi	5	1	p	0.96177
225.11379999999997	0.2	jctkwzl	27	noun	list	1	8	match	ainsi	5	1	p	0.96177
225.3132	0.0	+	27	noun	list	1	9	match	ainsi	5	1	p	0.96177
225.697	0.2	ainsi	27	noun	list	1	10	match	ainsi	5	1	p	0.96177
225.89619999999996	0.0	+	27	noun	list	1	11	match	ainsi	5	1	p	0.96177
226.296	0.0	+	27	noun	list	1	12	match	ainsi	5	1	p	0.96177
228.2951	0.0	AINSI	27	noun	list	1	13	match	ainsi	5	1	p	0.96177
229.3114	0.0	+	27	noun	list	1	14	match	ainsi	5	1	p	0.96177
229.25689999999997	0.0	[response]	27	noun	list	1	15	match	ainsi	5	1	p	0.96177
230.6948	0.0	+	28	noun	list	2	1	match	rocher	5	1	p	1.0549
231.24379999999996	0.2	qjsm	28	noun	list	2	2	match	rocher	5	1	p	1.0549
231.44369999999998	0.0	+	28	noun	list	2	3	match	rocher	5	1	p	1.0549
231.8435	0.2	glv	28	noun	list	2	4	match	rocher	5	1	p	1.0549
232.04409999999996	0.0	+	28	noun	list	2	5	match	rocher	5	1	p	1.0549
232.4438	0.2	smx	28	noun	list	2	6	match	rocher	5	1	p	1.0549
232.6433	0.0	+	28	noun	list	2	7	match	rocher	5	1	p	1.0549
233.04359999999997	0.2	moins	28	noun	list	2	8	match	rocher	5	1	p	1.0549
233.2434	0.0	+	28	noun	list	2	9	match	rocher	5	1	p	1.0549
233.6427	0.2	rocher	28	noun	list	2	10	match	rocher	5	1	p	1.0549
233.8426	0.0	+	28	noun	list	2	11	match	rocher	5	1	p	1.0549
234.24239999999998	0.0	+	28	noun	list	2	12	match	rocher	5	1	p	1.0549
236.24149999999997	0.0	ROCHER	28	noun	list	2	13	match	rocher	5	1	p	1.0549
237.35769999999997	0.0	+	28	noun	list	2	14	match	rocher	5	1	p	1.0549
237.2964	0.0	[response]	28	noun	list	2	15	match	rocher	5	1	p	1.0549
238.64049999999997	0.0	+	29	noun	list	2	1	nomatch	va	-1	1	y	1.0164
239.1902	0.2	fzjb	29	noun	list	2	2	nomatch	va	-1	1	y	1.0164
239.39009999999996	0.0	+	29	noun	list	2	3	nomatch	va	-1	1	y	1.0164
239.79039999999998	0.2	gbpz	29	noun	list	2	4	nomatch	va	-1	1	y	1.0164
239.99039999999997	0.0	+	29	noun	list	2	5	nomatch	va	-1	1	y	1.0164
240.3897	0.2	kqfr	29	noun	list	2	6	nomatch	va	-1	1	y	1.0164
240.58959999999996	0.0	+	29	noun	list	2	7	nomatch	va	-1	1	y	1.0164
240.9894	0.2	casier	29	noun	list	2	8	nomatch	va	-1	1	y	1.0164
241.1893	0.0	+	29	noun	list	2	9	nomatch	va	-1	1	y	1.0164
241.58909999999997	0.2	tard	29	noun	list	2	10	nomatch	va	-1	1	y	1.0164
241.789	0.0	+	29	noun	list	2	11	nomatch	va	-1	1	y	1.0164
242.18879999999996	0.0	+	29	noun	list	2	12	nomatch	va	-1	1	y	1.0164
244.18789999999996	0.0	VA	29	noun	list	2	13	nomatch	va	-1	1	y	1.0164
245.2708	0.0	+	29	noun	list	2	14	nomatch	va	-1	1	y	1.0164
245.2043	0.0	[response]	29	noun	list	2	15	nomatch	va	-1	1	y	1.0164
254.5999	0.0	+	30	noun	phrase	1	1	match	vert	5	1	p	0.90466
255.16679999999997	0.2	hkmqj	30	noun	phrase	1	2	match	vert	5	1	p	0.90466
255.3499	0.0	+	30	noun	phrase	1	3	match	vert	5	1	p	0.90466
255.7496	0.2	mrlw	30	noun	phrase	1	4	match	vert	5	1	p	0.90466
255.94979999999998	0.0	+	30	noun	phrase	1	5	match	vert	5	1	p	0.90466
256.3494	0.2	smx	30	noun	phrase	1	6	match	vert	5	1	p	0.90466
256.549	0.0	+	30	noun	phrase	1	7	match	vert	5	1	p	0.90466
256.9488	0.2	dtbqws	30	noun	phrase	1	8	match	vert	5	1	p	0.90466
257.14869999999996	0.0	+	30	noun	phrase	1	9	match	vert	5	1	p	0.90466
257.54859999999996	0.2	vert	30	noun	phrase	1	10	match	vert	5	1	p	0.90466
257.7484	0.0	+	30	noun	phrase	1	11	match	vert	5	1	p	0.90466
258.1483	0.0	+	30	noun	phrase	1	12	match	vert	5	1	p	0.90466
260.1477	0.0	VERT	30	noun	phrase	1	13	match	vert	5	1	p	0.90466
261.1142	0.0	+	30	noun	phrase	1	14	match	vert	5	1	p	0.90466
261.0524	0.0	[response]	30	noun	phrase	1	15	match	vert	5	1	p	0.90466
262.58	0.0	+	31	verb	list	2	1	nomatch	galoper	-1	1	y	0.8293
263.0963	0.2	zkh	31	verb	list	2	2	nomatch	galoper	-1	1	y	0.8293
263.296	0.0	+	31	verb	list	2	3	nomatch	galoper	-1	1	y	0.8293
263.69579999999996	0.2	tfbq	31	verb	list	2	4	nomatch	galoper	-1	1	y	0.8293
263.8957	0.0	+	31	verb	list	2	5	nomatch	galoper	-1	1	y	0.8293
264.2955	0.2	tk	31	verb	list	2	6	nomatch	galoper	-1	1	y	0.8293
264.49539999999996	0.0	+	31	verb	list	2	7	nomatch	galoper	-1	1	y	0.8293
264.8952	0.2	nouveau	31	verb	list	2	8	nomatch	galoper	-1	1	y	0.8293
265.0951	0.0	+	31	verb	list	2	9	nomatch	galoper	-1	1	y	0.8293
265.4949	0.2	nager	31	verb	list	2	10	nomatch	galoper	-1	1	y	0.8293
265.6948	0.0	+	31	verb	list	2	11	nomatch	galoper	-1	1	y	0.8293
266.0947	0.0	+	31	verb	list	2	12	nomatch	galoper	-1	1	y	0.8293
268.11089999999996	0.0	GALOPER	31	verb	list	2	13	nomatch	galoper	-1	1	y	0.8293
268.9934	0.0	+	31	verb	list	2	14	nomatch	galoper	-1	1	y	0.8293
268.9402	0.0	[response]	31	verb	list	2	15	nomatch	galoper	-1	1	y	0.8293
270.49269999999996	0.0	+	32	noun	phrase	1	1	nomatch	vert	-1	1	y	1.4325
271.0424	0.2	mnl	32	noun	phrase	1	2	nomatch	vert	-1	1	y	1.4325
271.2423	0.0	+	32	noun	phrase	1	3	nomatch	vert	-1	1	y	1.4325
271.6422	0.2	gjml	32	noun	phrase	1	4	nomatch	vert	-1	1	y	1.4325
271.84209999999996	0.0	+	32	noun	phrase	1	5	nomatch	vert	-1	1	y	1.4325
272.2425	0.2	smx	32	noun	phrase	1	6	nomatch	vert	-1	1	y	1.4325
272.442	0.0	+	32	noun	phrase	1	7	nomatch	vert	-1	1	y	1.4325
272.84229999999997	0.2	zndgvcp	32	noun	phrase	1	8	nomatch	vert	-1	1	y	1.4325
273.0421	0.0	+	32	noun	phrase	1	9	nomatch	vert	-1	1	y	1.4325
273.44129999999996	0.2	rouge	32	noun	phrase	1	10	nomatch	vert	-1	1	y	1.4325
273.6413	0.0	+	32	noun	phrase	1	11	nomatch	vert	-1	1	y	1.4325
274.0413	0.0	+	32	noun	phrase	1	12	nomatch	vert	-1	1	y	1.4325
276.04019999999997	0.0	VERT	32	noun	phrase	1	13	nomatch	vert	-1	1	y	1.4325
277.5728	0.0	+	32	noun	phrase	1	14	nomatch	vert	-1	1	y	1.4325
277.4727	0.0	[response]	32	noun	phrase	1	15	nomatch	vert	-1	1	y	1.4325
278.4391	0.0	+	33	verb	list	1	1	nomatch	rouler	-1	1	y	0.90774
278.98879999999997	0.2	sptkh	33	verb	list	1	2	nomatch	rouler	-1	1	y	0.90774
279.1887	0.0	+	33	verb	list	1	3	nomatch	rouler	-1	1	y	0.90774
279.5886	0.2	mkxz	33	verb	list	1	4	nomatch	rouler	-1	1	y	0.90774
279.7885	0.0	+	33	verb	list	1	5	nomatch	rouler	-1	1	y	0.90774
280.18829999999997	0.2	pqk	33	verb	list	1	6	nomatch	rouler	-1	1	y	0.90774
280.3882	0.0	+	33	verb	list	1	7	nomatch	rouler	-1	1	y	0.90774
280.788	0.2	psjz	33	verb	list	1	8	nomatch	rouler	-1	1	y	0.90774
280.98789999999997	0.0	+	33	verb	list	1	9	nomatch	rouler	-1	1	y	0.90774
281.3884	0.2	jongler	33	verb	list	1	10	nomatch	rouler	-1	1	y	0.90774
281.5882	0.0	+	33	verb	list	1	11	nomatch	rouler	-1	1	y	0.90774
281.98789999999997	0.0	+	33	verb	list	1	12	nomatch	rouler	-1	1	y	0.90774
283.9866	0.0	ROULER	33	verb	list	1	13	nomatch	rouler	-1	1	y	0.90774
284.95279999999997	0.0	+	33	verb	list	1	14	nomatch	rouler	-1	1	y	0.90774
284.8943	0.0	[response]	33	verb	list	1	15	nomatch	rouler	-1	1	y	0.90774
286.3855	0.0	+	34	verb	list	4	1	nomatch	son	-1	1	y	1.0818
286.9352	0.2	jqwdpnv	34	verb	list	4	2	nomatch	son	-1	1	y	1.0818
287.13509999999997	0.0	+	34	verb	list	4	3	nomatch	son	-1	1	y	1.0818
287.53499999999997	0.2	adam	34	verb	list	4	4	nomatch	son	-1	1	y	1.0818
287.7349	0.0	+	34	verb	list	4	5	nomatch	son	-1	1	y	1.0818
288.1347	0.2	leur	34	verb	list	4	6	nomatch	son	-1	1	y	1.0818
288.33459999999997	0.0	+	34	verb	list	4	7	nomatch	son	-1	1	y	1.0818
288.7344	0.2	nager	34	verb	list	4	8	nomatch	son	-1	1	y	1.0818
288.95169999999996	0.0	+	34	verb	list	4	9	nomatch	son	-1	1	y	1.0818
289.3342	0.2	noir	34	verb	list	4	10	nomatch	son	-1	1	y	1.0818
289.5342	0.0	+	34	verb	list	4	11	nomatch	son	-1	1	y	1.0818
289.93449999999996	0.0	+	34	verb	list	4	12	nomatch	son	-1	1	y	1.0818
291.9496	0.0	SON	34	verb	list	4	13	nomatch	son	-1	1	y	1.0818
293.183	0.0	+	34	verb	list	4	14	nomatch	son	-1	1	y	1.0818
293.03139999999996	0.0	[response]	34	verb	list	4	15	nomatch	son	-1	1	y	1.0818
294.3485	0.0	+	35	noun	phrase	1	1	nomatch	jean	-1	1	y	0.8981400000000002
294.8983	0.2	pktrgx	35	noun	phrase	1	2	nomatch	jean	-1	1	y	0.8981400000000002
295.09819999999996	0.0	+	35	noun	phrase	1	3	nomatch	jean	-1	1	y	0.8981400000000002
295.498	0.2	mrlw	35	noun	phrase	1	4	nomatch	jean	-1	1	y	0.8981400000000002
295.6979	0.0	+	35	noun	phrase	1	5	nomatch	jean	-1	1	y	0.8981400000000002
296.0978	0.2	smx	35	noun	phrase	1	6	nomatch	jean	-1	1	y	0.8981400000000002
296.3148	0.0	+	35	noun	phrase	1	7	nomatch	jean	-1	1	y	0.8981400000000002
296.698	0.2	fpvtzcb	35	noun	phrase	1	8	nomatch	jean	-1	1	y	0.8981400000000002
296.89779999999996	0.0	+	35	noun	phrase	1	9	nomatch	jean	-1	1	y	0.8981400000000002
297.2972	0.2	petit	35	noun	phrase	1	10	nomatch	jean	-1	1	y	0.8981400000000002
297.4971	0.0	+	35	noun	phrase	1	11	nomatch	jean	-1	1	y	0.8981400000000002
297.89689999999996	0.0	+	35	noun	phrase	1	12	nomatch	jean	-1	1	y	0.8981400000000002
299.913	0.0	JEAN	35	noun	phrase	1	13	nomatch	jean	-1	1	y	0.8981400000000002
300.8789	0.0	+	35	noun	phrase	1	14	nomatch	jean	-1	1	y	0.8981400000000002
300.81120000000004	0.0	[response]	35	noun	phrase	1	15	nomatch	jean	-1	1	y	0.8981400000000002
302.2949	0.0	+	36	noun	phrase	1	1	match	casier	5	1	p	0.77573
302.8447	0.2	pnqtf	36	noun	phrase	1	2	match	casier	5	1	p	0.77573
303.0446	0.0	+	36	noun	phrase	1	3	match	casier	5	1	p	0.77573
303.4444	0.2	gbpz	36	noun	phrase	1	4	match	casier	5	1	p	0.77573
303.64459999999997	0.0	+	36	noun	phrase	1	5	match	casier	5	1	p	0.77573
304.0446	0.2	rgnb	36	noun	phrase	1	6	match	casier	5	1	p	0.77573
304.24469999999997	0.0	+	36	noun	phrase	1	7	match	casier	5	1	p	0.77573
304.6439	0.2	qpjc	36	noun	phrase	1	8	match	casier	5	1	p	0.77573
304.8438	0.0	+	36	noun	phrase	1	9	match	casier	5	1	p	0.77573
305.24359999999996	0.2	casier	36	noun	phrase	1	10	match	casier	5	1	p	0.77573
305.4435	0.0	+	36	noun	phrase	1	11	match	casier	5	1	p	0.77573
305.8433	0.0	+	36	noun	phrase	1	12	match	casier	5	1	p	0.77573
307.8424	0.0	CASIER	36	noun	phrase	1	13	match	casier	5	1	p	0.77573
308.67539999999997	0.0	+	36	noun	phrase	1	14	match	casier	5	1	p	0.77573
308.61809999999997	0.0	[response]	36	noun	phrase	1	15	match	casier	5	1	p	0.77573
310.24129999999997	0.0	+	37	noun	phrase	1	1	match	panier	5	1	p	0.85188
310.7911	0.2	cpmxdbr	37	noun	phrase	1	2	match	panier	5	1	p	0.85188
310.991	0.0	+	37	noun	phrase	1	3	match	panier	5	1	p	0.85188
311.39079999999996	0.2	mrlw	37	noun	phrase	1	4	match	panier	5	1	p	0.85188
311.59069999999997	0.0	+	37	noun	phrase	1	5	match	panier	5	1	p	0.85188
311.9905	0.2	smx	37	noun	phrase	1	6	match	panier	5	1	p	0.85188
312.1905	0.0	+	37	noun	phrase	1	7	match	panier	5	1	p	0.85188
312.6076	0.2	bwgs	37	noun	phrase	1	8	match	panier	5	1	p	0.85188
312.79069999999996	0.0	+	37	noun	phrase	1	9	match	panier	5	1	p	0.85188
313.1907	0.2	panier	37	noun	phrase	1	10	match	panier	5	1	p	0.85188
313.3899	0.0	+	37	noun	phrase	1	11	match	panier	5	1	p	0.85188
313.7897	0.0	+	37	noun	phrase	1	12	match	panier	5	1	p	0.85188
315.7888	0.0	PANIER	37	noun	phrase	1	13	match	panier	5	1	p	0.85188
316.70509999999996	0.0	+	37	noun	phrase	1	14	match	panier	5	1	p	0.85188
316.64070000000004	0.0	[response]	37	noun	phrase	1	15	match	panier	5	1	p	0.85188
318.1877	0.0	+	38	verb	list	4	1	match	dans	2	1	p	0.94913
318.7375	0.2	rhj	38	verb	list	4	2	match	dans	2	1	p	0.94913
318.93739999999997	0.0	+	38	verb	list	4	3	match	dans	2	1	p	0.94913
319.3372	0.2	dans	38	verb	list	4	4	match	dans	2	1	p	0.94913
319.5371	0.0	+	38	verb	list	4	5	match	dans	2	1	p	0.94913
319.9376	0.2	va	38	verb	list	4	6	match	dans	2	1	p	0.94913
320.1375	0.0	+	38	verb	list	4	7	match	dans	2	1	p	0.94913
320.5371	0.2	petit	38	verb	list	4	8	match	dans	2	1	p	0.94913
320.7367	0.0	+	38	verb	list	4	9	match	dans	2	1	p	0.94913
321.137	0.2	rouler	38	verb	list	4	10	match	dans	2	1	p	0.94913
321.3363	0.0	+	38	verb	list	4	11	match	dans	2	1	p	0.94913
321.73609999999996	0.0	+	38	verb	list	4	12	match	dans	2	1	p	0.94913
323.7356	0.0	DANS	38	verb	list	4	13	match	dans	2	1	p	0.94913
324.75149999999996	0.0	+	38	verb	list	4	14	match	dans	2	1	p	0.94913
324.68469999999996	0.0	[response]	38	verb	list	4	15	match	dans	2	1	p	0.94913
326.1341	0.0	+	39	verb	phrase	4	1	nomatch	moins	-1	1	y	0.75131
326.6839	0.2	clfj	39	verb	phrase	4	2	nomatch	moins	-1	1	y	0.75131
326.8843	0.0	+	39	verb	phrase	4	3	nomatch	moins	-1	1	y	0.75131
327.28389999999996	0.2	adam	39	verb	phrase	4	4	nomatch	moins	-1	1	y	0.75131
327.4841	0.0	+	39	verb	phrase	4	5	nomatch	moins	-1	1	y	0.75131
327.9007	0.2	doit	39	verb	phrase	4	6	nomatch	moins	-1	1	y	0.75131
328.1003	0.0	+	39	verb	phrase	4	7	nomatch	moins	-1	1	y	0.75131
328.49969999999996	0.2	galoper	39	verb	phrase	4	8	nomatch	moins	-1	1	y	0.75131
328.6996	0.0	+	39	verb	phrase	4	9	nomatch	moins	-1	1	y	0.75131
329.0995	0.2	vite	39	verb	phrase	4	10	nomatch	moins	-1	1	y	0.75131
329.2994	0.0	+	39	verb	phrase	4	11	nomatch	moins	-1	1	y	0.75131
329.69919999999996	0.0	+	39	verb	phrase	4	12	nomatch	moins	-1	1	y	0.75131
331.69829999999996	0.0	MOINS	39	verb	phrase	4	13	nomatch	moins	-1	1	y	0.75131
332.5146	0.0	+	39	verb	phrase	4	14	nomatch	moins	-1	1	y	0.75131
332.4496	0.0	[response]	39	verb	phrase	4	15	nomatch	moins	-1	1	y	0.75131
342.16049999999996	0.0	+	40	noun	list	4	1	nomatch	va	-1	1	y	1.8086
342.6433	0.2	djq	40	noun	list	4	2	nomatch	va	-1	1	y	1.8086
342.84319999999997	0.0	+	40	noun	list	4	3	nomatch	va	-1	1	y	1.8086
343.24309999999997	0.2	vers	40	noun	list	4	4	nomatch	va	-1	1	y	1.8086
343.443	0.0	+	40	noun	list	4	5	nomatch	va	-1	1	y	1.8086
343.8428	0.2	peut	40	noun	list	4	6	nomatch	va	-1	1	y	1.8086
344.04269999999997	0.0	+	40	noun	list	4	7	nomatch	va	-1	1	y	1.8086
344.4428	0.2	sablier	40	noun	list	4	8	nomatch	va	-1	1	y	1.8086
344.64259999999996	0.0	+	40	noun	list	4	9	nomatch	va	-1	1	y	1.8086
345.0428	0.2	loin	40	noun	list	4	10	nomatch	va	-1	1	y	1.8086
345.2421	0.0	+	40	noun	list	4	11	nomatch	va	-1	1	y	1.8086
345.642	0.0	+	40	noun	list	4	12	nomatch	va	-1	1	y	1.8086
347.6584	0.0	VA	40	noun	list	4	13	nomatch	va	-1	1	y	1.8086
349.52349999999996	0.0	+	40	noun	list	4	14	nomatch	va	-1	1	y	1.8086
349.467	0.0	[response]	40	noun	list	4	15	nomatch	va	-1	1	y	1.8086
350.03999999999996	0.0	+	41	verb	list	2	1	match	petit	4	1	p	1.0807
350.5897	0.2	xrg	41	verb	list	2	2	match	petit	4	1	p	1.0807
350.7896	0.0	+	41	verb	list	2	3	match	petit	4	1	p	1.0807
351.1894	0.2	dzq	41	verb	list	2	4	match	petit	4	1	p	1.0807
351.38939999999997	0.0	+	41	verb	list	2	5	match	petit	4	1	p	1.0807
351.7892	0.2	fhgp	41	verb	list	2	6	match	petit	4	1	p	1.0807
351.9891	0.0	+	41	verb	list	2	7	match	petit	4	1	p	1.0807
352.3889	0.2	petit	41	verb	list	2	8	match	petit	4	1	p	1.0807
352.5888	0.0	+	41	verb	list	2	9	match	petit	4	1	p	1.0807
352.98859999999996	0.2	jongler	41	verb	list	2	10	match	petit	4	1	p	1.0807
353.1885	0.0	+	41	verb	list	2	11	match	petit	4	1	p	1.0807
353.6056	0.0	+	41	verb	list	2	12	match	petit	4	1	p	1.0807
355.5874	0.0	PETIT	41	verb	list	2	13	match	petit	4	1	p	1.0807
356.7203	0.0	+	41	verb	list	2	14	match	petit	4	1	p	1.0807
356.6681	0.0	[response]	41	verb	list	2	15	match	petit	4	1	p	1.0807
357.9864	0.0	+	42	noun	list	1	1	nomatch	beaucoup	-1	1	y	0.8568
358.5361	0.2	cnzbgxp	42	noun	list	1	2	nomatch	beaucoup	-1	1	y	0.8568
358.736	0.0	+	42	noun	list	1	3	nomatch	beaucoup	-1	1	y	0.8568
359.13579999999996	0.2	dxcb	42	noun	list	1	4	nomatch	beaucoup	-1	1	y	0.8568
359.3358	0.0	+	42	noun	list	1	5	nomatch	beaucoup	-1	1	y	0.8568
359.7356	0.2	pqk	42	noun	list	1	6	nomatch	beaucoup	-1	1	y	0.8568
359.9355	0.0	+	42	noun	list	1	7	nomatch	beaucoup	-1	1	y	0.8568
360.33529999999996	0.2	zndgvcp	42	noun	list	1	8	nomatch	beaucoup	-1	1	y	0.8568
360.5352	0.0	+	42	noun	list	1	9	nomatch	beaucoup	-1	1	y	0.8568
360.935	0.2	moins	42	noun	list	1	10	nomatch	beaucoup	-1	1	y	0.8568
361.1355	0.0	+	42	noun	list	1	11	nomatch	beaucoup	-1	1	y	0.8568
361.53479999999996	0.0	+	42	noun	list	1	12	nomatch	beaucoup	-1	1	y	0.8568
363.53409999999997	0.0	BEAUCOUP	42	noun	list	1	13	nomatch	beaucoup	-1	1	y	0.8568
364.45009999999996	0.0	+	42	noun	list	1	14	nomatch	beaucoup	-1	1	y	0.8568
364.3909	0.0	[response]	42	noun	list	1	15	nomatch	beaucoup	-1	1	y	0.8568
365.94939999999997	0.0	+	43	verb	phrase	1	1	match	nager	5	1	p	0.90795
366.4992	0.2	bqfrp	43	verb	phrase	1	2	match	nager	5	1	p	0.90795
366.6997	0.0	+	43	verb	phrase	1	3	match	nager	5	1	p	0.90795
367.116	0.2	vhfx	43	verb	phrase	1	4	match	nager	5	1	p	0.90795
367.2994	0.0	+	43	verb	phrase	1	5	match	nager	5	1	p	0.90795
367.6986	0.2	fhgp	43	verb	phrase	1	6	match	nager	5	1	p	0.90795
367.89849999999996	0.0	+	43	verb	phrase	1	7	match	nager	5	1	p	0.90795
368.29839999999996	0.2	njxzb	43	verb	phrase	1	8	match	nager	5	1	p	0.90795
368.4983	0.0	+	43	verb	phrase	1	9	match	nager	5	1	p	0.90795
368.8981	0.2	nager	43	verb	phrase	1	10	match	nager	5	1	p	0.90795
369.09799999999996	0.0	+	43	verb	phrase	1	11	match	nager	5	1	p	0.90795
369.4978	0.0	+	43	verb	phrase	1	12	match	nager	5	1	p	0.90795
371.4976	0.0	NAGER	43	verb	phrase	1	13	match	nager	5	1	p	0.90795
372.4798	0.0	+	43	verb	phrase	1	14	match	nager	5	1	p	0.90795
372.40549999999996	0.0	[response]	43	verb	phrase	1	15	match	nager	5	1	p	0.90795
373.8958	0.0	+	44	noun	list	3	1	nomatch	moins	-1	1	y	0.89022
374.44559999999996	0.2	dzwlvk	44	noun	list	3	2	nomatch	moins	-1	1	y	0.89022
374.64549999999997	0.0	+	44	noun	list	3	3	nomatch	moins	-1	1	y	0.89022
375.0453	0.2	gjml	44	noun	list	3	4	nomatch	moins	-1	1	y	0.89022
375.2452	0.0	+	44	noun	list	3	5	nomatch	moins	-1	1	y	0.89022
375.645	0.2	va	44	noun	list	3	6	nomatch	moins	-1	1	y	0.89022
375.8449	0.0	+	44	noun	list	3	7	nomatch	moins	-1	1	y	0.89022
376.2453	0.2	tablier	44	noun	list	3	8	nomatch	moins	-1	1	y	0.89022
376.44509999999997	0.0	+	44	noun	list	3	9	nomatch	moins	-1	1	y	0.89022
376.84459999999996	0.2	vite	44	noun	list	3	10	nomatch	moins	-1	1	y	0.89022
377.0451	0.0	+	44	noun	list	3	11	nomatch	moins	-1	1	y	0.89022
377.44419999999997	0.0	+	44	noun	list	3	12	nomatch	moins	-1	1	y	0.89022
379.44329999999997	0.0	MOINS	44	noun	list	3	13	nomatch	moins	-1	1	y	0.89022
380.3929	0.0	+	44	noun	list	3	14	nomatch	moins	-1	1	y	0.89022
380.33349999999996	0.0	[response]	44	noun	list	3	15	nomatch	moins	-1	1	y	0.89022
405.8816	0.0	+	45	noun	phrase	4	1	match	clavier	4	1	p	0.72006
406.39779999999996	0.2	mcdj	45	noun	phrase	4	2	match	clavier	4	1	p	0.72006
406.5977	0.0	+	45	noun	phrase	4	3	match	clavier	4	1	p	0.72006
406.9975	0.2	sous	45	noun	phrase	4	4	match	clavier	4	1	p	0.72006
407.19739999999996	0.0	+	45	noun	phrase	4	5	match	clavier	4	1	p	0.72006
407.5972	0.2	leur	45	noun	phrase	4	6	match	clavier	4	1	p	0.72006
407.7971	0.0	+	45	noun	phrase	4	7	match	clavier	4	1	p	0.72006
408.197	0.2	clavier	45	noun	phrase	4	8	match	clavier	4	1	p	0.72006
408.3972	0.0	+	45	noun	phrase	4	9	match	clavier	4	1	p	0.72006
408.7974	0.2	bleu	45	noun	phrase	4	10	match	clavier	4	1	p	0.72006
408.9973	0.0	+	45	noun	phrase	4	11	match	clavier	4	1	p	0.72006
409.39639999999997	0.0	+	45	noun	phrase	4	12	match	clavier	4	1	p	0.72006
411.4129	0.0	CLAVIER	45	noun	phrase	4	13	match	clavier	4	1	p	0.72006
412.229	0.0	+	45	noun	phrase	4	14	match	clavier	4	1	p	0.72006
412.1329	0.0	[response]	45	noun	phrase	4	15	match	clavier	4	1	p	0.72006
413.7944	0.0	+	46	verb	list	3	1	nomatch	moins	-1	1	y	0.7672600000000002
414.3442	0.2	kqmr	46	verb	list	3	2	nomatch	moins	-1	1	y	0.7672600000000002
414.54409999999996	0.0	+	46	verb	list	3	3	nomatch	moins	-1	1	y	0.7672600000000002
414.9439	0.2	bzsw	46	verb	list	3	4	nomatch	moins	-1	1	y	0.7672600000000002
415.1438	0.0	+	46	verb	list	3	5	nomatch	moins	-1	1	y	0.7672600000000002
415.54359999999997	0.2	son	46	verb	list	3	6	nomatch	moins	-1	1	y	0.7672600000000002
415.7435	0.0	+	46	verb	list	3	7	nomatch	moins	-1	1	y	0.7672600000000002
416.14349999999996	0.2	plonger	46	verb	list	3	8	nomatch	moins	-1	1	y	0.7672600000000002
416.3433	0.0	+	46	verb	list	3	9	nomatch	moins	-1	1	y	0.7672600000000002
416.7603	0.2	rouge	46	verb	list	3	10	nomatch	moins	-1	1	y	0.7672600000000002
416.94329999999997	0.0	+	46	verb	list	3	11	nomatch	moins	-1	1	y	0.7672600000000002
417.3429	0.0	+	46	verb	list	3	12	nomatch	moins	-1	1	y	0.7672600000000002
419.3419	0.0	MOINS	46	verb	list	3	13	nomatch	moins	-1	1	y	0.7672600000000002
420.1748	0.0	+	46	verb	list	3	14	nomatch	moins	-1	1	y	0.7672600000000002
420.10920000000004	0.0	[response]	46	verb	list	3	15	nomatch	moins	-1	1	y	0.7672600000000002
421.7408	0.0	+	47	noun	phrase	4	1	match	avec	2	1	p	0.88939
422.2905	0.2	rdm	47	noun	phrase	4	2	match	avec	2	1	p	0.88939
422.4905	0.0	+	47	noun	phrase	4	3	match	avec	2	1	p	0.88939
422.89029999999997	0.2	avec	47	noun	phrase	4	4	match	avec	2	1	p	0.88939
423.0902	0.0	+	47	noun	phrase	4	5	match	avec	2	1	p	0.88939
423.49	0.2	mon	47	noun	phrase	4	6	match	avec	2	1	p	0.88939
423.68989999999997	0.0	+	47	noun	phrase	4	7	match	avec	2	1	p	0.88939
424.0904	0.2	panier	47	noun	phrase	4	8	match	avec	2	1	p	0.88939
424.3069	0.0	+	47	noun	phrase	4	9	match	avec	2	1	p	0.88939
424.6901	0.2	vert	47	noun	phrase	4	10	match	avec	2	1	p	0.88939
424.89009999999996	0.0	+	47	noun	phrase	4	11	match	avec	2	1	p	0.88939
425.2892	0.0	+	47	noun	phrase	4	12	match	avec	2	1	p	0.88939
427.2883	0.0	AVEC	47	noun	phrase	4	13	match	avec	2	1	p	0.88939
428.305	0.0	+	47	noun	phrase	4	14	match	avec	2	1	p	0.88939
428.17769999999996	0.0	[response]	47	noun	phrase	4	15	match	avec	2	1	p	0.88939
429.68719999999996	0.0	+	48	verb	phrase	2	1	nomatch	tard	-1	1	y	0.83444
430.23699999999997	0.2	rzkfj	48	verb	phrase	2	2	nomatch	tard	-1	1	y	0.83444
430.4369	0.0	+	48	verb	phrase	2	3	nomatch	tard	-1	1	y	0.83444
430.8539	0.2	vhfx	48	verb	phrase	2	4	nomatch	tard	-1	1	y	0.83444
431.0369	0.0	+	48	verb	phrase	2	5	nomatch	tard	-1	1	y	0.83444
431.43649999999997	0.2	fhgp	48	verb	phrase	2	6	nomatch	tard	-1	1	y	0.83444
431.637	0.0	+	48	verb	phrase	2	7	nomatch	tard	-1	1	y	0.83444
432.0367	0.2	plonger	48	verb	phrase	2	8	nomatch	tard	-1	1	y	0.83444
432.2364	0.0	+	48	verb	phrase	2	9	nomatch	tard	-1	1	y	0.83444
432.6359	0.2	ainsi	48	verb	phrase	2	10	nomatch	tard	-1	1	y	0.83444
432.8358	0.0	+	48	verb	phrase	2	11	nomatch	tard	-1	1	y	0.83444
433.2356	0.0	+	48	verb	phrase	2	12	nomatch	tard	-1	1	y	0.83444
435.2347	0.0	TARD	48	verb	phrase	2	13	nomatch	tard	-1	1	y	0.83444
436.1343	0.0	+	48	verb	phrase	2	14	nomatch	tard	-1	1	y	0.83444
436.0691	0.0	[response]	48	verb	phrase	2	15	nomatch	tard	-1	1	y	0.83444
437.6336	0.0	+	49	verb	phrase	1	1	match	danser	5	1	p	1.7964000000000002
438.2	0.2	lpgsw	49	verb	phrase	1	2	match	danser	5	1	p	1.7964000000000002
438.3999	0.0	+	49	verb	phrase	1	3	match	danser	5	1	p	1.7964000000000002
438.81669999999997	0.2	dvjc	49	verb	phrase	1	4	match	danser	5	1	p	1.7964000000000002
438.99969999999996	0.0	+	49	verb	phrase	1	5	match	danser	5	1	p	1.7964000000000002
439.3995	0.2	tk	49	verb	phrase	1	6	match	danser	5	1	p	1.7964000000000002
439.5994	0.0	+	49	verb	phrase	1	7	match	danser	5	1	p	1.7964000000000002
439.9992	0.2	qrc	49	verb	phrase	1	8	match	danser	5	1	p	1.7964000000000002
440.1991	0.0	+	49	verb	phrase	1	9	match	danser	5	1	p	1.7964000000000002
440.59889999999996	0.2	danser	49	verb	phrase	1	10	match	danser	5	1	p	1.7964000000000002
440.79879999999997	0.0	+	49	verb	phrase	1	11	match	danser	5	1	p	1.7964000000000002
441.1987	0.0	+	49	verb	phrase	1	12	match	danser	5	1	p	1.7964000000000002
443.1977	0.0	DANSER	49	verb	phrase	1	13	match	danser	5	1	p	1.7964000000000002
445.0469	0.0	+	49	verb	phrase	1	14	match	danser	5	1	p	1.7964000000000002
444.99410000000006	0.0	[response]	49	verb	phrase	1	15	match	danser	5	1	p	1.7964000000000002
453.59299999999996	0.0	+	50	noun	list	3	1	match	mon	3	1	p	0.67206
454.14279999999997	0.2	clwk	50	noun	list	3	2	match	mon	3	1	p	0.67206
454.34270000000004	0.0	+	50	noun	list	3	3	match	mon	3	1	p	0.67206
454.74299999999994	0.2	vhfx	50	noun	list	3	4	match	mon	3	1	p	0.67206
454.94280000000003	0.0	+	50	noun	list	3	5	match	mon	3	1	p	0.67206
455.3423	0.2	mon	50	noun	list	3	6	match	mon	3	1	p	0.67206
455.54279999999994	0.0	+	50	noun	list	3	7	match	mon	3	1	p	0.67206
455.9425	0.2	mieux	50	noun	list	3	8	match	mon	3	1	p	0.67206
456.14239999999995	0.0	+	50	noun	list	3	9	match	mon	3	1	p	0.67206
456.5417	0.2	rocher	50	noun	list	3	10	match	mon	3	1	p	0.67206
456.74159999999995	0.0	+	50	noun	list	3	11	match	mon	3	1	p	0.67206
457.1414	0.0	+	50	noun	list	3	12	match	mon	3	1	p	0.67206
459.15779999999995	0.0	MON	50	noun	list	3	13	match	mon	3	1	p	0.67206
459.89019999999994	0.0	+	50	noun	list	3	14	match	mon	3	1	p	0.67206
459.82989999999995	0.0	[response]	50	noun	list	3	15	match	mon	3	1	p	0.67206
469.60299999999995	0.0	+	51	verb	phrase	1	1	match	nager	5	1	p	0.95681
470.1027	0.2	tdx	51	verb	phrase	1	2	match	nager	5	1	p	0.95681
470.28549999999996	0.0	+	51	verb	phrase	1	3	match	nager	5	1	p	0.95681
470.6853	0.2	zbkp	51	verb	phrase	1	4	match	nager	5	1	p	0.95681
470.88519999999994	0.0	+	51	verb	phrase	1	5	match	nager	5	1	p	0.95681
471.28499999999997	0.2	kqfr	51	verb	phrase	1	6	match	nager	5	1	p	0.95681
471.48490000000004	0.0	+	51	verb	phrase	1	7	match	nager	5	1	p	0.95681
471.8847999999999	0.2	kprx	51	verb	phrase	1	8	match	nager	5	1	p	0.95681
472.0847	0.0	+	51	verb	phrase	1	9	match	nager	5	1	p	0.95681
472.485	0.2	nager	51	verb	phrase	1	10	match	nager	5	1	p	0.95681
472.68510000000003	0.0	+	51	verb	phrase	1	11	match	nager	5	1	p	0.95681
473.0846	0.0	+	51	verb	phrase	1	12	match	nager	5	1	p	0.95681
475.1	0.0	NAGER	51	verb	phrase	1	13	match	nager	5	1	p	0.95681
476.1495	0.0	+	51	verb	phrase	1	14	match	nager	5	1	p	0.95681
476.05679999999995	0.0	[response]	51	verb	phrase	1	15	match	nager	5	1	p	0.95681
477.49889999999994	0.0	+	52	noun	list	2	1	match	vite	5	1	p	0.98929
478.04859999999996	0.2	kstzx	52	noun	list	2	2	match	vite	5	1	p	0.98929
478.24850000000004	0.0	+	52	noun	list	2	3	match	vite	5	1	p	0.98929
478.64829999999995	0.2	mrlw	52	noun	list	2	4	match	vite	5	1	p	0.98929
478.8483	0.0	+	52	noun	list	2	5	match	vite	5	1	p	0.98929
479.2481	0.2	tk	52	noun	list	2	6	match	vite	5	1	p	0.98929
479.448	0.0	+	52	noun	list	2	7	match	vite	5	1	p	0.98929
479.8478	0.2	panier	52	noun	list	2	8	match	vite	5	1	p	0.98929
480.04769999999996	0.0	+	52	noun	list	2	9	match	vite	5	1	p	0.98929
480.44809999999995	0.2	vite	52	noun	list	2	10	match	vite	5	1	p	0.98929
480.6476	0.0	+	52	noun	list	2	11	match	vite	5	1	p	0.98929
481.06409999999994	0.0	+	52	noun	list	2	12	match	vite	5	1	p	0.98929
483.04639999999995	0.0	VITE	52	noun	list	2	13	match	vite	5	1	p	0.98929
484.09590000000003	0.0	+	52	noun	list	2	14	match	vite	5	1	p	0.98929
484.03559999999993	0.0	[response]	52	noun	list	2	15	match	vite	5	1	p	0.98929
485.4453	0.0	+	53	verb	phrase	2	1	match	rouler	5	1	p	0.84592
485.995	0.2	lfdwpj	53	verb	phrase	2	2	match	rouler	5	1	p	0.84592
486.19489999999996	0.0	+	53	verb	phrase	2	3	match	rouler	5	1	p	0.84592
486.59479999999996	0.2	dxcb	53	verb	phrase	2	4	match	rouler	5	1	p	0.84592
486.79470000000003	0.0	+	53	verb	phrase	2	5	match	rouler	5	1	p	0.84592
487.19449999999995	0.2	fhgp	53	verb	phrase	2	6	match	rouler	5	1	p	0.84592
487.3944	0.0	+	53	verb	phrase	2	7	match	rouler	5	1	p	0.84592
487.79419999999993	0.2	moins	53	verb	phrase	2	8	match	rouler	5	1	p	0.84592
488.0114	0.0	+	53	verb	phrase	2	9	match	rouler	5	1	p	0.84592
488.3945	0.2	rouler	53	verb	phrase	2	10	match	rouler	5	1	p	0.84592
488.59389999999996	0.0	+	53	verb	phrase	2	11	match	rouler	5	1	p	0.84592
488.9942	0.0	+	53	verb	phrase	2	12	match	rouler	5	1	p	0.84592
490.9928	0.0	ROULER	53	verb	phrase	2	13	match	rouler	5	1	p	0.84592
491.943	0.0	+	53	verb	phrase	2	14	match	rouler	5	1	p	0.84592
491.8387	0.0	[response]	53	verb	phrase	2	15	match	rouler	5	1	p	0.84592
493.3917	0.0	+	54	verb	list	4	1	match	blanc	5	0	TIMEOUT	-1.0
493.94139999999993	0.2	hvfk	54	verb	list	4	2	match	blanc	5	0	TIMEOUT	-1.0
494.1413	0.0	+	54	verb	list	4	3	match	blanc	5	0	TIMEOUT	-1.0
494.54110000000003	0.2	paul	54	verb	list	4	4	match	blanc	5	0	TIMEOUT	-1.0
494.74109999999996	0.0	+	54	verb	list	4	5	match	blanc	5	0	TIMEOUT	-1.0
495.14160000000004	0.2	son	54	verb	list	4	6	match	blanc	5	0	TIMEOUT	-1.0
495.35759999999993	0.0	+	54	verb	list	4	7	match	blanc	5	0	TIMEOUT	-1.0
495.7413	0.2	plonger	54	verb	list	4	8	match	blanc	5	0	TIMEOUT	-1.0
495.94089999999994	0.0	+	54	verb	list	4	9	match	blanc	5	0	TIMEOUT	-1.0
496.34029999999996	0.2	blanc	54	verb	list	4	10	match	blanc	5	0	TIMEOUT	-1.0
496.5403	0.0	+	54	verb	list	4	11	match	blanc	5	0	TIMEOUT	-1.0
496.94010000000003	0.0	+	54	verb	list	4	12	match	blanc	5	0	TIMEOUT	-1.0
498.9393	0.0	BLANC	54	verb	list	4	13	match	blanc	5	0	TIMEOUT	-1.0
501.33809999999994	0.0	+	55	verb	phrase	2	1	nomatch	plus	-1	1	y	2.0477
501.93780000000004	0.2	ntlmxdj	55	verb	phrase	2	2	nomatch	plus	-1	1	y	2.0477
502.1377	0.0	+	55	verb	phrase	2	3	nomatch	plus	-1	1	y	2.0477
502.5375	0.2	zbkp	55	verb	phrase	2	4	nomatch	plus	-1	1	y	2.0477
502.7374	0.0	+	55	verb	phrase	2	5	nomatch	plus	-1	1	y	2.0477
503.1373	0.2	tk	55	verb	phrase	2	6	nomatch	plus	-1	1	y	2.0477
503.33719999999994	0.0	+	55	verb	phrase	2	7	nomatch	plus	-1	1	y	2.0477
503.73699999999997	0.2	beaucoup	55	verb	phrase	2	8	nomatch	plus	-1	1	y	2.0477
503.93690000000004	0.0	+	55	verb	phrase	2	9	nomatch	plus	-1	1	y	2.0477
504.33669999999995	0.2	voyager	55	verb	phrase	2	10	nomatch	plus	-1	1	y	2.0477
504.5366	0.0	+	55	verb	phrase	2	11	nomatch	plus	-1	1	y	2.0477
504.937	0.0	+	55	verb	phrase	2	12	nomatch	plus	-1	1	y	2.0477
506.93549999999993	0.0	PLUS	55	verb	phrase	2	13	nomatch	plus	-1	1	y	2.0477
509.03459999999995	0.0	+	55	verb	phrase	2	14	nomatch	plus	-1	1	y	2.0477
508.9833	0.0	[response]	55	verb	phrase	2	15	nomatch	plus	-1	1	y	2.0477
517.3475	0.0	+	56	verb	phrase	3	1	nomatch	grand	-1	1	y	0.93137
517.8972	0.2	gdmstv	56	verb	phrase	3	2	nomatch	grand	-1	1	y	0.93137
518.0971	0.0	+	56	verb	phrase	3	3	nomatch	grand	-1	1	y	0.93137
518.497	0.2	vhfx	56	verb	phrase	3	4	nomatch	grand	-1	1	y	0.93137
518.6969	0.0	+	56	verb	phrase	3	5	nomatch	grand	-1	1	y	0.93137
519.0966999999999	0.2	peut	56	verb	phrase	3	6	nomatch	grand	-1	1	y	0.93137
519.2966	0.0	+	56	verb	phrase	3	7	nomatch	grand	-1	1	y	0.93137
519.6964	0.2	plonger	56	verb	phrase	3	8	nomatch	grand	-1	1	y	0.93137
519.8963	0.0	+	56	verb	phrase	3	9	nomatch	grand	-1	1	y	0.93137
520.2968999999999	0.2	vite	56	verb	phrase	3	10	nomatch	grand	-1	1	y	0.93137
520.5133999999999	0.0	+	56	verb	phrase	3	11	nomatch	grand	-1	1	y	0.93137
520.8966	0.0	+	56	verb	phrase	3	12	nomatch	grand	-1	1	y	0.93137
522.895	0.0	GRAND	56	verb	phrase	3	13	nomatch	grand	-1	1	y	0.93137
523.8779	0.0	+	56	verb	phrase	3	14	nomatch	grand	-1	1	y	0.93137
523.8263	0.0	[response]	56	verb	phrase	3	15	nomatch	grand	-1	1	y	0.93137
525.2939	0.0	+	57	verb	list	3	1	match	rouler	4	1	p	0.61083
525.8436	0.2	wqgb	57	verb	list	3	2	match	rouler	4	1	p	0.61083
526.0435	0.0	+	57	verb	list	3	3	match	rouler	4	1	p	0.61083
526.4434	0.2	dvjc	57	verb	list	3	4	match	rouler	4	1	p	0.61083
526.6605999999999	0.0	+	57	verb	list	3	5	match	rouler	4	1	p	0.61083
527.0438	0.2	leur	57	verb	list	3	6	match	rouler	4	1	p	0.61083
527.2429999999999	0.0	+	57	verb	list	3	7	match	rouler	4	1	p	0.61083
527.6428	0.2	rouler	57	verb	list	3	8	match	rouler	4	1	p	0.61083
527.8427	0.0	+	57	verb	list	3	9	match	rouler	4	1	p	0.61083
528.2425	0.2	bleu	57	verb	list	3	10	match	rouler	4	1	p	0.61083
528.4425	0.0	+	57	verb	list	3	11	match	rouler	4	1	p	0.61083
528.8423	0.0	+	57	verb	list	3	12	match	rouler	4	1	p	0.61083
530.8414	0.0	ROULER	57	verb	list	3	13	match	rouler	4	1	p	0.61083
531.5077	0.0	+	57	verb	list	3	14	match	rouler	4	1	p	0.61083
531.4522	0.0	[response]	57	verb	list	3	15	match	rouler	4	1	p	0.61083
533.2402999999999	0.0	+	58	verb	list	2	1	match	jongler	4	1	p	0.99972
533.79	0.2	cgxqr	58	verb	list	2	2	match	jongler	4	1	p	0.99972
533.9899	0.0	+	58	verb	list	2	3	match	jongler	4	1	p	0.99972
534.3898	0.2	vhfx	58	verb	list	2	4	match	jongler	4	1	p	0.99972
534.5897	0.0	+	58	verb	list	2	5	match	jongler	4	1	p	0.99972
534.9895	0.2	smx	58	verb	list	2	6	match	jongler	4	1	p	0.99972
535.1894	0.0	+	58	verb	list	2	7	match	jongler	4	1	p	0.99972
535.5892	0.2	jongler	58	verb	list	2	8	match	jongler	4	1	p	0.99972
535.7895	0.0	+	58	verb	list	2	9	match	jongler	4	1	p	0.99972
536.1890999999999	0.2	noir	58	verb	list	2	10	match	jongler	4	1	p	0.99972
536.3889	0.0	+	58	verb	list	2	11	match	jongler	4	1	p	0.99972
536.7887	0.0	+	58	verb	list	2	12	match	jongler	4	1	p	0.99972
538.7884	0.0	JONGLER	58	verb	list	2	13	match	jongler	4	1	p	0.99972
539.8539	0.0	+	58	verb	list	2	14	match	jongler	4	1	p	0.99972
539.7882000000001	0.0	[response]	58	verb	list	2	15	match	jongler	4	1	p	0.99972
541.1867	0.0	+	59	verb	phrase	1	1	match	mieux	5	1	p	0.61033
541.7364	0.2	xhdzc	59	verb	phrase	1	2	match	mieux	5	1	p	0.61033
541.9363	0.0	+	59	verb	phrase	1	3	match	mieux	5	1	p	0.61033
542.3362	0.2	bzsw	59	verb	phrase	1	4	match	mieux	5	1	p	0.61033
542.5361	0.0	+	59	verb	phrase	1	5	match	mieux	5	1	p	0.61033
542.9359	0.2	kqfr	59	verb	phrase	1	6	match	mieux	5	1	p	0.61033
543.1364	0.0	+	59	verb	phrase	1	7	match	mieux	5	1	p	0.61033
543.5355999999999	0.2	dvqjwc	59	verb	phrase	1	8	match	mieux	5	1	p	0.61033
543.7524	0.0	+	59	verb	phrase	1	9	match	mieux	5	1	p	0.61033
544.1353	0.2	mieux	59	verb	phrase	1	10	match	mieux	5	1	p	0.61033
544.3352	0.0	+	59	verb	phrase	1	11	match	mieux	5	1	p	0.61033
544.7351	0.0	+	59	verb	phrase	1	12	match	mieux	5	1	p	0.61033
546.751	0.0	MIEUX	59	verb	phrase	1	13	match	mieux	5	1	p	0.61033
547.4839	0.0	+	59	verb	phrase	1	14	match	mieux	5	1	p	0.61033
547.3613	0.0	[response]	59	verb	phrase	1	15	match	mieux	5	1	p	0.61033
549.1496999999999	0.0	+	60	noun	phrase	2	1	match	beau	4	1	p	1.2863
549.6995	0.2	blpm	60	noun	phrase	2	2	match	beau	4	1	p	1.2863
549.8994	0.0	+	60	noun	phrase	2	3	match	beau	4	1	p	1.2863
550.2991999999999	0.2	gbpz	60	noun	phrase	2	4	match	beau	4	1	p	1.2863
550.4991	0.0	+	60	noun	phrase	2	5	match	beau	4	1	p	1.2863
550.8989	0.2	pqk	60	noun	phrase	2	6	match	beau	4	1	p	1.2863
551.0989	0.0	+	60	noun	phrase	2	7	match	beau	4	1	p	1.2863
551.4987	0.2	beau	60	noun	phrase	2	8	match	beau	4	1	p	1.2863
551.6992	0.0	+	60	noun	phrase	2	9	match	beau	4	1	p	1.2863
552.0988	0.2	rocher	60	noun	phrase	2	10	match	beau	4	1	p	1.2863
552.2989	0.0	+	60	noun	phrase	2	11	match	beau	4	1	p	1.2863
552.6981	0.0	+	60	noun	phrase	2	12	match	beau	4	1	p	1.2863
554.6972	0.0	BEAU	60	noun	phrase	2	13	match	beau	4	1	p	1.2863
556.047	0.0	+	60	noun	phrase	2	14	match	beau	4	1	p	1.2863
555.9836	0.0	[response]	60	noun	phrase	2	15	match	beau	4	1	p	1.2863
557.0961	0.0	+	61	verb	list	2	1	match	plonger	5	1	p	0.80883
557.6459	0.2	cklnxjw	61	verb	list	2	2	match	plonger	5	1	p	0.80883
557.8457999999999	0.0	+	61	verb	list	2	3	match	plonger	5	1	p	0.80883
558.2456	0.2	mrlw	61	verb	list	2	4	match	plonger	5	1	p	0.80883
558.4455	0.0	+	61	verb	list	2	5	match	plonger	5	1	p	0.80883
558.8455	0.2	fhgp	61	verb	list	2	6	match	plonger	5	1	p	0.80883
559.0453	0.0	+	61	verb	list	2	7	match	plonger	5	1	p	0.80883
559.4457	0.2	grand	61	verb	list	2	8	match	plonger	5	1	p	0.80883
559.6453	0.0	+	61	verb	list	2	9	match	plonger	5	1	p	0.80883
560.0448	0.2	plonger	61	verb	list	2	10	match	plonger	5	1	p	0.80883
560.2447	0.0	+	61	verb	list	2	11	match	plonger	5	1	p	0.80883
560.6445	0.0	+	61	verb	list	2	12	match	plonger	5	1	p	0.80883
562.6609	0.0	PLONGER	61	verb	list	2	13	match	plonger	5	1	p	0.80883
563.5772	0.0	+	61	verb	list	2	14	match	plonger	5	1	p	0.80883
563.4698	0.0	[response]	61	verb	list	2	15	match	plonger	5	1	p	0.80883
573.0389	0.0	+	62	noun	list	1	1	nomatch	clavier	-1	1	y	1.8955
573.5887	0.2	hsn	62	noun	list	1	2	nomatch	clavier	-1	1	y	1.8955
573.7886	0.0	+	62	noun	list	1	3	nomatch	clavier	-1	1	y	1.8955
574.1884	0.2	hrjc	62	noun	list	1	4	nomatch	clavier	-1	1	y	1.8955
574.3883	0.0	+	62	noun	list	1	5	nomatch	clavier	-1	1	y	1.8955
574.7881	0.2	tk	62	noun	list	1	6	nomatch	clavier	-1	1	y	1.8955
574.9879999999999	0.0	+	62	noun	list	1	7	nomatch	clavier	-1	1	y	1.8955
575.3879	0.2	qrc	62	noun	list	1	8	nomatch	clavier	-1	1	y	1.8955
575.5878	0.0	+	62	noun	list	1	9	nomatch	clavier	-1	1	y	1.8955
575.9875999999999	0.2	grenier	62	noun	list	1	10	nomatch	clavier	-1	1	y	1.8955
576.1875	0.0	+	62	noun	list	1	11	nomatch	clavier	-1	1	y	1.8955
576.5873	0.0	+	62	noun	list	1	12	nomatch	clavier	-1	1	y	1.8955
578.5864	0.0	CLAVIER	62	noun	list	1	13	nomatch	clavier	-1	1	y	1.8955
580.5355	0.0	+	62	noun	list	1	14	nomatch	clavier	-1	1	y	1.8955
580.4819	0.0	[response]	62	noun	list	1	15	nomatch	clavier	-1	1	y	1.8955
580.9852999999999	0.0	+	63	verb	list	1	1	match	beau	5	1	p	0.7479200000000001
581.5350999999999	0.2	bqk	63	verb	list	1	2	match	beau	5	1	p	0.7479200000000001
581.735	0.0	+	63	verb	list	1	3	match	beau	5	1	p	0.7479200000000001
582.1347999999999	0.2	gbpz	63	verb	list	1	4	match	beau	5	1	p	0.7479200000000001
582.3347	0.0	+	63	verb	list	1	5	match	beau	5	1	p	0.7479200000000001
582.7345	0.2	fhgp	63	verb	list	1	6	match	beau	5	1	p	0.7479200000000001
582.9344	0.0	+	63	verb	list	1	7	match	beau	5	1	p	0.7479200000000001
583.3342	0.2	cstmb	63	verb	list	1	8	match	beau	5	1	p	0.7479200000000001
583.5341	0.0	+	63	verb	list	1	9	match	beau	5	1	p	0.7479200000000001
583.934	0.2	beau	63	verb	list	1	10	match	beau	5	1	p	0.7479200000000001
584.1339	0.0	+	63	verb	list	1	11	match	beau	5	1	p	0.7479200000000001
584.5341	0.0	+	63	verb	list	1	12	match	beau	5	1	p	0.7479200000000001
586.5495	0.0	BEAU	63	verb	list	1	13	match	beau	5	1	p	0.7479200000000001
587.3657	0.0	+	63	verb	list	1	14	match	beau	5	1	p	0.7479200000000001
587.2974	0.0	[response]	63	verb	list	1	15	match	beau	5	1	p	0.7479200000000001
588.9484	0.0	+	64	verb	phrase	4	1	nomatch	jean	-1	1	y	1.2069
589.4981	0.2	ksgjvrd	64	verb	phrase	4	2	nomatch	jean	-1	1	y	1.2069
589.698	0.0	+	64	verb	phrase	4	3	nomatch	jean	-1	1	y	1.2069
590.0982	0.2	yves	64	verb	phrase	4	4	nomatch	jean	-1	1	y	1.2069
590.2979	0.0	+	64	verb	phrase	4	5	nomatch	jean	-1	1	y	1.2069
590.6981999999999	0.2	va	64	verb	phrase	4	6	nomatch	jean	-1	1	y	1.2069
590.8978999999999	0.0	+	64	verb	phrase	4	7	nomatch	jean	-1	1	y	1.2069
591.2973	0.2	nager	64	verb	phrase	4	8	nomatch	jean	-1	1	y	1.2069
591.4972	0.0	+	64	verb	phrase	4	9	nomatch	jean	-1	1	y	1.2069
591.8969999999999	0.2	vite	64	verb	phrase	4	10	nomatch	jean	-1	1	y	1.2069
592.0969	0.0	+	64	verb	phrase	4	11	nomatch	jean	-1	1	y	1.2069
592.4968	0.0	+	64	verb	phrase	4	12	nomatch	jean	-1	1	y	1.2069
594.4965	0.0	JEAN	64	verb	phrase	4	13	nomatch	jean	-1	1	y	1.2069
595.762	0.0	+	64	verb	phrase	4	14	nomatch	jean	-1	1	y	1.2069
595.7034	0.0	[response]	64	verb	phrase	4	15	nomatch	jean	-1	1	y	1.2069
604.8912	0.0	+	65	verb	phrase	1	1	nomatch	doit	-1	1	y	0.7094
605.4412	0.2	mlr	65	verb	phrase	1	2	nomatch	doit	-1	1	y	0.7094
605.6409	0.0	+	65	verb	phrase	1	3	nomatch	doit	-1	1	y	0.7094
606.0579	0.2	mkxz	65	verb	phrase	1	4	nomatch	doit	-1	1	y	0.7094
606.2579	0.0	+	65	verb	phrase	1	5	nomatch	doit	-1	1	y	0.7094
606.6404	0.2	fhgp	65	verb	phrase	1	6	nomatch	doit	-1	1	y	0.7094
606.8403	0.0	+	65	verb	phrase	1	7	nomatch	doit	-1	1	y	0.7094
607.2401	0.2	hqxbpwsz	65	verb	phrase	1	8	nomatch	doit	-1	1	y	0.7094
607.4399999999999	0.0	+	65	verb	phrase	1	9	nomatch	doit	-1	1	y	0.7094
607.8398	0.2	jongler	65	verb	phrase	1	10	nomatch	doit	-1	1	y	0.7094
608.0397	0.0	+	65	verb	phrase	1	11	nomatch	doit	-1	1	y	0.7094
608.4395	0.0	+	65	verb	phrase	1	12	nomatch	doit	-1	1	y	0.7094
610.4390999999999	0.0	DOIT	65	verb	phrase	1	13	nomatch	doit	-1	1	y	0.7094
611.2386	0.0	+	65	verb	phrase	1	14	nomatch	doit	-1	1	y	0.7094
611.1485	0.0	[response]	65	verb	phrase	1	15	nomatch	doit	-1	1	y	0.7094
620.9179	0.0	+	66	verb	phrase	4	1	nomatch	galoper	-1	1	y	0.85267
621.3842	0.2	tlmrg	66	verb	phrase	4	2	nomatch	galoper	-1	1	y	0.85267
621.5835999999999	0.0	+	66	verb	phrase	4	3	nomatch	galoper	-1	1	y	0.85267
622.0001	0.2	marc	66	verb	phrase	4	4	nomatch	galoper	-1	1	y	0.85267
622.2007	0.0	+	66	verb	phrase	4	5	nomatch	galoper	-1	1	y	0.85267
622.6001	0.2	peut	66	verb	phrase	4	6	nomatch	galoper	-1	1	y	0.85267
622.8168	0.0	+	66	verb	phrase	4	7	nomatch	galoper	-1	1	y	0.85267
623.2002	0.2	trop	66	verb	phrase	4	8	nomatch	galoper	-1	1	y	0.85267
623.4	0.0	+	66	verb	phrase	4	9	nomatch	galoper	-1	1	y	0.85267
623.7991999999999	0.2	plonger	66	verb	phrase	4	10	nomatch	galoper	-1	1	y	0.85267
623.9991	0.0	+	66	verb	phrase	4	11	nomatch	galoper	-1	1	y	0.85267
624.399	0.0	+	66	verb	phrase	4	12	nomatch	galoper	-1	1	y	0.85267
626.3981	0.0	GALOPER	66	verb	phrase	4	13	nomatch	galoper	-1	1	y	0.85267
627.3647	0.0	+	66	verb	phrase	4	14	nomatch	galoper	-1	1	y	0.85267
627.2506999999999	0.0	[response]	66	verb	phrase	4	15	nomatch	galoper	-1	1	y	0.85267
628.797	0.0	+	67	verb	phrase	1	1	nomatch	moins	-1	1	y	1.6215
629.3466999999999	0.2	mqbdtf	67	verb	phrase	1	2	nomatch	moins	-1	1	y	1.6215
629.5466	0.0	+	67	verb	phrase	1	3	nomatch	moins	-1	1	y	1.6215
629.9469	0.2	glv	67	verb	phrase	1	4	nomatch	moins	-1	1	y	1.6215
630.1469999999999	0.0	+	67	verb	phrase	1	5	nomatch	moins	-1	1	y	1.6215
630.5463	0.2	tk	67	verb	phrase	1	6	nomatch	moins	-1	1	y	1.6215
630.7468	0.0	+	67	verb	phrase	1	7	nomatch	moins	-1	1	y	1.6215
631.146	0.2	xvprhjt	67	verb	phrase	1	8	nomatch	moins	-1	1	y	1.6215
631.3457999999999	0.0	+	67	verb	phrase	1	9	nomatch	moins	-1	1	y	1.6215
631.7456	0.2	plus	67	verb	phrase	1	10	nomatch	moins	-1	1	y	1.6215
631.9456	0.0	+	67	verb	phrase	1	11	nomatch	moins	-1	1	y	1.6215
632.3454	0.0	+	67	verb	phrase	1	12	nomatch	moins	-1	1	y	1.6215
634.3445	0.0	MOINS	67	verb	phrase	1	13	nomatch	moins	-1	1	y	1.6215
636.0269999999999	0.0	+	67	verb	phrase	1	14	nomatch	moins	-1	1	y	1.6215
635.9659000000001	0.0	[response]	67	verb	phrase	1	15	nomatch	moins	-1	1	y	1.6215
636.7434	0.0	+	68	verb	list	1	1	nomatch	vert	-1	1	y	1.8782
637.2931	0.2	rxsb	68	verb	list	1	2	nomatch	vert	-1	1	y	1.8782
637.4929999999999	0.0	+	68	verb	list	1	3	nomatch	vert	-1	1	y	1.8782
637.8928999999999	0.2	bzsw	68	verb	list	1	4	nomatch	vert	-1	1	y	1.8782
638.0928	0.0	+	68	verb	list	1	5	nomatch	vert	-1	1	y	1.8782
638.4926	0.2	rgnb	68	verb	list	1	6	nomatch	vert	-1	1	y	1.8782
638.6925	0.0	+	68	verb	list	1	7	nomatch	vert	-1	1	y	1.8782
639.0923	0.2	bwgs	68	verb	list	1	8	nomatch	vert	-1	1	y	1.8782
639.2922	0.0	+	68	verb	list	1	9	nomatch	vert	-1	1	y	1.8782
639.6922999999999	0.2	patiner	68	verb	list	1	10	nomatch	vert	-1	1	y	1.8782
639.8921	0.0	+	68	verb	list	1	11	nomatch	vert	-1	1	y	1.8782
640.3091	0.0	+	68	verb	list	1	12	nomatch	vert	-1	1	y	1.8782
642.3081999999999	0.0	VERT	68	verb	list	1	13	nomatch	vert	-1	1	y	1.8782
644.24	0.0	+	68	verb	list	1	14	nomatch	vert	-1	1	y	1.8782
644.1863999999999	0.0	[response]	68	verb	list	1	15	nomatch	vert	-1	1	y	1.8782
644.6898	0.0	+	69	verb	list	3	1	nomatch	petit	-1	1	y	1.1599
645.2395	0.2	pckmn	69	verb	list	3	2	nomatch	petit	-1	1	y	1.1599
645.4394	0.0	+	69	verb	list	3	3	nomatch	petit	-1	1	y	1.1599
645.8393	0.2	mkxz	69	verb	list	3	4	nomatch	petit	-1	1	y	1.1599
646.0391999999999	0.0	+	69	verb	list	3	5	nomatch	petit	-1	1	y	1.1599
646.439	0.2	leur	69	verb	list	3	6	nomatch	petit	-1	1	y	1.1599
646.6389	0.0	+	69	verb	list	3	7	nomatch	petit	-1	1	y	1.1599
647.0387	0.2	jongler	69	verb	list	3	8	nomatch	petit	-1	1	y	1.1599
647.2386	0.0	+	69	verb	list	3	9	nomatch	petit	-1	1	y	1.1599
647.6391	0.2	bleu	69	verb	list	3	10	nomatch	petit	-1	1	y	1.1599
647.8388	0.0	+	69	verb	list	3	11	nomatch	petit	-1	1	y	1.1599
648.2382	0.0	+	69	verb	list	3	12	nomatch	petit	-1	1	y	1.1599
650.2543	0.0	PETIT	69	verb	list	3	13	nomatch	petit	-1	1	y	1.1599
651.5035	0.0	+	69	verb	list	3	14	nomatch	petit	-1	1	y	1.1599
651.4141999999999	0.0	[response]	69	verb	list	3	15	nomatch	petit	-1	1	y	1.1599
652.6362	0.0	+	70	verb	phrase	1	1	nomatch	loin	-1	1	y	1.6598
653.1859	0.2	swdm	70	verb	phrase	1	2	nomatch	loin	-1	1	y	1.6598
653.3858	0.0	+	70	verb	phrase	1	3	nomatch	loin	-1	1	y	1.6598
653.7857	0.2	zbkp	70	verb	phrase	1	4	nomatch	loin	-1	1	y	1.6598
653.9856	0.0	+	70	verb	phrase	1	5	nomatch	loin	-1	1	y	1.6598
654.3854	0.2	tk	70	verb	phrase	1	6	nomatch	loin	-1	1	y	1.6598
654.5853	0.0	+	70	verb	phrase	1	7	nomatch	loin	-1	1	y	1.6598
654.9851	0.2	cstmb	70	verb	phrase	1	8	nomatch	loin	-1	1	y	1.6598
655.185	0.0	+	70	verb	phrase	1	9	nomatch	loin	-1	1	y	1.6598
655.5853	0.2	vite	70	verb	phrase	1	10	nomatch	loin	-1	1	y	1.6598
655.8017	0.0	+	70	verb	phrase	1	11	nomatch	loin	-1	1	y	1.6598
656.1849	0.0	+	70	verb	phrase	1	12	nomatch	loin	-1	1	y	1.6598
658.1836999999999	0.0	LOIN	70	verb	phrase	1	13	nomatch	loin	-1	1	y	1.6598
659.8995	0.0	+	70	verb	phrase	1	14	nomatch	loin	-1	1	y	1.6598
659.8435	0.0	[response]	70	verb	phrase	1	15	nomatch	loin	-1	1	y	1.6598
668.5956	0.0	+	71	verb	phrase	3	1	nomatch	plus	-1	1	y	0.80126
669.1454	0.2	dxpkvsl	71	verb	phrase	3	2	nomatch	plus	-1	1	y	0.80126
669.3457	0.0	+	71	verb	phrase	3	3	nomatch	plus	-1	1	y	0.80126
669.7456999999999	0.2	dxcb	71	verb	phrase	3	4	nomatch	plus	-1	1	y	0.80126
669.9455	0.0	+	71	verb	phrase	3	5	nomatch	plus	-1	1	y	0.80126
670.345	0.2	va	71	verb	phrase	3	6	nomatch	plus	-1	1	y	0.80126
670.5450999999999	0.0	+	71	verb	phrase	3	7	nomatch	plus	-1	1	y	0.80126
670.9445	0.2	patiner	71	verb	phrase	3	8	nomatch	plus	-1	1	y	0.80126
671.1445	0.0	+	71	verb	phrase	3	9	nomatch	plus	-1	1	y	0.80126
671.5443	0.2	ainsi	71	verb	phrase	3	10	nomatch	plus	-1	1	y	0.80126
671.7442	0.0	+	71	verb	phrase	3	11	nomatch	plus	-1	1	y	0.80126
672.144	0.0	+	71	verb	phrase	3	12	nomatch	plus	-1	1	y	0.80126
674.1432	0.0	PLUS	71	verb	phrase	3	13	nomatch	plus	-1	1	y	0.80126
675.0101	0.0	+	71	verb	phrase	3	14	nomatch	plus	-1	1	y	0.80126
674.9444	0.0	[response]	71	verb	phrase	3	15	nomatch	plus	-1	1	y	0.80126
676.542	0.0	+	72	verb	list	1	1	match	rouge	5	1	p	0.74987
677.0918	0.2	rcl	72	verb	list	1	2	match	rouge	5	1	p	0.74987
677.2917	0.0	+	72	verb	list	1	3	match	rouge	5	1	p	0.74987
677.6915	0.2	mkxz	72	verb	list	1	4	match	rouge	5	1	p	0.74987
677.8914	0.0	+	72	verb	list	1	5	match	rouge	5	1	p	0.74987
678.2912	0.2	smx	72	verb	list	1	6	match	rouge	5	1	p	0.74987
678.4911	0.0	+	72	verb	list	1	7	match	rouge	5	1	p	0.74987
678.8909	0.2	jqmbhvf	72	verb	list	1	8	match	rouge	5	1	p	0.74987
679.0912	0.0	+	72	verb	list	1	9	match	rouge	5	1	p	0.74987
679.4907	0.2	rouge	72	verb	list	1	10	match	rouge	5	1	p	0.74987
679.6908999999999	0.0	+	72	verb	list	1	11	match	rouge	5	1	p	0.74987
680.0911	0.0	+	72	verb	list	1	12	match	rouge	5	1	p	0.74987
682.0902	0.0	ROUGE	72	verb	list	1	13	match	rouge	5	1	p	0.74987
682.9058	0.0	+	72	verb	list	1	14	match	rouge	5	1	p	0.74987
682.84	0.0	[response]	72	verb	list	1	15	match	rouge	5	1	p	0.74987
692.4848	0.0	+	73	noun	list	1	1	match	clavier	5	1	p	0.705
693.0345	0.2	rxpdlj	73	noun	list	1	2	match	clavier	5	1	p	0.705
693.2351	0.0	+	73	noun	list	1	3	match	clavier	5	1	p	0.705
693.6347999999999	0.2	gjml	73	noun	list	1	4	match	clavier	5	1	p	0.705
693.8348	0.0	+	73	noun	list	1	5	match	clavier	5	1	p	0.705
694.2343999999999	0.2	tk	73	noun	list	1	6	match	clavier	5	1	p	0.705
694.4345	0.0	+	73	noun	list	1	7	match	clavier	5	1	p	0.705
694.8337	0.2	jbcx	73	noun	list	1	8	match	clavier	5	1	p	0.705
695.0336	0.0	+	73	noun	list	1	9	match	clavier	5	1	p	0.705
695.4501	0.2	clavier	73	noun	list	1	10	match	clavier	5	1	p	0.705
695.6501	0.0	+	73	noun	list	1	11	match	clavier	5	1	p	0.705
696.0498	0.0	+	73	noun	list	1	12	match	clavier	5	1	p	0.705
698.0658999999999	0.0	CLAVIER	73	noun	list	1	13	match	clavier	5	1	p	0.705
698.8489999999999	0.0	+	73	noun	list	1	14	match	clavier	5	1	p	0.705
698.7709	0.0	[response]	73	noun	list	1	15	match	clavier	5	1	p	0.705
708.4442	0.0	+	74	verb	list	1	1	match	danser	5	1	p	0.68769
708.994	0.2	kzmvd	74	verb	list	1	2	match	danser	5	1	p	0.68769
709.1939	0.0	+	74	verb	list	1	3	match	danser	5	1	p	0.68769
709.5937	0.2	dzq	74	verb	list	1	4	match	danser	5	1	p	0.68769
709.7936	0.0	+	74	verb	list	1	5	match	danser	5	1	p	0.68769
710.1939	0.2	fhgp	74	verb	list	1	6	match	danser	5	1	p	0.68769
710.4103	0.0	+	74	verb	list	1	7	match	danser	5	1	p	0.68769
710.8098	0.2	gvlmd	74	verb	list	1	8	match	danser	5	1	p	0.68769
710.9935	0.0	+	74	verb	list	1	9	match	danser	5	1	p	0.68769
711.3928999999999	0.2	danser	74	verb	list	1	10	match	danser	5	1	p	0.68769
711.5928	0.0	+	74	verb	list	1	11	match	danser	5	1	p	0.68769
711.9926	0.0	+	74	verb	list	1	12	match	danser	5	1	p	0.68769
713.9917	0.0	DANSER	74	verb	list	1	13	match	danser	5	1	p	0.68769
714.7414	0.0	+	74	verb	list	1	14	match	danser	5	1	p	0.68769
714.6794	0.0	[response]	74	verb	list	1	15	match	danser	5	1	p	0.68769
716.3906	0.0	+	75	verb	phrase	1	1	nomatch	panier	-1	1	y	1.3407
716.9404	0.2	lmwndx	75	verb	phrase	1	2	nomatch	panier	-1	1	y	1.3407
717.1403	0.0	+	75	verb	phrase	1	3	nomatch	panier	-1	1	y	1.3407
717.5400999999999	0.2	bzsw	75	verb	phrase	1	4	nomatch	panier	-1	1	y	1.3407
717.74	0.0	+	75	verb	phrase	1	5	nomatch	panier	-1	1	y	1.3407
718.1398	0.2	tk	75	verb	phrase	1	6	nomatch	panier	-1	1	y	1.3407
718.3397	0.0	+	75	verb	phrase	1	7	nomatch	panier	-1	1	y	1.3407
718.7395	0.2	dvqjwc	75	verb	phrase	1	8	nomatch	panier	-1	1	y	1.3407
718.9395	0.0	+	75	verb	phrase	1	9	nomatch	panier	-1	1	y	1.3407
719.34	0.2	vite	75	verb	phrase	1	10	nomatch	panier	-1	1	y	1.3407
719.5563999999999	0.0	+	75	verb	phrase	1	11	nomatch	panier	-1	1	y	1.3407
719.9394	0.0	+	75	verb	phrase	1	12	nomatch	panier	-1	1	y	1.3407
721.9381	0.0	PANIER	75	verb	phrase	1	13	nomatch	panier	-1	1	y	1.3407
723.3375	0.0	+	75	verb	phrase	1	14	nomatch	panier	-1	1	y	1.3407
723.2788	0.0	[response]	75	verb	phrase	1	15	nomatch	panier	-1	1	y	1.3407
724.337	0.0	+	76	verb	phrase	4	1	nomatch	nouveau	-1	1	y	1.6853
724.8868	0.2	zmnpbhq	76	verb	phrase	4	2	nomatch	nouveau	-1	1	y	1.6853
725.0867	0.0	+	76	verb	phrase	4	3	nomatch	nouveau	-1	1	y	1.6853
725.4866999999999	0.2	jean	76	verb	phrase	4	4	nomatch	nouveau	-1	1	y	1.6853
725.6863999999999	0.0	+	76	verb	phrase	4	5	nomatch	nouveau	-1	1	y	1.6853
726.0868	0.2	va	76	verb	phrase	4	6	nomatch	nouveau	-1	1	y	1.6853
726.2861	0.0	+	76	verb	phrase	4	7	nomatch	nouveau	-1	1	y	1.6853
726.686	0.2	moins	76	verb	phrase	4	8	nomatch	nouveau	-1	1	y	1.6853
726.8859	0.0	+	76	verb	phrase	4	9	nomatch	nouveau	-1	1	y	1.6853
727.2857	0.2	danser	76	verb	phrase	4	10	nomatch	nouveau	-1	1	y	1.6853
727.4856	0.0	+	76	verb	phrase	4	11	nomatch	nouveau	-1	1	y	1.6853
727.8854	0.0	+	76	verb	phrase	4	12	nomatch	nouveau	-1	1	y	1.6853
729.8845	0.0	NOUVEAU	76	verb	phrase	4	13	nomatch	nouveau	-1	1	y	1.6853
731.6337	0.0	+	76	verb	phrase	4	14	nomatch	nouveau	-1	1	y	1.6853
731.5698	0.0	[response]	76	verb	phrase	4	15	nomatch	nouveau	-1	1	y	1.6853
732.3000999999999	0.0	+	77	verb	phrase	3	1	match	voyager	5	1	p	1.0052
732.8498	0.2	jdnv	77	verb	phrase	3	2	match	voyager	5	1	p	1.0052
733.0497	0.0	+	77	verb	phrase	3	3	match	voyager	5	1	p	1.0052
733.4496	0.2	glv	77	verb	phrase	3	4	match	voyager	5	1	p	1.0052
733.6495	0.0	+	77	verb	phrase	3	5	match	voyager	5	1	p	1.0052
734.0493	0.2	peut	77	verb	phrase	3	6	match	voyager	5	1	p	1.0052
734.2492	0.0	+	77	verb	phrase	3	7	match	voyager	5	1	p	1.0052
734.649	0.2	mieux	77	verb	phrase	3	8	match	voyager	5	1	p	1.0052
734.8489	0.0	+	77	verb	phrase	3	9	match	voyager	5	1	p	1.0052
735.2487	0.2	voyager	77	verb	phrase	3	10	match	voyager	5	1	p	1.0052
735.4494	0.0	+	77	verb	phrase	3	11	match	voyager	5	1	p	1.0052
735.8489	0.0	+	77	verb	phrase	3	12	match	voyager	5	1	p	1.0052
737.8475999999999	0.0	VOYAGER	77	verb	phrase	3	13	match	voyager	5	1	p	1.0052
738.9637	0.0	+	77	verb	phrase	3	14	match	voyager	5	1	p	1.0052
738.8528	0.0	[response]	77	verb	phrase	3	15	match	voyager	5	1	p	1.0052
740.2465	0.0	+	78	verb	list	1	1	match	grand	5	1	p	0.7927200000000001
740.7962	0.2	nvtf	78	verb	list	1	2	match	grand	5	1	p	0.7927200000000001
740.9961	0.0	+	78	verb	list	1	3	match	grand	5	1	p	0.7927200000000001
741.3959	0.2	dzq	78	verb	list	1	4	match	grand	5	1	p	0.7927200000000001
741.5959	0.0	+	78	verb	list	1	5	match	grand	5	1	p	0.7927200000000001
741.9956999999999	0.2	fhgp	78	verb	list	1	6	match	grand	5	1	p	0.7927200000000001
742.1956	0.0	+	78	verb	list	1	7	match	grand	5	1	p	0.7927200000000001
742.5954	0.2	xvprhjt	78	verb	list	1	8	match	grand	5	1	p	0.7927200000000001
742.7953	0.0	+	78	verb	list	1	9	match	grand	5	1	p	0.7927200000000001
743.1957	0.2	grand	78	verb	list	1	10	match	grand	5	1	p	0.7927200000000001
743.3954	0.0	+	78	verb	list	1	11	match	grand	5	1	p	0.7927200000000001
743.7954	0.0	+	78	verb	list	1	12	match	grand	5	1	p	0.7927200000000001
745.794	0.0	GRAND	78	verb	list	1	13	match	grand	5	1	p	0.7927200000000001
746.6436	0.0	+	78	verb	list	1	14	match	grand	5	1	p	0.7927200000000001
746.5867000000001	0.0	[response]	78	verb	list	1	15	match	grand	5	1	p	0.7927200000000001
748.1929	0.0	+	79	verb	list	1	1	match	jongler	5	1	p	1.4701
748.7426	0.2	mhjblxd	79	verb	list	1	2	match	jongler	5	1	p	1.4701
748.9425	0.0	+	79	verb	list	1	3	match	jongler	5	1	p	1.4701
749.3424	0.2	mrlw	79	verb	list	1	4	match	jongler	5	1	p	1.4701
749.5423	0.0	+	79	verb	list	1	5	match	jongler	5	1	p	1.4701
749.9421	0.2	tk	79	verb	list	1	6	match	jongler	5	1	p	1.4701
750.1419999999999	0.0	+	79	verb	list	1	7	match	jongler	5	1	p	1.4701
750.5418	0.2	qpjc	79	verb	list	1	8	match	jongler	5	1	p	1.4701
750.7417	0.0	+	79	verb	list	1	9	match	jongler	5	1	p	1.4701
751.1587	0.2	jongler	79	verb	list	1	10	match	jongler	5	1	p	1.4701
751.3421	0.0	+	79	verb	list	1	11	match	jongler	5	1	p	1.4701
751.7418	0.0	+	79	verb	list	1	12	match	jongler	5	1	p	1.4701
753.7404	0.0	JONGLER	79	verb	list	1	13	match	jongler	5	1	p	1.4701
755.3565	0.0	+	79	verb	list	1	14	match	jongler	5	1	p	1.4701
755.2105	0.0	[response]	79	verb	list	1	15	match	jongler	5	1	p	1.4701
756.1392999999999	0.0	+	80	verb	list	1	1	nomatch	bleu	-1	0	TIMEOUT	-1.0
756.689	0.2	tjrbzx	80	verb	list	1	2	nomatch	bleu	-1	0	TIMEOUT	-1.0
756.8889	0.0	+	80	verb	list	1	3	nomatch	bleu	-1	0	TIMEOUT	-1.0
757.2888	0.2	vhfx	80	verb	list	1	4	nomatch	bleu	-1	0	TIMEOUT	-1.0
757.4887	0.0	+	80	verb	list	1	5	nomatch	bleu	-1	0	TIMEOUT	-1.0
757.8887	0.2	rgnb	80	verb	list	1	6	nomatch	bleu	-1	0	TIMEOUT	-1.0
758.0885999999999	0.0	+	80	verb	list	1	7	nomatch	bleu	-1	0	TIMEOUT	-1.0
758.4886	0.2	nhkgrd	80	verb	list	1	8	nomatch	bleu	-1	0	TIMEOUT	-1.0
758.6888	0.0	+	80	verb	list	1	9	nomatch	bleu	-1	0	TIMEOUT	-1.0
759.1052999999999	0.2	vert	80	verb	list	1	10	nomatch	bleu	-1	0	TIMEOUT	-1.0
759.2878	0.0	+	80	verb	list	1	11	nomatch	bleu	-1	0	TIMEOUT	-1.0
759.6877	0.0	+	80	verb	list	1	12	nomatch	bleu	-1	0	TIMEOUT	-1.0
761.6868	0.0	BLEU	80	verb	list	1	13	nomatch	bleu	-1	0	TIMEOUT	-1.0
764.0857	0.0	+	80	verb	list	1	14	nomatch	bleu	-1	0	TIMEOUT	-1.0
765.0019	0.0	+	80	verb	list	1	15	nomatch	bleu	-1	0	TIMEOUT	-1.0
765.1019	0.0	+	80	verb	list	1	16	nomatch	bleu	-1	0	TIMEOUT	-1.0
766.5013	0.0	+	80	verb	list	1	17	nomatch	bleu	-1	0	TIMEOUT	-1.0
766.6012	0.0	+	80	verb	list	1	18	nomatch	bleu	-1	0	TIMEOUT	-1.0
768.0006	0.0	+	80	verb	list	1	19	nomatch	bleu	-1	0	TIMEOUT	-1.0
768.1005	0.0	+	80	verb	list	1	20	nomatch	bleu	-1	0	TIMEOUT	-1.0
769.4999	0.0	+	80	verb	list	1	21	nomatch	bleu	-1	0	TIMEOUT	-1.0
769.5998	0.0	+	80	verb	list	1	22	nomatch	bleu	-1	0	TIMEOUT	-1.0
770.9992	0.0	+	80	verb	list	1	23	nomatch	bleu	-1	0	TIMEOUT	-1.0
771.0992	0.0	+	80	verb	list	1	24	nomatch	bleu	-1	0	TIMEOUT	-1.0
772.4985	0.0	+	80	verb	list	1	25	nomatch	bleu	-1	0	TIMEOUT	-1.0
772.5985	0.0	+	80	verb	list	1	26	nomatch	bleu	-1	0	TIMEOUT	-1.0
773.9978	0.0	+	80	verb	list	1	27	nomatch	bleu	-1	0	TIMEOUT	-1.0
774.0978	0.0	+	80	verb	list	1	28	nomatch	bleu	-1	0	TIMEOUT	-1.0
775.4972	0.0	+	80	verb	list	1	29	nomatch	bleu	-1	0	TIMEOUT	-1.0
775.5971	0.0	+	80	verb	list	1	30	nomatch	bleu	-1	0	TIMEOUT	-1.0
776.9965	0.0	+	80	verb	list	1	31	nomatch	bleu	-1	0	TIMEOUT	-1.0
777.0965	0.0	+	80	verb	list	1	32	nomatch	bleu	-1	0	TIMEOUT	-1.0
778.4958	0.0	+	80	verb	list	1	33	nomatch	bleu	-1	0	TIMEOUT	-1.0
778.5957999999999	0.0	+	80	verb	list	1	34	nomatch	bleu	-1	0	TIMEOUT	-1.0
786.9753	0.0	+	80	verb	list	1	35	nomatch	bleu	-1	0	TIMEOUT	-1.0
