onset	duration	stim	trial_number	trial_type	trial_structure	trial_length	sequential_position	probe_type	probe	probe_position	response_correct	response_key	response_time
0.05649999999999977	0.0	+	1	noun	phrase	1	1	nomatch	grenier	-1	1	p	0.60976
0.5397999999999996	0.2	hbfd	1	noun	phrase	1	2	nomatch	grenier	-1	1	p	0.60976
0.7397999999999954	0.0	+	1	noun	phrase	1	3	nomatch	grenier	-1	1	p	0.60976
1.139800000000001	0.2	dthz	1	noun	phrase	1	4	nomatch	grenier	-1	1	p	0.60976
1.3397999999999968	0.0	+	1	noun	phrase	1	5	nomatch	grenier	-1	1	p	0.60976
1.7396999999999991	0.2	fml	1	noun	phrase	1	6	nomatch	grenier	-1	1	p	0.60976
1.9396999999999949	0.0	+	1	noun	phrase	1	7	nomatch	grenier	-1	1	p	0.60976
2.3397000000000006	0.2	qbxmglz	1	noun	phrase	1	8	nomatch	grenier	-1	1	p	0.60976
2.5396999999999963	0.0	+	1	noun	phrase	1	9	nomatch	grenier	-1	1	p	0.60976
2.9395999999999987	0.2	blanc	1	noun	phrase	1	10	nomatch	grenier	-1	1	p	0.60976
3.1396000000000015	0.0	+	1	noun	phrase	1	11	nomatch	grenier	-1	1	p	0.60976
3.5396	0.0	+	1	noun	phrase	1	12	nomatch	grenier	-1	1	p	0.60976
5.5394000000000005	0.0	GRENIER	1	noun	phrase	1	13	nomatch	grenier	-1	1	p	0.60976
6.205999999999996	0.0	+	1	noun	phrase	1	14	nomatch	grenier	-1	1	p	0.60976
6.1492	0.0	[response]	1	noun	phrase	1	15	nomatch	grenier	-1	1	p	0.60976
7.9392	0.0	+	2	noun	phrase	1	1	match	petit	5	1	y	0.5364
8.489099999999993	0.2	flstvq	2	noun	phrase	1	2	match	petit	5	1	y	0.5364
8.689099999999996	0.0	+	2	noun	phrase	1	3	match	petit	5	1	y	0.5364
9.089100000000002	0.2	ckl	2	noun	phrase	1	4	match	petit	5	1	y	0.5364
9.289100000000005	0.0	+	2	noun	phrase	1	5	match	petit	5	1	y	0.5364
9.688999999999993	0.2	blzh	2	noun	phrase	1	6	match	petit	5	1	y	0.5364
9.888999999999996	0.0	+	2	noun	phrase	1	7	match	petit	5	1	y	0.5364
10.289000000000001	0.2	xpnkzqbr	2	noun	phrase	1	8	match	petit	5	1	y	0.5364
10.489000000000004	0.0	+	2	noun	phrase	1	9	match	petit	5	1	y	0.5364
10.888899999999992	0.2	petit	2	noun	phrase	1	10	match	petit	5	1	y	0.5364
11.088899999999995	0.0	+	2	noun	phrase	1	11	match	petit	5	1	y	0.5364
11.488900000000001	0.0	+	2	noun	phrase	1	12	match	petit	5	1	y	0.5364
13.488699999999994	0.0	PETIT	2	noun	phrase	1	13	match	petit	5	1	y	0.5364
14.088700000000003	0.0	+	2	noun	phrase	1	14	match	petit	5	1	y	0.5364
14.025100000000009	0.0	[response]	2	noun	phrase	1	15	match	petit	5	1	y	0.5364
15.888499999999993	0.0	+	3	noun	list	4	1	match	ainsi	5	1	y	0.89269
16.438500000000005	0.2	qrlzxjk	3	noun	list	4	2	match	ainsi	5	1	y	0.89269
16.638400000000004	0.0	+	3	noun	list	4	3	match	ainsi	5	1	y	0.89269
17.038399999999996	0.2	pour	3	noun	list	4	4	match	ainsi	5	1	y	0.89269
17.2384	0.0	+	3	noun	list	4	5	match	ainsi	5	1	y	0.89269
17.638400000000004	0.2	peut	3	noun	list	4	6	match	ainsi	5	1	y	0.89269
17.838300000000004	0.0	+	3	noun	list	4	7	match	ainsi	5	1	y	0.89269
18.238299999999995	0.2	grenier	3	noun	list	4	8	match	ainsi	5	1	y	0.89269
18.438299999999998	0.0	+	3	noun	list	4	9	match	ainsi	5	1	y	0.89269
18.838300000000004	0.2	ainsi	3	noun	list	4	10	match	ainsi	5	1	y	0.89269
19.038200000000003	0.0	+	3	noun	list	4	11	match	ainsi	5	1	y	0.89269
19.438199999999995	0.0	+	3	noun	list	4	12	match	ainsi	5	1	y	0.89269
21.438000000000002	0.0	AINSI	3	noun	list	4	13	match	ainsi	5	1	y	0.89269
22.387900000000002	0.0	+	3	noun	list	4	14	match	ainsi	5	1	y	0.89269
22.330699999999993	0.0	[response]	3	noun	list	4	15	match	ainsi	5	1	y	0.89269
23.8378	0.0	+	4	noun	list	2	1	match	loin	5	1	y	0.62287
24.3878	0.2	crljvpm	4	noun	list	2	2	match	loin	5	1	y	0.62287
24.5878	0.0	+	4	noun	list	2	3	match	loin	5	1	y	0.62287
24.987700000000004	0.2	dthz	4	noun	list	2	4	match	loin	5	1	y	0.62287
25.187699999999992	0.0	+	4	noun	list	2	5	match	loin	5	1	y	0.62287
25.587699999999998	0.2	vp	4	noun	list	2	6	match	loin	5	1	y	0.62287
25.787599999999998	0.0	+	4	noun	list	2	7	match	loin	5	1	y	0.62287
26.187600000000003	0.2	boîtier	4	noun	list	2	8	match	loin	5	1	y	0.62287
26.387599999999992	0.0	+	4	noun	list	2	9	match	loin	5	1	y	0.62287
26.787599999999998	0.2	loin	4	noun	list	2	10	match	loin	5	1	y	0.62287
26.987499999999997	0.0	+	4	noun	list	2	11	match	loin	5	1	y	0.62287
27.387500000000003	0.0	+	4	noun	list	2	12	match	loin	5	1	y	0.62287
29.387299999999996	0.0	LOIN	4	noun	list	2	13	match	loin	5	1	y	0.62287
30.0706	0.0	+	4	noun	list	2	14	match	loin	5	1	y	0.62287
30.010199999999998	0.0	[response]	4	noun	list	2	15	match	loin	5	1	y	0.62287
31.787099999999995	0.0	+	5	noun	list	3	1	nomatch	son	-1	1	p	0.6667
32.33709999999999	0.2	kcht	5	noun	list	3	2	nomatch	son	-1	1	p	0.6667
32.537099999999995	0.0	+	5	noun	list	3	3	nomatch	son	-1	1	p	0.6667
32.937	0.2	hkr	5	noun	list	3	4	nomatch	son	-1	1	p	0.6667
33.137	0.0	+	5	noun	list	3	5	nomatch	son	-1	1	p	0.6667
33.53699999999999	0.2	leur	5	noun	list	3	6	nomatch	son	-1	1	p	0.6667
33.736999999999995	0.0	+	5	noun	list	3	7	nomatch	son	-1	1	p	0.6667
34.1369	0.2	plus	5	noun	list	3	8	nomatch	son	-1	1	p	0.6667
34.3369	0.0	+	5	noun	list	3	9	nomatch	son	-1	1	p	0.6667
34.73689999999999	0.2	voilier	5	noun	list	3	10	nomatch	son	-1	1	p	0.6667
34.936899999999994	0.0	+	5	noun	list	3	11	nomatch	son	-1	1	p	0.6667
35.3368	0.0	+	5	noun	list	3	12	nomatch	son	-1	1	p	0.6667
37.336600000000004	0.0	SON	5	noun	list	3	13	nomatch	son	-1	1	p	0.6667
38.069900000000004	0.0	+	5	noun	list	3	14	nomatch	son	-1	1	p	0.6667
38.0034	0.0	[response]	5	noun	list	3	15	nomatch	son	-1	1	p	0.6667
47.735699999999994	0.0	+	6	verb	list	3	1	match	bleu	5	1	y	0.81678
48.28569999999999	0.2	gzk	6	verb	list	3	2	match	bleu	5	1	y	0.81678
48.485699999999994	0.0	+	6	verb	list	3	3	match	bleu	5	1	y	0.81678
48.8857	0.2	zmbq	6	verb	list	3	4	match	bleu	5	1	y	0.81678
49.0856	0.0	+	6	verb	list	3	5	match	bleu	5	1	y	0.81678
49.485600000000005	0.2	mon	6	verb	list	3	6	match	bleu	5	1	y	0.81678
49.685599999999994	0.0	+	6	verb	list	3	7	match	bleu	5	1	y	0.81678
50.085499999999996	0.2	rouler	6	verb	list	3	8	match	bleu	5	1	y	0.81678
50.2855	0.0	+	6	verb	list	3	9	match	bleu	5	1	y	0.81678
50.686099999999996	0.2	bleu	6	verb	list	3	10	match	bleu	5	1	y	0.81678
50.88549999999999	0.0	+	6	verb	list	3	11	match	bleu	5	1	y	0.81678
51.285399999999996	0.0	+	6	verb	list	3	12	match	bleu	5	1	y	0.81678
53.28529999999999	0.0	BLEU	6	verb	list	3	13	match	bleu	5	1	y	0.81678
54.168499999999995	0.0	+	6	verb	list	3	14	match	bleu	5	1	y	0.81678
54.10209999999999	0.0	[response]	6	verb	list	3	15	match	bleu	5	1	y	0.81678
63.70099999999999	0.0	+	7	noun	list	2	1	match	grenier	4	1	y	0.79794
64.251	0.2	tlxrms	7	noun	list	2	2	match	grenier	4	1	y	0.79794
64.451	0.0	+	7	noun	list	2	3	match	grenier	4	1	y	0.79794
64.8509	0.2	klgc	7	noun	list	2	4	match	grenier	4	1	y	0.79794
65.0509	0.0	+	7	noun	list	2	5	match	grenier	4	1	y	0.79794
65.4509	0.2	smjp	7	noun	list	2	6	match	grenier	4	1	y	0.79794
65.6509	0.0	+	7	noun	list	2	7	match	grenier	4	1	y	0.79794
66.0508	0.2	grenier	7	noun	list	2	8	match	grenier	4	1	y	0.79794
66.2508	0.0	+	7	noun	list	2	9	match	grenier	4	1	y	0.79794
66.6508	0.2	tard	7	noun	list	2	10	match	grenier	4	1	y	0.79794
66.85079999999999	0.0	+	7	noun	list	2	11	match	grenier	4	1	y	0.79794
67.2507	0.0	+	7	noun	list	2	12	match	grenier	4	1	y	0.79794
69.25059999999999	0.0	GRENIER	7	noun	list	2	13	match	grenier	4	1	y	0.79794
70.1171	0.0	+	7	noun	list	2	14	match	grenier	4	1	y	0.79794
70.04850000000002	0.0	[response]	7	noun	list	2	15	match	grenier	4	1	y	0.79794
79.64959999999999	0.0	+	8	noun	list	4	1	match	peut	3	1	y	0.8564000000000002
80.1996	0.2	sfrg	8	noun	list	4	2	match	peut	3	1	y	0.8564000000000002
80.39959999999999	0.0	+	8	noun	list	4	3	match	peut	3	1	y	0.8564000000000002
80.7996	0.2	pour	8	noun	list	4	4	match	peut	3	1	y	0.8564000000000002
80.99950000000001	0.0	+	8	noun	list	4	5	match	peut	3	1	y	0.8564000000000002
81.39949999999999	0.2	peut	8	noun	list	4	6	match	peut	3	1	y	0.8564000000000002
81.5995	0.0	+	8	noun	list	4	7	match	peut	3	1	y	0.8564000000000002
81.99950000000001	0.2	tablier	8	noun	list	4	8	match	peut	3	1	y	0.8564000000000002
82.1994	0.0	+	8	noun	list	4	9	match	peut	3	1	y	0.8564000000000002
82.5994	0.2	tôt	8	noun	list	4	10	match	peut	3	1	y	0.8564000000000002
82.79939999999999	0.0	+	8	noun	list	4	11	match	peut	3	1	y	0.8564000000000002
83.1993	0.0	+	8	noun	list	4	12	match	peut	3	1	y	0.8564000000000002
85.19919999999999	0.0	PEUT	8	noun	list	4	13	match	peut	3	1	y	0.8564000000000002
86.11580000000001	0.0	+	8	noun	list	4	14	match	peut	3	1	y	0.8564000000000002
86.0556	0.0	[response]	8	noun	list	4	15	match	peut	3	1	y	0.8564000000000002
87.59899999999999	0.0	+	9	noun	list	1	1	nomatch	vers	-1	1	p	0.53117
88.1489	0.2	xmtrqvf	9	noun	list	1	2	nomatch	vers	-1	1	p	0.53117
88.34889999999999	0.0	+	9	noun	list	1	3	nomatch	vers	-1	1	p	0.53117
88.74889999999999	0.2	lzfq	9	noun	list	1	4	nomatch	vers	-1	1	p	0.53117
88.94890000000001	0.0	+	9	noun	list	1	5	nomatch	vers	-1	1	p	0.53117
89.34880000000001	0.2	tvw	9	noun	list	1	6	nomatch	vers	-1	1	p	0.53117
89.5488	0.0	+	9	noun	list	1	7	nomatch	vers	-1	1	p	0.53117
89.9488	0.2	tbjvknlh	9	noun	list	1	8	nomatch	vers	-1	1	p	0.53117
90.14869999999999	0.0	+	9	noun	list	1	9	nomatch	vers	-1	1	p	0.53117
90.5487	0.2	boîtier	9	noun	list	1	10	nomatch	vers	-1	1	p	0.53117
90.74869999999999	0.0	+	9	noun	list	1	11	nomatch	vers	-1	1	p	0.53117
91.14869999999999	0.0	+	9	noun	list	1	12	nomatch	vers	-1	1	p	0.53117
93.14849999999998	0.0	VERS	9	noun	list	1	13	nomatch	vers	-1	1	p	0.53117
93.7484	0.0	+	9	noun	list	1	14	nomatch	vers	-1	1	p	0.53117
93.6797	0.0	[response]	9	noun	list	1	15	nomatch	vers	-1	1	p	0.53117
95.54830000000001	0.0	+	10	verb	list	1	1	nomatch	chasser	-1	1	p	0.57978
96.09819999999999	0.2	hsj	10	verb	list	1	2	nomatch	chasser	-1	1	p	0.57978
96.29820000000001	0.0	+	10	verb	list	1	3	nomatch	chasser	-1	1	p	0.57978
96.69819999999999	0.2	zmbq	10	verb	list	1	4	nomatch	chasser	-1	1	p	0.57978
96.8982	0.0	+	10	verb	list	1	5	nomatch	chasser	-1	1	p	0.57978
97.2981	0.2	blzh	10	verb	list	1	6	nomatch	chasser	-1	1	p	0.57978
97.4981	0.0	+	10	verb	list	1	7	nomatch	chasser	-1	1	p	0.57978
97.8981	0.2	fpwlx	10	verb	list	1	8	nomatch	chasser	-1	1	p	0.57978
98.09809999999999	0.0	+	10	verb	list	1	9	nomatch	chasser	-1	1	p	0.57978
98.49799999999999	0.2	jongler	10	verb	list	1	10	nomatch	chasser	-1	1	p	0.57978
98.69800000000001	0.0	+	10	verb	list	1	11	nomatch	chasser	-1	1	p	0.57978
99.09799999999998	0.0	+	10	verb	list	1	12	nomatch	chasser	-1	1	p	0.57978
101.0978	0.0	CHASSER	10	verb	list	1	13	nomatch	chasser	-1	1	p	0.57978
101.74770000000001	0.0	+	10	verb	list	1	14	nomatch	chasser	-1	1	p	0.57978
101.67759999999998	0.0	[response]	10	verb	list	1	15	nomatch	chasser	-1	1	p	0.57978
103.4976	0.0	+	11	noun	list	1	1	match	mieux	5	1	y	0.56
104.04749999999999	0.2	rsmj	11	noun	list	1	2	match	mieux	5	1	y	0.56
104.2475	0.0	+	11	noun	list	1	3	match	mieux	5	1	y	0.56
104.64750000000001	0.2	lzfq	11	noun	list	1	4	match	mieux	5	1	y	0.56
104.8475	0.0	+	11	noun	list	1	5	match	mieux	5	1	y	0.56
105.2474	0.2	fml	11	noun	list	1	6	match	mieux	5	1	y	0.56
105.44739999999999	0.0	+	11	noun	list	1	7	match	mieux	5	1	y	0.56
105.8474	0.2	vmfplhs	11	noun	list	1	8	match	mieux	5	1	y	0.56
106.04740000000001	0.0	+	11	noun	list	1	9	match	mieux	5	1	y	0.56
106.44729999999998	0.2	mieux	11	noun	list	1	10	match	mieux	5	1	y	0.56
106.6473	0.0	+	11	noun	list	1	11	match	mieux	5	1	y	0.56
107.0473	0.0	+	11	noun	list	1	12	match	mieux	5	1	y	0.56
109.0471	0.0	MIEUX	11	noun	list	1	13	match	mieux	5	1	y	0.56
109.6637	0.0	+	11	noun	list	1	14	match	mieux	5	1	y	0.56
109.60710000000003	0.0	[response]	11	noun	list	1	15	match	mieux	5	1	y	0.56
111.4469	0.0	+	12	noun	phrase	3	1	match	mon	3	1	y	0.98877
111.99690000000001	0.2	lvhtrk	12	noun	phrase	3	2	match	mon	3	1	y	0.98877
112.1968	0.0	+	12	noun	phrase	3	3	match	mon	3	1	y	0.98877
112.5968	0.2	dthz	12	noun	phrase	3	4	match	mon	3	1	y	0.98877
112.79679999999999	0.0	+	12	noun	phrase	3	5	match	mon	3	1	y	0.98877
113.19669999999999	0.2	mon	12	noun	phrase	3	6	match	mon	3	1	y	0.98877
113.39670000000001	0.0	+	12	noun	phrase	3	7	match	mon	3	1	y	0.98877
113.79669999999999	0.2	boîtier	12	noun	phrase	3	8	match	mon	3	1	y	0.98877
113.9967	0.0	+	12	noun	phrase	3	9	match	mon	3	1	y	0.98877
114.3966	0.2	blanc	12	noun	phrase	3	10	match	mon	3	1	y	0.98877
114.5966	0.0	+	12	noun	phrase	3	11	match	mon	3	1	y	0.98877
114.9966	0.0	+	12	noun	phrase	3	12	match	mon	3	1	y	0.98877
116.9964	0.0	MON	12	noun	phrase	3	13	match	mon	3	1	y	0.98877
118.0463	0.0	+	12	noun	phrase	3	14	match	mon	3	1	y	0.98877
117.98519999999999	0.0	[response]	12	noun	phrase	3	15	match	mon	3	1	y	0.98877
119.3962	0.0	+	13	noun	list	3	1	nomatch	leur	-1	1	p	0.85541
119.9462	0.2	lwc	13	noun	list	3	2	nomatch	leur	-1	1	p	0.85541
120.14609999999999	0.0	+	13	noun	list	3	3	nomatch	leur	-1	1	p	0.85541
120.5461	0.2	brtg	13	noun	list	3	4	nomatch	leur	-1	1	p	0.85541
120.74609999999998	0.0	+	13	noun	list	3	5	nomatch	leur	-1	1	p	0.85541
121.14609999999999	0.2	son	13	noun	list	3	6	nomatch	leur	-1	1	p	0.85541
121.346	0.0	+	13	noun	list	3	7	nomatch	leur	-1	1	p	0.85541
121.74600000000001	0.2	beaucoup	13	noun	list	3	8	nomatch	leur	-1	1	p	0.85541
121.946	0.0	+	13	noun	list	3	9	nomatch	leur	-1	1	p	0.85541
122.346	0.2	sablier	13	noun	list	3	10	nomatch	leur	-1	1	p	0.85541
122.54589999999999	0.0	+	13	noun	list	3	11	nomatch	leur	-1	1	p	0.85541
122.9459	0.0	+	13	noun	list	3	12	nomatch	leur	-1	1	p	0.85541
124.94569999999999	0.0	LEUR	13	noun	list	3	13	nomatch	leur	-1	1	p	0.85541
125.8623	0.0	+	13	noun	list	3	14	nomatch	leur	-1	1	p	0.85541
125.80109999999999	0.0	[response]	13	noun	list	3	15	nomatch	leur	-1	1	p	0.85541
127.34549999999999	0.0	+	14	verb	phrase	4	1	nomatch	trop	-1	1	p	0.64734
127.8955	0.2	kmqrjl	14	verb	phrase	4	2	nomatch	trop	-1	1	p	0.64734
128.0955	0.0	+	14	verb	phrase	4	3	nomatch	trop	-1	1	p	0.64734
128.4954	0.2	yves	14	verb	phrase	4	4	nomatch	trop	-1	1	p	0.64734
128.6954	0.0	+	14	verb	phrase	4	5	nomatch	trop	-1	1	p	0.64734
129.0954	0.2	doit	14	verb	phrase	4	6	nomatch	trop	-1	1	p	0.64734
129.2954	0.0	+	14	verb	phrase	4	7	nomatch	trop	-1	1	p	0.64734
129.6953	0.2	plonger	14	verb	phrase	4	8	nomatch	trop	-1	1	p	0.64734
129.8953	0.0	+	14	verb	phrase	4	9	nomatch	trop	-1	1	p	0.64734
130.2953	0.2	vite	14	verb	phrase	4	10	nomatch	trop	-1	1	p	0.64734
130.4952	0.0	+	14	verb	phrase	4	11	nomatch	trop	-1	1	p	0.64734
130.8952	0.0	+	14	verb	phrase	4	12	nomatch	trop	-1	1	p	0.64734
132.895	0.0	TROP	14	verb	phrase	4	13	nomatch	trop	-1	1	p	0.64734
133.6116	0.0	+	14	verb	phrase	4	14	nomatch	trop	-1	1	p	0.64734
133.5424	0.0	[response]	14	verb	phrase	4	15	nomatch	trop	-1	1	p	0.64734
135.2948	0.0	+	15	noun	phrase	3	1	nomatch	marc	-1	1	p	0.82453
135.8448	0.2	rzwd	15	noun	phrase	3	2	nomatch	marc	-1	1	p	0.82453
136.0448	0.0	+	15	noun	phrase	3	3	nomatch	marc	-1	1	p	0.82453
136.4447	0.2	zpwn	15	noun	phrase	3	4	nomatch	marc	-1	1	p	0.82453
136.6447	0.0	+	15	noun	phrase	3	5	nomatch	marc	-1	1	p	0.82453
137.0447	0.2	son	15	noun	phrase	3	6	nomatch	marc	-1	1	p	0.82453
137.2447	0.0	+	15	noun	phrase	3	7	nomatch	marc	-1	1	p	0.82453
137.6446	0.2	petit	15	noun	phrase	3	8	nomatch	marc	-1	1	p	0.82453
137.84459999999999	0.0	+	15	noun	phrase	3	9	nomatch	marc	-1	1	p	0.82453
138.2446	0.2	panier	15	noun	phrase	3	10	nomatch	marc	-1	1	p	0.82453
138.4446	0.0	+	15	noun	phrase	3	11	nomatch	marc	-1	1	p	0.82453
138.8445	0.0	+	15	noun	phrase	3	12	nomatch	marc	-1	1	p	0.82453
140.8444	0.0	MARC	15	noun	phrase	3	13	nomatch	marc	-1	1	p	0.82453
141.7276	0.0	+	15	noun	phrase	3	14	nomatch	marc	-1	1	p	0.82453
141.6689	0.0	[response]	15	noun	phrase	3	15	nomatch	marc	-1	1	p	0.82453
143.2441	0.0	+	16	noun	phrase	1	1	nomatch	bleu	-1	1	p	0.72897
143.7941	0.2	xnglmpr	16	noun	phrase	1	2	nomatch	bleu	-1	1	p	0.72897
143.9941	0.0	+	16	noun	phrase	1	3	nomatch	bleu	-1	1	p	0.72897
144.394	0.2	jpqd	16	noun	phrase	1	4	nomatch	bleu	-1	1	p	0.72897
144.594	0.0	+	16	noun	phrase	1	5	nomatch	bleu	-1	1	p	0.72897
144.994	0.2	fml	16	noun	phrase	1	6	nomatch	bleu	-1	1	p	0.72897
145.194	0.0	+	16	noun	phrase	1	7	nomatch	bleu	-1	1	p	0.72897
145.5939	0.2	zsdfgc	16	noun	phrase	1	8	nomatch	bleu	-1	1	p	0.72897
145.7939	0.0	+	16	noun	phrase	1	9	nomatch	bleu	-1	1	p	0.72897
146.19389999999999	0.2	noir	16	noun	phrase	1	10	nomatch	bleu	-1	1	p	0.72897
146.3939	0.0	+	16	noun	phrase	1	11	nomatch	bleu	-1	1	p	0.72897
146.7938	0.0	+	16	noun	phrase	1	12	nomatch	bleu	-1	1	p	0.72897
148.7937	0.0	BLEU	16	noun	phrase	1	13	nomatch	bleu	-1	1	p	0.72897
149.5769	0.0	+	16	noun	phrase	1	14	nomatch	bleu	-1	1	p	0.72897
149.5226	0.0	[response]	16	noun	phrase	1	15	nomatch	bleu	-1	1	p	0.72897
151.1935	0.0	+	17	noun	phrase	1	1	match	voilier	5	1	y	0.6233
151.7434	0.2	jcg	17	noun	phrase	1	2	match	voilier	5	1	y	0.6233
151.9434	0.0	+	17	noun	phrase	1	3	match	voilier	5	1	y	0.6233
152.3434	0.2	ckl	17	noun	phrase	1	4	match	voilier	5	1	y	0.6233
152.5433	0.0	+	17	noun	phrase	1	5	match	voilier	5	1	y	0.6233
152.9433	0.2	tvw	17	noun	phrase	1	6	match	voilier	5	1	y	0.6233
153.1433	0.0	+	17	noun	phrase	1	7	match	voilier	5	1	y	0.6233
153.5433	0.2	pzgfx	17	noun	phrase	1	8	match	voilier	5	1	y	0.6233
153.7432	0.0	+	17	noun	phrase	1	9	match	voilier	5	1	y	0.6233
154.1432	0.2	voilier	17	noun	phrase	1	10	match	voilier	5	1	y	0.6233
154.3432	0.0	+	17	noun	phrase	1	11	match	voilier	5	1	y	0.6233
154.7431	0.0	+	17	noun	phrase	1	12	match	voilier	5	1	y	0.6233
156.743	0.0	VOILIER	17	noun	phrase	1	13	match	voilier	5	1	y	0.6233
157.4262	0.0	+	17	noun	phrase	1	14	match	voilier	5	1	y	0.6233
157.3663	0.0	[response]	17	noun	phrase	1	15	match	voilier	5	1	y	0.6233
175.1414	0.0	+	18	noun	list	1	1	nomatch	chasser	-1	1	p	0.77689
175.69129999999998	0.2	mznqj	18	noun	list	1	2	nomatch	chasser	-1	1	p	0.77689
175.8913	0.0	+	18	noun	list	1	3	nomatch	chasser	-1	1	p	0.77689
176.2913	0.2	slvm	18	noun	list	1	4	nomatch	chasser	-1	1	p	0.77689
176.4913	0.0	+	18	noun	list	1	5	nomatch	chasser	-1	1	p	0.77689
176.8912	0.2	njsf	18	noun	list	1	6	nomatch	chasser	-1	1	p	0.77689
177.0912	0.0	+	18	noun	list	1	7	nomatch	chasser	-1	1	p	0.77689
177.4912	0.2	sdfbk	18	noun	list	1	8	nomatch	chasser	-1	1	p	0.77689
177.6912	0.0	+	18	noun	list	1	9	nomatch	chasser	-1	1	p	0.77689
178.0911	0.2	casier	18	noun	list	1	10	nomatch	chasser	-1	1	p	0.77689
178.2911	0.0	+	18	noun	list	1	11	nomatch	chasser	-1	1	p	0.77689
178.6911	0.0	+	18	noun	list	1	12	nomatch	chasser	-1	1	p	0.77689
180.6909	0.0	CHASSER	18	noun	list	1	13	nomatch	chasser	-1	1	p	0.77689
181.5253	0.0	+	18	noun	list	1	14	nomatch	chasser	-1	1	p	0.77689
181.4678	0.0	[response]	18	noun	list	1	15	nomatch	chasser	-1	1	p	0.77689
183.0907	0.0	+	19	noun	list	1	1	nomatch	tôt	-1	1	p	0.85378
183.6406	0.2	ltkvpr	19	noun	list	1	2	nomatch	tôt	-1	1	p	0.85378
183.8406	0.0	+	19	noun	list	1	3	nomatch	tôt	-1	1	p	0.85378
184.2406	0.2	hkr	19	noun	list	1	4	nomatch	tôt	-1	1	p	0.85378
184.4406	0.0	+	19	noun	list	1	5	nomatch	tôt	-1	1	p	0.85378
184.8405	0.2	blzh	19	noun	list	1	6	nomatch	tôt	-1	1	p	0.85378
185.0405	0.0	+	19	noun	list	1	7	nomatch	tôt	-1	1	p	0.85378
185.4405	0.2	rjfwc	19	noun	list	1	8	nomatch	tôt	-1	1	p	0.85378
185.6405	0.0	+	19	noun	list	1	9	nomatch	tôt	-1	1	p	0.85378
186.0404	0.2	grenier	19	noun	list	1	10	nomatch	tôt	-1	1	p	0.85378
186.2404	0.0	+	19	noun	list	1	11	nomatch	tôt	-1	1	p	0.85378
186.6404	0.0	+	19	noun	list	1	12	nomatch	tôt	-1	1	p	0.85378
188.6402	0.0	TÔT	19	noun	list	1	13	nomatch	tôt	-1	1	p	0.85378
189.5568	0.0	+	19	noun	list	1	14	nomatch	tôt	-1	1	p	0.85378
189.49400000000003	0.0	[response]	19	noun	list	1	15	nomatch	tôt	-1	1	p	0.85378
191.04	0.0	+	20	verb	phrase	2	1	match	loin	5	1	y	0.68377
191.59	0.2	hkgf	20	verb	phrase	2	2	match	loin	5	1	y	0.68377
191.7899	0.0	+	20	verb	phrase	2	3	match	loin	5	1	y	0.68377
192.1899	0.2	zmbq	20	verb	phrase	2	4	match	loin	5	1	y	0.68377
192.3899	0.0	+	20	verb	phrase	2	5	match	loin	5	1	y	0.68377
192.78979999999999	0.2	njsf	20	verb	phrase	2	6	match	loin	5	1	y	0.68377
192.9898	0.0	+	20	verb	phrase	2	7	match	loin	5	1	y	0.68377
193.3898	0.2	galoper	20	verb	phrase	2	8	match	loin	5	1	y	0.68377
193.5898	0.0	+	20	verb	phrase	2	9	match	loin	5	1	y	0.68377
193.9897	0.2	loin	20	verb	phrase	2	10	match	loin	5	1	y	0.68377
194.1897	0.0	+	20	verb	phrase	2	11	match	loin	5	1	y	0.68377
194.5897	0.0	+	20	verb	phrase	2	12	match	loin	5	1	y	0.68377
196.5896	0.0	LOIN	20	verb	phrase	2	13	match	loin	5	1	y	0.68377
197.3394	0.0	+	20	verb	phrase	2	14	match	loin	5	1	y	0.68377
197.2733	0.0	[response]	20	verb	phrase	2	15	match	loin	5	1	y	0.68377
198.9893	0.0	+	21	noun	phrase	4	1	nomatch	sans	-1	1	p	0.75864
199.5393	0.2	mdxbszq	21	noun	phrase	4	2	nomatch	sans	-1	1	p	0.75864
199.7392	0.0	+	21	noun	phrase	4	3	nomatch	sans	-1	1	p	0.75864
200.1392	0.2	avec	21	noun	phrase	4	4	nomatch	sans	-1	1	p	0.75864
200.33919999999998	0.0	+	21	noun	phrase	4	5	nomatch	sans	-1	1	p	0.75864
200.7392	0.2	leur	21	noun	phrase	4	6	nomatch	sans	-1	1	p	0.75864
200.93910000000002	0.0	+	21	noun	phrase	4	7	nomatch	sans	-1	1	p	0.75864
201.3391	0.2	panier	21	noun	phrase	4	8	nomatch	sans	-1	1	p	0.75864
201.5391	0.0	+	21	noun	phrase	4	9	nomatch	sans	-1	1	p	0.75864
201.93910000000002	0.2	noir	21	noun	phrase	4	10	nomatch	sans	-1	1	p	0.75864
202.13899999999998	0.0	+	21	noun	phrase	4	11	nomatch	sans	-1	1	p	0.75864
202.53900000000002	0.0	+	21	noun	phrase	4	12	nomatch	sans	-1	1	p	0.75864
204.5388	0.0	SANS	21	noun	phrase	4	13	nomatch	sans	-1	1	p	0.75864
205.3554	0.0	+	21	noun	phrase	4	14	nomatch	sans	-1	1	p	0.75864
205.29749999999999	0.0	[response]	21	noun	phrase	4	15	nomatch	sans	-1	1	p	0.75864
206.93859999999998	0.0	+	22	noun	phrase	1	1	nomatch	paul	-1	1	p	0.78739
207.4886	0.2	vgsxw	22	noun	phrase	1	2	nomatch	paul	-1	1	p	0.78739
207.68859999999998	0.0	+	22	noun	phrase	1	3	nomatch	paul	-1	1	p	0.78739
208.08849999999998	0.2	ckl	22	noun	phrase	1	4	nomatch	paul	-1	1	p	0.78739
208.28849999999997	0.0	+	22	noun	phrase	1	5	nomatch	paul	-1	1	p	0.78739
208.6885	0.2	tvw	22	noun	phrase	1	6	nomatch	paul	-1	1	p	0.78739
208.8885	0.0	+	22	noun	phrase	1	7	nomatch	paul	-1	1	p	0.78739
209.2884	0.2	zsdfgc	22	noun	phrase	1	8	nomatch	paul	-1	1	p	0.78739
209.48839999999998	0.0	+	22	noun	phrase	1	9	nomatch	paul	-1	1	p	0.78739
209.88840000000002	0.2	beau	22	noun	phrase	1	10	nomatch	paul	-1	1	p	0.78739
210.08829999999998	0.0	+	22	noun	phrase	1	11	nomatch	paul	-1	1	p	0.78739
210.4883	0.0	+	22	noun	phrase	1	12	nomatch	paul	-1	1	p	0.78739
212.4881	0.0	PAUL	22	noun	phrase	1	13	nomatch	paul	-1	1	p	0.78739
213.33810000000003	0.0	+	22	noun	phrase	1	14	nomatch	paul	-1	1	p	0.78739
213.2755	0.0	[response]	22	noun	phrase	1	15	nomatch	paul	-1	1	p	0.78739
222.88719999999998	0.0	+	23	noun	phrase	2	1	nomatch	son	-1	1	p	0.72846
223.4372	0.2	hbd	23	noun	phrase	2	2	nomatch	son	-1	1	p	0.72846
223.63719999999998	0.0	+	23	noun	phrase	2	3	nomatch	son	-1	1	p	0.72846
224.03709999999998	0.2	zpwn	23	noun	phrase	2	4	nomatch	son	-1	1	p	0.72846
224.23710000000003	0.0	+	23	noun	phrase	2	5	nomatch	son	-1	1	p	0.72846
224.6371	0.2	fml	23	noun	phrase	2	6	nomatch	son	-1	1	p	0.72846
224.8371	0.0	+	23	noun	phrase	2	7	nomatch	son	-1	1	p	0.72846
225.237	0.2	petit	23	noun	phrase	2	8	nomatch	son	-1	1	p	0.72846
225.43699999999998	0.0	+	23	noun	phrase	2	9	nomatch	son	-1	1	p	0.72846
225.83700000000002	0.2	boîtier	23	noun	phrase	2	10	nomatch	son	-1	1	p	0.72846
226.037	0.0	+	23	noun	phrase	2	11	nomatch	son	-1	1	p	0.72846
226.4369	0.0	+	23	noun	phrase	2	12	nomatch	son	-1	1	p	0.72846
228.43679999999998	0.0	SON	23	noun	phrase	2	13	nomatch	son	-1	1	p	0.72846
229.22	0.0	+	23	noun	phrase	2	14	nomatch	son	-1	1	p	0.72846
229.16520000000006	0.0	[response]	23	noun	phrase	2	15	nomatch	son	-1	1	p	0.72846
230.83649999999997	0.0	+	24	noun	phrase	3	1	match	leur	3	1	y	1.1369
231.38649999999998	0.2	bsg	24	noun	phrase	3	2	match	leur	3	1	y	1.1369
231.58649999999997	0.0	+	24	noun	phrase	3	3	match	leur	3	1	y	1.1369
231.98639999999997	0.2	fnlw	24	noun	phrase	3	4	match	leur	3	1	y	1.1369
232.18640000000002	0.0	+	24	noun	phrase	3	5	match	leur	3	1	y	1.1369
232.5864	0.2	leur	24	noun	phrase	3	6	match	leur	3	1	y	1.1369
232.7864	0.0	+	24	noun	phrase	3	7	match	leur	3	1	y	1.1369
233.1863	0.2	tablier	24	noun	phrase	3	8	match	leur	3	1	y	1.1369
233.38629999999998	0.0	+	24	noun	phrase	3	9	match	leur	3	1	y	1.1369
233.7863	0.2	rouge	24	noun	phrase	3	10	match	leur	3	1	y	1.1369
233.9863	0.0	+	24	noun	phrase	3	11	match	leur	3	1	y	1.1369
234.3862	0.0	+	24	noun	phrase	3	12	match	leur	3	1	y	1.1369
236.38609999999997	0.0	LEUR	24	noun	phrase	3	13	match	leur	3	1	y	1.1369
237.58599999999998	0.0	+	24	noun	phrase	3	14	match	leur	3	1	y	1.1369
237.523	0.0	[response]	24	noun	phrase	3	15	match	leur	3	1	y	1.1369
238.7859	0.0	+	25	noun	phrase	3	1	nomatch	dans	-1	1	p	0.84392
239.33579999999998	0.2	sdrphb	25	noun	phrase	3	2	nomatch	dans	-1	1	p	0.84392
239.53580000000002	0.0	+	25	noun	phrase	3	3	nomatch	dans	-1	1	p	0.84392
239.9358	0.2	jpqd	25	noun	phrase	3	4	nomatch	dans	-1	1	p	0.84392
240.1357	0.0	+	25	noun	phrase	3	5	nomatch	dans	-1	1	p	0.84392
240.5357	0.2	mon	25	noun	phrase	3	6	nomatch	dans	-1	1	p	0.84392
240.73569999999998	0.0	+	25	noun	phrase	3	7	nomatch	dans	-1	1	p	0.84392
241.1357	0.2	beau	25	noun	phrase	3	8	nomatch	dans	-1	1	p	0.84392
241.33559999999997	0.0	+	25	noun	phrase	3	9	nomatch	dans	-1	1	p	0.84392
241.7356	0.2	cendrier	25	noun	phrase	3	10	nomatch	dans	-1	1	p	0.84392
241.9356	0.0	+	25	noun	phrase	3	11	nomatch	dans	-1	1	p	0.84392
242.33559999999997	0.0	+	25	noun	phrase	3	12	nomatch	dans	-1	1	p	0.84392
244.33540000000002	0.0	DANS	25	noun	phrase	3	13	nomatch	dans	-1	1	p	0.84392
245.23530000000002	0.0	+	25	noun	phrase	3	14	nomatch	dans	-1	1	p	0.84392
245.17929999999998	0.0	[response]	25	noun	phrase	3	15	nomatch	dans	-1	1	p	0.84392
254.75109999999998	0.0	+	26	verb	list	1	1	nomatch	noir	-1	1	p	0.70368
255.3011	0.2	brfc	26	verb	list	1	2	nomatch	noir	-1	1	p	0.70368
255.50109999999998	0.0	+	26	verb	list	1	3	nomatch	noir	-1	1	p	0.70368
255.90099999999998	0.2	pnsd	26	verb	list	1	4	nomatch	noir	-1	1	p	0.70368
256.101	0.0	+	26	verb	list	1	5	nomatch	noir	-1	1	p	0.70368
256.501	0.2	blzh	26	verb	list	1	6	nomatch	noir	-1	1	p	0.70368
256.701	0.0	+	26	verb	list	1	7	nomatch	noir	-1	1	p	0.70368
257.1009	0.2	bftwcs	26	verb	list	1	8	nomatch	noir	-1	1	p	0.70368
257.30089999999996	0.0	+	26	verb	list	1	9	nomatch	noir	-1	1	p	0.70368
257.70090000000005	0.2	bleu	26	verb	list	1	10	nomatch	noir	-1	1	p	0.70368
257.9009	0.0	+	26	verb	list	1	11	nomatch	noir	-1	1	p	0.70368
258.3008	0.0	+	26	verb	list	1	12	nomatch	noir	-1	1	p	0.70368
260.3007	0.0	NOIR	26	verb	list	1	13	nomatch	noir	-1	1	p	0.70368
261.06730000000005	0.0	+	26	verb	list	1	14	nomatch	noir	-1	1	p	0.70368
261.00430000000006	0.0	[response]	26	verb	list	1	15	nomatch	noir	-1	1	p	0.70368
262.70039999999995	0.0	+	27	noun	list	4	1	nomatch	grand	-1	1	p	0.71845
263.2504	0.2	grtd	27	noun	list	4	2	nomatch	grand	-1	1	p	0.71845
263.45039999999995	0.0	+	27	noun	list	4	3	nomatch	grand	-1	1	p	0.71845
263.85040000000004	0.2	sur	27	noun	list	4	4	nomatch	grand	-1	1	p	0.71845
264.0503	0.0	+	27	noun	list	4	5	nomatch	grand	-1	1	p	0.71845
264.45029999999997	0.2	va	27	noun	list	4	6	nomatch	grand	-1	1	p	0.71845
264.6503	0.0	+	27	noun	list	4	7	nomatch	grand	-1	1	p	0.71845
265.0502	0.2	panier	27	noun	list	4	8	nomatch	grand	-1	1	p	0.71845
265.25019999999995	0.0	+	27	noun	list	4	9	nomatch	grand	-1	1	p	0.71845
265.65020000000004	0.2	vite	27	noun	list	4	10	nomatch	grand	-1	1	p	0.71845
265.8502	0.0	+	27	noun	list	4	11	nomatch	grand	-1	1	p	0.71845
266.2501	0.0	+	27	noun	list	4	12	nomatch	grand	-1	1	p	0.71845
268.25	0.0	GRAND	27	noun	list	4	13	nomatch	grand	-1	1	p	0.71845
269.03319999999997	0.0	+	27	noun	list	4	14	nomatch	grand	-1	1	p	0.71845
268.9684	0.0	[response]	27	noun	list	4	15	nomatch	grand	-1	1	p	0.71845
270.6498	0.0	+	28	noun	phrase	1	1	match	petit	5	1	y	0.6686600000000001
271.1997	0.2	kzq	28	noun	phrase	1	2	match	petit	5	1	y	0.6686600000000001
271.39970000000005	0.0	+	28	noun	phrase	1	3	match	petit	5	1	y	0.6686600000000001
271.79970000000003	0.2	fnlw	28	noun	phrase	1	4	match	petit	5	1	y	0.6686600000000001
271.9996	0.0	+	28	noun	phrase	1	5	match	petit	5	1	y	0.6686600000000001
272.39959999999996	0.2	fml	28	noun	phrase	1	6	match	petit	5	1	y	0.6686600000000001
272.5996	0.0	+	28	noun	phrase	1	7	match	petit	5	1	y	0.6686600000000001
272.9996	0.2	qdcrhmz	28	noun	phrase	1	8	match	petit	5	1	y	0.6686600000000001
273.19949999999994	0.0	+	28	noun	phrase	1	9	match	petit	5	1	y	0.6686600000000001
273.59950000000003	0.2	petit	28	noun	phrase	1	10	match	petit	5	1	y	0.6686600000000001
273.79949999999997	0.0	+	28	noun	phrase	1	11	match	petit	5	1	y	0.6686600000000001
274.19949999999994	0.0	+	28	noun	phrase	1	12	match	petit	5	1	y	0.6686600000000001
276.1993	0.0	PETIT	28	noun	phrase	1	13	match	petit	5	1	y	0.6686600000000001
276.9325	0.0	+	28	noun	phrase	1	14	match	petit	5	1	y	0.6686600000000001
276.86789999999996	0.0	[response]	28	noun	phrase	1	15	match	petit	5	1	y	0.6686600000000001
278.5991	0.0	+	29	noun	list	2	1	match	voilier	5	1	y	0.88466
279.149	0.2	frd	29	noun	list	2	2	match	voilier	5	1	y	0.88466
279.34900000000005	0.0	+	29	noun	list	2	3	match	voilier	5	1	y	0.88466
279.749	0.2	brtg	29	noun	list	2	4	match	voilier	5	1	y	0.88466
279.94899999999996	0.0	+	29	noun	list	2	5	match	voilier	5	1	y	0.88466
280.34889999999996	0.2	tvw	29	noun	list	2	6	match	voilier	5	1	y	0.88466
280.5489	0.0	+	29	noun	list	2	7	match	voilier	5	1	y	0.88466
280.9489	0.2	mieux	29	noun	list	2	8	match	voilier	5	1	y	0.88466
281.14880000000005	0.0	+	29	noun	list	2	9	match	voilier	5	1	y	0.88466
281.5488	0.2	voilier	29	noun	list	2	10	match	voilier	5	1	y	0.88466
281.74879999999996	0.0	+	29	noun	list	2	11	match	voilier	5	1	y	0.88466
282.14880000000005	0.0	+	29	noun	list	2	12	match	voilier	5	1	y	0.88466
284.1486	0.0	VOILIER	29	noun	list	2	13	match	voilier	5	1	y	0.88466
285.09849999999994	0.0	+	29	noun	list	2	14	match	voilier	5	1	y	0.88466
285.0332000000001	0.0	[response]	29	noun	list	2	15	match	voilier	5	1	y	0.88466
294.54769999999996	0.0	+	30	noun	phrase	1	1	match	casier	5	1	y	0.67261
295.09759999999994	0.2	tmjwgpq	30	noun	phrase	1	2	match	casier	5	1	y	0.67261
295.2976	0.0	+	30	noun	phrase	1	3	match	casier	5	1	y	0.67261
295.69759999999997	0.2	ckl	30	noun	phrase	1	4	match	casier	5	1	y	0.67261
295.8976	0.0	+	30	noun	phrase	1	5	match	casier	5	1	y	0.67261
296.2975	0.2	blzh	30	noun	phrase	1	6	match	casier	5	1	y	0.67261
296.49749999999995	0.0	+	30	noun	phrase	1	7	match	casier	5	1	y	0.67261
296.89750000000004	0.2	qsjbt	30	noun	phrase	1	8	match	casier	5	1	y	0.67261
297.09749999999997	0.0	+	30	noun	phrase	1	9	match	casier	5	1	y	0.67261
297.49739999999997	0.2	casier	30	noun	phrase	1	10	match	casier	5	1	y	0.67261
297.6974	0.0	+	30	noun	phrase	1	11	match	casier	5	1	y	0.67261
298.0974	0.0	+	30	noun	phrase	1	12	match	casier	5	1	y	0.67261
300.09720000000004	0.0	CASIER	30	noun	phrase	1	13	match	casier	5	1	y	0.67261
300.83050000000003	0.0	+	30	noun	phrase	1	14	match	casier	5	1	y	0.67261
300.76980000000003	0.0	[response]	30	noun	phrase	1	15	match	casier	5	1	y	0.67261
302.49699999999996	0.0	+	31	noun	list	2	1	match	voilier	4	1	y	0.69088
303.04690000000005	0.2	hmsbclp	31	noun	list	2	2	match	voilier	4	1	y	0.69088
303.2469	0.0	+	31	noun	list	2	3	match	voilier	4	1	y	0.69088
303.64689999999996	0.2	slvm	31	noun	list	2	4	match	voilier	4	1	y	0.69088
303.8469	0.0	+	31	noun	list	2	5	match	voilier	4	1	y	0.69088
304.2468	0.2	smjp	31	noun	list	2	6	match	voilier	4	1	y	0.69088
304.44680000000005	0.0	+	31	noun	list	2	7	match	voilier	4	1	y	0.69088
304.84680000000003	0.2	voilier	31	noun	list	2	8	match	voilier	4	1	y	0.69088
305.04679999999996	0.0	+	31	noun	list	2	9	match	voilier	4	1	y	0.69088
305.44669999999996	0.2	vite	31	noun	list	2	10	match	voilier	4	1	y	0.69088
305.6467	0.0	+	31	noun	list	2	11	match	voilier	4	1	y	0.69088
306.0467	0.0	+	31	noun	list	2	12	match	voilier	4	1	y	0.69088
308.04650000000004	0.0	VOILIER	31	noun	list	2	13	match	voilier	4	1	y	0.69088
308.79639999999995	0.0	+	31	noun	list	2	14	match	voilier	4	1	y	0.69088
308.7374000000001	0.0	[response]	31	noun	list	2	15	match	voilier	4	1	y	0.69088
310.44629999999995	0.0	+	32	verb	list	2	1	nomatch	patiner	-1	1	p	0.7254300000000001
310.9963	0.2	kbgjq	32	verb	list	2	2	nomatch	patiner	-1	1	p	0.7254300000000001
311.1962	0.0	+	32	verb	list	2	3	nomatch	patiner	-1	1	p	0.7254300000000001
311.59619999999995	0.2	fnlw	32	verb	list	2	4	nomatch	patiner	-1	1	p	0.7254300000000001
311.7962	0.0	+	32	verb	list	2	5	nomatch	patiner	-1	1	p	0.7254300000000001
312.1962	0.2	njsf	32	verb	list	2	6	nomatch	patiner	-1	1	p	0.7254300000000001
312.39610000000005	0.0	+	32	verb	list	2	7	nomatch	patiner	-1	1	p	0.7254300000000001
312.7961	0.2	petit	32	verb	list	2	8	nomatch	patiner	-1	1	p	0.7254300000000001
312.99609999999996	0.0	+	32	verb	list	2	9	nomatch	patiner	-1	1	p	0.7254300000000001
313.39599999999996	0.2	voyager	32	verb	list	2	10	nomatch	patiner	-1	1	p	0.7254300000000001
313.596	0.0	+	32	verb	list	2	11	nomatch	patiner	-1	1	p	0.7254300000000001
313.996	0.0	+	32	verb	list	2	12	nomatch	patiner	-1	1	p	0.7254300000000001
315.99580000000003	0.0	PATINER	32	verb	list	2	13	nomatch	patiner	-1	1	p	0.7254300000000001
316.77909999999997	0.0	+	32	verb	list	2	14	nomatch	patiner	-1	1	p	0.7254300000000001
316.72130000000004	0.0	[response]	32	verb	list	2	15	nomatch	patiner	-1	1	p	0.7254300000000001
318.39559999999994	0.0	+	33	noun	list	1	1	match	beaucoup	5	1	y	0.5341
318.9456	0.2	bstdrx	33	noun	list	1	2	match	beaucoup	5	1	y	0.5341
319.14549999999997	0.0	+	33	noun	list	1	3	match	beaucoup	5	1	y	0.5341
319.54549999999995	0.2	gjfq	33	noun	list	1	4	match	beaucoup	5	1	y	0.5341
319.7455	0.0	+	33	noun	list	1	5	match	beaucoup	5	1	y	0.5341
320.14549999999997	0.2	tvw	33	noun	list	1	6	match	beaucoup	5	1	y	0.5341
320.34540000000004	0.0	+	33	noun	list	1	7	match	beaucoup	5	1	y	0.5341
320.7454	0.2	jrnfgk	33	noun	list	1	8	match	beaucoup	5	1	y	0.5341
320.94539999999995	0.0	+	33	noun	list	1	9	match	beaucoup	5	1	y	0.5341
321.34540000000004	0.2	beaucoup	33	noun	list	1	10	match	beaucoup	5	1	y	0.5341
321.5453	0.0	+	33	noun	list	1	11	match	beaucoup	5	1	y	0.5341
321.9453	0.0	+	33	noun	list	1	12	match	beaucoup	5	1	y	0.5341
323.9451	0.0	BEAUCOUP	33	noun	list	1	13	match	beaucoup	5	1	y	0.5341
324.54510000000005	0.0	+	33	noun	list	1	14	match	beaucoup	5	1	y	0.5341
324.4792	0.0	[response]	33	noun	list	1	15	match	beaucoup	5	1	y	0.5341
326.34490000000005	0.0	+	34	noun	list	3	1	match	doit	3	1	y	0.79838
326.8949	0.2	mwnl	34	noun	list	3	2	match	doit	3	1	y	0.79838
327.09490000000005	0.0	+	34	noun	list	3	3	match	doit	3	1	y	0.79838
327.49480000000005	0.2	dthz	34	noun	list	3	4	match	doit	3	1	y	0.79838
327.6948	0.0	+	34	noun	list	3	5	match	doit	3	1	y	0.79838
328.09479999999996	0.2	doit	34	noun	list	3	6	match	doit	3	1	y	0.79838
328.2948	0.0	+	34	noun	list	3	7	match	doit	3	1	y	0.79838
328.6947	0.2	sablier	34	noun	list	3	8	match	doit	3	1	y	0.79838
328.89469999999994	0.0	+	34	noun	list	3	9	match	doit	3	1	y	0.79838
329.29470000000003	0.2	vite	34	noun	list	3	10	match	doit	3	1	y	0.79838
329.49469999999997	0.0	+	34	noun	list	3	11	match	doit	3	1	y	0.79838
329.89459999999997	0.0	+	34	noun	list	3	12	match	doit	3	1	y	0.79838
331.8944	0.0	DOIT	34	noun	list	3	13	match	doit	3	1	y	0.79838
332.76099999999997	0.0	+	34	noun	list	3	14	match	doit	3	1	y	0.79838
332.69280000000003	0.0	[response]	34	noun	list	3	15	match	doit	3	1	y	0.79838
334.29420000000005	0.0	+	35	verb	phrase	1	1	nomatch	plus	-1	1	p	0.82933
334.8442	0.2	wptdgsb	35	verb	phrase	1	2	nomatch	plus	-1	1	p	0.82933
335.04420000000005	0.0	+	35	verb	phrase	1	3	nomatch	plus	-1	1	p	0.82933
335.44410000000005	0.2	lzfq	35	verb	phrase	1	4	nomatch	plus	-1	1	p	0.82933
335.6441	0.0	+	35	verb	phrase	1	5	nomatch	plus	-1	1	p	0.82933
336.04409999999996	0.2	smjp	35	verb	phrase	1	6	nomatch	plus	-1	1	p	0.82933
336.2441	0.0	+	35	verb	phrase	1	7	nomatch	plus	-1	1	p	0.82933
336.644	0.2	zplmj	35	verb	phrase	1	8	nomatch	plus	-1	1	p	0.82933
336.84400000000005	0.0	+	35	verb	phrase	1	9	nomatch	plus	-1	1	p	0.82933
337.244	0.2	galoper	35	verb	phrase	1	10	nomatch	plus	-1	1	p	0.82933
337.44399999999996	0.0	+	35	verb	phrase	1	11	nomatch	plus	-1	1	p	0.82933
337.84389999999996	0.0	+	35	verb	phrase	1	12	nomatch	plus	-1	1	p	0.82933
339.8437	0.0	PLUS	35	verb	phrase	1	13	nomatch	plus	-1	1	p	0.82933
340.7437	0.0	+	35	verb	phrase	1	14	nomatch	plus	-1	1	p	0.82933
340.6731	0.0	[response]	35	verb	phrase	1	15	nomatch	plus	-1	1	p	0.82933
342.24350000000004	0.0	+	36	noun	phrase	4	1	match	grand	4	1	y	0.67979
342.7935	0.2	zxrhsg	36	noun	phrase	4	2	match	grand	4	1	y	0.67979
342.99350000000004	0.0	+	36	noun	phrase	4	3	match	grand	4	1	y	0.67979
343.3935	0.2	dans	36	noun	phrase	4	4	match	grand	4	1	y	0.67979
343.5934	0.0	+	36	noun	phrase	4	5	match	grand	4	1	y	0.67979
343.99339999999995	0.2	leur	36	noun	phrase	4	6	match	grand	4	1	y	0.67979
344.1934	0.0	+	36	noun	phrase	4	7	match	grand	4	1	y	0.67979
344.5933	0.2	grand	36	noun	phrase	4	8	match	grand	4	1	y	0.67979
344.79330000000004	0.0	+	36	noun	phrase	4	9	match	grand	4	1	y	0.67979
345.1933	0.2	voilier	36	noun	phrase	4	10	match	grand	4	1	y	0.67979
345.39329999999995	0.0	+	36	noun	phrase	4	11	match	grand	4	1	y	0.67979
345.79319999999996	0.0	+	36	noun	phrase	4	12	match	grand	4	1	y	0.67979
347.7931	0.0	GRAND	36	noun	phrase	4	13	match	grand	4	1	y	0.67979
348.543	0.0	+	36	noun	phrase	4	14	match	grand	4	1	y	0.67979
348.4729000000001	0.0	[response]	36	noun	phrase	4	15	match	grand	4	1	y	0.67979
350.19280000000003	0.0	+	37	noun	list	4	1	match	trop	4	1	y	0.66432
350.7428	0.2	krv	37	noun	list	4	2	match	trop	4	1	y	0.66432
350.94280000000003	0.0	+	37	noun	list	4	3	match	trop	4	1	y	0.66432
351.3428	0.2	paul	37	noun	list	4	4	match	trop	4	1	y	0.66432
351.54269999999997	0.0	+	37	noun	list	4	5	match	trop	4	1	y	0.66432
351.94269999999995	0.2	son	37	noun	list	4	6	match	trop	4	1	y	0.66432
352.1427	0.0	+	37	noun	list	4	7	match	trop	4	1	y	0.66432
352.5426	0.2	trop	37	noun	list	4	8	match	trop	4	1	y	0.66432
352.74260000000004	0.0	+	37	noun	list	4	9	match	trop	4	1	y	0.66432
353.1426	0.2	grenier	37	noun	list	4	10	match	trop	4	1	y	0.66432
353.34259999999995	0.0	+	37	noun	list	4	11	match	trop	4	1	y	0.66432
353.74249999999995	0.0	+	37	noun	list	4	12	match	trop	4	1	y	0.66432
355.7424	0.0	TROP	37	noun	list	4	13	match	trop	4	1	y	0.66432
356.4756	0.0	+	37	noun	list	4	14	match	trop	4	1	y	0.66432
356.4067	0.0	[response]	37	noun	list	4	15	match	trop	4	1	y	0.66432
358.1422	0.0	+	38	verb	phrase	1	1	match	tôt	5	1	y	0.4965
358.6921	0.2	chd	38	verb	phrase	1	2	match	tôt	5	1	y	0.4965
358.8921	0.0	+	38	verb	phrase	1	3	match	tôt	5	1	y	0.4965
359.2921	0.2	gjfq	38	verb	phrase	1	4	match	tôt	5	1	y	0.4965
359.49199999999996	0.0	+	38	verb	phrase	1	5	match	tôt	5	1	y	0.4965
359.89200000000005	0.2	njsf	38	verb	phrase	1	6	match	tôt	5	1	y	0.4965
360.092	0.0	+	38	verb	phrase	1	7	match	tôt	5	1	y	0.4965
360.49199999999996	0.2	bftwcs	38	verb	phrase	1	8	match	tôt	5	1	y	0.4965
360.69190000000003	0.0	+	38	verb	phrase	1	9	match	tôt	5	1	y	0.4965
361.0919	0.2	tôt	38	verb	phrase	1	10	match	tôt	5	1	y	0.4965
361.29189999999994	0.0	+	38	verb	phrase	1	11	match	tôt	5	1	y	0.4965
361.69190000000003	0.0	+	38	verb	phrase	1	12	match	tôt	5	1	y	0.4965
363.69169999999997	0.0	TÔT	38	verb	phrase	1	13	match	tôt	5	1	y	0.4965
364.25829999999996	0.0	+	38	verb	phrase	1	14	match	tôt	5	1	y	0.4965
364.18820000000005	0.0	[response]	38	verb	phrase	1	15	match	tôt	5	1	y	0.4965
374.09079999999994	0.0	+	39	noun	phrase	1	1	nomatch	tablier	-1	1	p	0.68808
374.64070000000004	0.2	bxjrpnd	39	noun	phrase	1	2	nomatch	tablier	-1	1	p	0.68808
374.84069999999997	0.0	+	39	noun	phrase	1	3	nomatch	tablier	-1	1	p	0.68808
375.24069999999995	0.2	jpqd	39	noun	phrase	1	4	nomatch	tablier	-1	1	p	0.68808
375.4407	0.0	+	39	noun	phrase	1	5	nomatch	tablier	-1	1	p	0.68808
375.8406	0.2	fml	39	noun	phrase	1	6	nomatch	tablier	-1	1	p	0.68808
376.04060000000004	0.0	+	39	noun	phrase	1	7	nomatch	tablier	-1	1	p	0.68808
376.4406	0.2	mths	39	noun	phrase	1	8	nomatch	tablier	-1	1	p	0.68808
376.64059999999995	0.0	+	39	noun	phrase	1	9	nomatch	tablier	-1	1	p	0.68808
377.04049999999995	0.2	sablier	39	noun	phrase	1	10	nomatch	tablier	-1	1	p	0.68808
377.2405	0.0	+	39	noun	phrase	1	11	nomatch	tablier	-1	1	p	0.68808
377.6405	0.0	+	39	noun	phrase	1	12	nomatch	tablier	-1	1	p	0.68808
379.6403	0.0	TABLIER	39	noun	phrase	1	13	nomatch	tablier	-1	1	p	0.68808
380.39020000000005	0.0	+	39	noun	phrase	1	14	nomatch	tablier	-1	1	p	0.68808
380.3284	0.0	[response]	39	noun	phrase	1	15	nomatch	tablier	-1	1	p	0.68808
382.04010000000005	0.0	+	40	verb	phrase	3	1	match	plus	4	1	y	0.61811
382.59000000000003	0.2	kqbvm	40	verb	phrase	3	2	match	plus	4	1	y	0.61811
382.78999999999996	0.0	+	40	verb	phrase	3	3	match	plus	4	1	y	0.61811
383.19000000000005	0.2	hkr	40	verb	phrase	3	4	match	plus	4	1	y	0.61811
383.39	0.0	+	40	verb	phrase	3	5	match	plus	4	1	y	0.61811
383.7899	0.2	va	40	verb	phrase	3	6	match	plus	4	1	y	0.61811
383.98990000000003	0.0	+	40	verb	phrase	3	7	match	plus	4	1	y	0.61811
384.3899	0.2	plus	40	verb	phrase	3	8	match	plus	4	1	y	0.61811
384.58989999999994	0.0	+	40	verb	phrase	3	9	match	plus	4	1	y	0.61811
384.98979999999995	0.2	plonger	40	verb	phrase	3	10	match	plus	4	1	y	0.61811
385.1898	0.0	+	40	verb	phrase	3	11	match	plus	4	1	y	0.61811
385.58979999999997	0.0	+	40	verb	phrase	3	12	match	plus	4	1	y	0.61811
387.5896	0.0	PLUS	40	verb	phrase	3	13	match	plus	4	1	y	0.61811
388.27290000000005	0.0	+	40	verb	phrase	3	14	match	plus	4	1	y	0.61811
388.20770000000005	0.0	[response]	40	verb	phrase	3	15	match	plus	4	1	y	0.61811
389.98940000000005	0.0	+	41	noun	list	1	1	match	vite	5	1	y	0.63093
390.5394	0.2	hdfl	41	noun	list	1	2	match	vite	5	1	y	0.63093
390.73929999999996	0.0	+	41	noun	list	1	3	match	vite	5	1	y	0.63093
391.13930000000005	0.2	jpqd	41	noun	list	1	4	match	vite	5	1	y	0.63093
391.3393	0.0	+	41	noun	list	1	5	match	vite	5	1	y	0.63093
391.7392	0.2	vp	41	noun	list	1	6	match	vite	5	1	y	0.63093
391.9392	0.0	+	41	noun	list	1	7	match	vite	5	1	y	0.63093
392.3392	0.2	zsdfgc	41	noun	list	1	8	match	vite	5	1	y	0.63093
392.53920000000005	0.0	+	41	noun	list	1	9	match	vite	5	1	y	0.63093
392.93910000000005	0.2	vite	41	noun	list	1	10	match	vite	5	1	y	0.63093
393.1391	0.0	+	41	noun	list	1	11	match	vite	5	1	y	0.63093
393.53909999999996	0.0	+	41	noun	list	1	12	match	vite	5	1	y	0.63093
395.5389	0.0	VITE	41	noun	list	1	13	match	vite	5	1	y	0.63093
396.23879999999997	0.0	+	41	noun	list	1	14	match	vite	5	1	y	0.63093
396.1698	0.0	[response]	41	noun	list	1	15	match	vite	5	1	y	0.63093
397.93870000000004	0.0	+	42	verb	phrase	3	1	nomatch	tard	-1	1	p	0.85373
398.4887	0.2	kwm	42	verb	phrase	3	2	nomatch	tard	-1	1	p	0.85373
398.68859999999995	0.0	+	42	verb	phrase	3	3	nomatch	tard	-1	1	p	0.85373
399.08860000000004	0.2	pnsd	42	verb	phrase	3	4	nomatch	tard	-1	1	p	0.85373
399.2886	0.0	+	42	verb	phrase	3	5	nomatch	tard	-1	1	p	0.85373
399.68859999999995	0.2	doit	42	verb	phrase	3	6	nomatch	tard	-1	1	p	0.85373
399.8885	0.0	+	42	verb	phrase	3	7	nomatch	tard	-1	1	p	0.85373
400.2885	0.2	jongler	42	verb	phrase	3	8	nomatch	tard	-1	1	p	0.85373
400.48850000000004	0.0	+	42	verb	phrase	3	9	nomatch	tard	-1	1	p	0.85373
400.88840000000005	0.2	loin	42	verb	phrase	3	10	nomatch	tard	-1	1	p	0.85373
401.0884	0.0	+	42	verb	phrase	3	11	nomatch	tard	-1	1	p	0.85373
401.48839999999996	0.0	+	42	verb	phrase	3	12	nomatch	tard	-1	1	p	0.85373
403.4882	0.0	TARD	42	verb	phrase	3	13	nomatch	tard	-1	1	p	0.85373
404.4048	0.0	+	42	verb	phrase	3	14	nomatch	tard	-1	1	p	0.85373
404.342	0.0	[response]	42	verb	phrase	3	15	nomatch	tard	-1	1	p	0.85373
405.88800000000003	0.0	+	43	verb	list	1	1	match	grand	5	1	y	0.50008
406.438	0.2	pxtlngw	43	verb	list	1	2	match	grand	5	1	y	0.50008
406.63789999999995	0.0	+	43	verb	list	1	3	match	grand	5	1	y	0.50008
407.03790000000004	0.2	zpwn	43	verb	list	1	4	match	grand	5	1	y	0.50008
407.23789999999997	0.0	+	43	verb	list	1	5	match	grand	5	1	y	0.50008
407.63789999999995	0.2	njsf	43	verb	list	1	6	match	grand	5	1	y	0.50008
407.8378	0.0	+	43	verb	list	1	7	match	grand	5	1	y	0.50008
408.2378	0.2	pvhtxrz	43	verb	list	1	8	match	grand	5	1	y	0.50008
408.43780000000004	0.0	+	43	verb	list	1	9	match	grand	5	1	y	0.50008
408.8378	0.2	grand	43	verb	list	1	10	match	grand	5	1	y	0.50008
409.0377	0.0	+	43	verb	list	1	11	match	grand	5	1	y	0.50008
409.43769999999995	0.0	+	43	verb	list	1	12	match	grand	5	1	y	0.50008
411.4375	0.0	GRAND	43	verb	list	1	13	match	grand	5	1	y	0.50008
412.0041	0.0	+	43	verb	list	1	14	match	grand	5	1	y	0.50008
411.9376	0.0	[response]	43	verb	list	1	15	match	grand	5	1	y	0.50008
421.8366	0.0	+	44	noun	phrase	4	1	nomatch	leur	-1	1	p	0.66564
422.38660000000004	0.2	hwqrn	44	noun	phrase	4	2	nomatch	leur	-1	1	p	0.66564
422.5866	0.0	+	44	noun	phrase	4	3	nomatch	leur	-1	1	p	0.66564
422.9865	0.2	pour	44	noun	phrase	4	4	nomatch	leur	-1	1	p	0.66564
423.1865	0.0	+	44	noun	phrase	4	5	nomatch	leur	-1	1	p	0.66564
423.5865	0.2	mon	44	noun	phrase	4	6	nomatch	leur	-1	1	p	0.66564
423.78650000000005	0.0	+	44	noun	phrase	4	7	nomatch	leur	-1	1	p	0.66564
424.18640000000005	0.2	sablier	44	noun	phrase	4	8	nomatch	leur	-1	1	p	0.66564
424.3864	0.0	+	44	noun	phrase	4	9	nomatch	leur	-1	1	p	0.66564
424.78639999999996	0.2	bleu	44	noun	phrase	4	10	nomatch	leur	-1	1	p	0.66564
424.9864	0.0	+	44	noun	phrase	4	11	nomatch	leur	-1	1	p	0.66564
425.3863	0.0	+	44	noun	phrase	4	12	nomatch	leur	-1	1	p	0.66564
427.38609999999994	0.0	LEUR	44	noun	phrase	4	13	nomatch	leur	-1	1	p	0.66564
428.11940000000004	0.0	+	44	noun	phrase	4	14	nomatch	leur	-1	1	p	0.66564
428.05179999999996	0.0	[response]	44	noun	phrase	4	15	nomatch	leur	-1	1	p	0.66564
437.78520000000003	0.0	+	45	noun	list	3	1	match	va	3	1	y	0.69347
438.3352	0.2	qwvsnd	45	noun	list	3	2	match	va	3	1	y	0.69347
438.53520000000003	0.0	+	45	noun	list	3	3	match	va	3	1	y	0.69347
438.93510000000003	0.2	slvm	45	noun	list	3	4	match	va	3	1	y	0.69347
439.13509999999997	0.0	+	45	noun	list	3	5	match	va	3	1	y	0.69347
439.53509999999994	0.2	va	45	noun	list	3	6	match	va	3	1	y	0.69347
439.7351	0.0	+	45	noun	list	3	7	match	va	3	1	y	0.69347
440.135	0.2	cendrier	45	noun	list	3	8	match	va	3	1	y	0.69347
440.33500000000004	0.0	+	45	noun	list	3	9	match	va	3	1	y	0.69347
440.735	0.2	ainsi	45	noun	list	3	10	match	va	3	1	y	0.69347
440.93499999999995	0.0	+	45	noun	list	3	11	match	va	3	1	y	0.69347
441.33489999999995	0.0	+	45	noun	list	3	12	match	va	3	1	y	0.69347
443.3514	0.0	VA	45	noun	list	3	13	match	va	3	1	y	0.69347
444.1014	0.0	+	45	noun	list	3	14	match	va	3	1	y	0.69347
444.0449000000001	0.0	[response]	45	noun	list	3	15	match	va	3	1	y	0.69347
445.75120000000004	0.0	+	46	verb	phrase	3	1	match	voyager	5	1	y	0.50808
446.3012	0.2	tfm	46	verb	phrase	3	2	match	voyager	5	1	y	0.50808
446.50120000000004	0.0	+	46	verb	phrase	3	3	match	voyager	5	1	y	0.50808
446.90110000000004	0.2	zmbq	46	verb	phrase	3	4	match	voyager	5	1	y	0.50808
447.1011	0.0	+	46	verb	phrase	3	5	match	voyager	5	1	y	0.50808
447.50109999999995	0.2	doit	46	verb	phrase	3	6	match	voyager	5	1	y	0.50808
447.701	0.0	+	46	verb	phrase	3	7	match	voyager	5	1	y	0.50808
448.101	0.2	moins	46	verb	phrase	3	8	match	voyager	5	1	y	0.50808
448.30100000000004	0.0	+	46	verb	phrase	3	9	match	voyager	5	1	y	0.50808
448.701	0.2	voyager	46	verb	phrase	3	10	match	voyager	5	1	y	0.50808
448.9009	0.0	+	46	verb	phrase	3	11	match	voyager	5	1	y	0.50808
449.30089999999996	0.0	+	46	verb	phrase	3	12	match	voyager	5	1	y	0.50808
451.3007	0.0	VOYAGER	46	verb	phrase	3	13	match	voyager	5	1	y	0.50808
451.8673	0.0	+	46	verb	phrase	3	14	match	voyager	5	1	y	0.50808
451.8088	0.0	[response]	46	verb	phrase	3	15	match	voyager	5	1	y	0.50808
453.70050000000003	0.0	+	47	verb	phrase	1	1	match	beaucoup	5	1	y	0.53065
454.2505	0.2	sqfl	47	verb	phrase	1	2	match	beaucoup	5	1	y	0.53065
454.45050000000003	0.0	+	47	verb	phrase	1	3	match	beaucoup	5	1	y	0.53065
454.85040000000004	0.2	lzfq	47	verb	phrase	1	4	match	beaucoup	5	1	y	0.53065
455.05039999999997	0.0	+	47	verb	phrase	1	5	match	beaucoup	5	1	y	0.53065
455.45039999999995	0.2	njsf	47	verb	phrase	1	6	match	beaucoup	5	1	y	0.53065
455.6504	0.0	+	47	verb	phrase	1	7	match	beaucoup	5	1	y	0.53065
456.0503	0.2	fwsljkp	47	verb	phrase	1	8	match	beaucoup	5	1	y	0.53065
456.25030000000004	0.0	+	47	verb	phrase	1	9	match	beaucoup	5	1	y	0.53065
456.6503	0.2	beaucoup	47	verb	phrase	1	10	match	beaucoup	5	1	y	0.53065
456.85030000000006	0.0	+	47	verb	phrase	1	11	match	beaucoup	5	1	y	0.53065
457.25020000000006	0.0	+	47	verb	phrase	1	12	match	beaucoup	5	1	y	0.53065
459.25	0.0	BEAUCOUP	47	verb	phrase	1	13	match	beaucoup	5	1	y	0.53065
459.85	0.0	+	47	verb	phrase	1	14	match	beaucoup	5	1	y	0.53065
459.7807	0.0	[response]	47	verb	phrase	1	15	match	beaucoup	5	1	y	0.53065
461.6498	0.0	+	48	verb	phrase	4	1	nomatch	petit	-1	1	p	0.7986600000000001
462.1998	0.2	czmqsj	48	verb	phrase	4	2	nomatch	petit	-1	1	p	0.7986600000000001
462.3998	0.0	+	48	verb	phrase	4	3	nomatch	petit	-1	1	p	0.7986600000000001
462.79970000000003	0.2	paul	48	verb	phrase	4	4	nomatch	petit	-1	1	p	0.7986600000000001
462.9997000000001	0.0	+	48	verb	phrase	4	5	nomatch	petit	-1	1	p	0.7986600000000001
463.39970000000005	0.2	peut	48	verb	phrase	4	6	nomatch	petit	-1	1	p	0.7986600000000001
463.5997	0.0	+	48	verb	phrase	4	7	nomatch	petit	-1	1	p	0.7986600000000001
463.9996	0.2	plus	48	verb	phrase	4	8	nomatch	petit	-1	1	p	0.7986600000000001
464.19960000000003	0.0	+	48	verb	phrase	4	9	nomatch	petit	-1	1	p	0.7986600000000001
464.5996	0.2	jongler	48	verb	phrase	4	10	nomatch	petit	-1	1	p	0.7986600000000001
464.79960000000005	0.0	+	48	verb	phrase	4	11	nomatch	petit	-1	1	p	0.7986600000000001
465.19950000000006	0.0	+	48	verb	phrase	4	12	nomatch	petit	-1	1	p	0.7986600000000001
467.1994000000001	0.0	PETIT	48	verb	phrase	4	13	nomatch	petit	-1	1	p	0.7986600000000001
468.06590000000006	0.0	+	48	verb	phrase	4	14	nomatch	petit	-1	1	p	0.7986600000000001
467.99800000000005	0.0	[response]	48	verb	phrase	4	15	nomatch	petit	-1	1	p	0.7986600000000001
469.5991	0.0	+	49	noun	phrase	2	1	match	nouveau	4	1	y	0.72636
470.1491	0.2	vxrdq	49	noun	phrase	2	2	match	nouveau	4	1	y	0.72636
470.3491	0.0	+	49	noun	phrase	2	3	match	nouveau	4	1	y	0.72636
470.749	0.2	jpqd	49	noun	phrase	2	4	match	nouveau	4	1	y	0.72636
470.94900000000007	0.0	+	49	noun	phrase	2	5	match	nouveau	4	1	y	0.72636
471.34900000000005	0.2	blzh	49	noun	phrase	2	6	match	nouveau	4	1	y	0.72636
471.549	0.0	+	49	noun	phrase	2	7	match	nouveau	4	1	y	0.72636
471.9489	0.2	nouveau	49	noun	phrase	2	8	match	nouveau	4	1	y	0.72636
472.1489	0.0	+	49	noun	phrase	2	9	match	nouveau	4	1	y	0.72636
472.5489	0.2	sablier	49	noun	phrase	2	10	match	nouveau	4	1	y	0.72636
472.74890000000005	0.0	+	49	noun	phrase	2	11	match	nouveau	4	1	y	0.72636
473.14880000000005	0.0	+	49	noun	phrase	2	12	match	nouveau	4	1	y	0.72636
475.1487000000001	0.0	NOUVEAU	49	noun	phrase	2	13	match	nouveau	4	1	y	0.72636
475.93190000000004	0.0	+	49	noun	phrase	2	14	match	nouveau	4	1	y	0.72636
475.875	0.0	[response]	49	noun	phrase	2	15	match	nouveau	4	1	y	0.72636
477.5484	0.0	+	50	verb	phrase	1	1	nomatch	moins	-1	1	p	0.81452
478.0984000000001	0.2	hvxtl	50	verb	phrase	1	2	nomatch	moins	-1	1	p	0.81452
478.2984	0.0	+	50	verb	phrase	1	3	nomatch	moins	-1	1	p	0.81452
478.6984	0.2	pnsd	50	verb	phrase	1	4	nomatch	moins	-1	1	p	0.81452
478.89830000000006	0.0	+	50	verb	phrase	1	5	nomatch	moins	-1	1	p	0.81452
479.29830000000004	0.2	vp	50	verb	phrase	1	6	nomatch	moins	-1	1	p	0.81452
479.4983	0.0	+	50	verb	phrase	1	7	nomatch	moins	-1	1	p	0.81452
479.89830000000006	0.2	vqrhldg	50	verb	phrase	1	8	nomatch	moins	-1	1	p	0.81452
480.0982	0.0	+	50	verb	phrase	1	9	nomatch	moins	-1	1	p	0.81452
480.4982	0.2	trop	50	verb	phrase	1	10	nomatch	moins	-1	1	p	0.81452
480.69820000000004	0.0	+	50	verb	phrase	1	11	nomatch	moins	-1	1	p	0.81452
481.09810000000004	0.0	+	50	verb	phrase	1	12	nomatch	moins	-1	1	p	0.81452
483.09800000000007	0.0	MOINS	50	verb	phrase	1	13	nomatch	moins	-1	1	p	0.81452
483.98120000000006	0.0	+	50	verb	phrase	1	14	nomatch	moins	-1	1	p	0.81452
483.9125	0.0	[response]	50	verb	phrase	1	15	nomatch	moins	-1	1	p	0.81452
485.4978	0.0	+	51	verb	list	1	1	nomatch	tablier	-1	1	p	0.79002
486.0477000000001	0.2	fzcwrxs	51	verb	list	1	2	nomatch	tablier	-1	1	p	0.79002
486.2477	0.0	+	51	verb	list	1	3	nomatch	tablier	-1	1	p	0.79002
486.6477	0.2	xhvf	51	verb	list	1	4	nomatch	tablier	-1	1	p	0.79002
486.84760000000006	0.0	+	51	verb	list	1	5	nomatch	tablier	-1	1	p	0.79002
487.24760000000003	0.2	fml	51	verb	list	1	6	nomatch	tablier	-1	1	p	0.79002
487.4476000000001	0.0	+	51	verb	list	1	7	nomatch	tablier	-1	1	p	0.79002
487.84760000000006	0.2	fwsljkp	51	verb	list	1	8	nomatch	tablier	-1	1	p	0.79002
488.0475	0.0	+	51	verb	list	1	9	nomatch	tablier	-1	1	p	0.79002
488.4475	0.2	noir	51	verb	list	1	10	nomatch	tablier	-1	1	p	0.79002
488.64750000000004	0.0	+	51	verb	list	1	11	nomatch	tablier	-1	1	p	0.79002
489.0475	0.0	+	51	verb	list	1	12	nomatch	tablier	-1	1	p	0.79002
491.04730000000006	0.0	TABLIER	51	verb	list	1	13	nomatch	tablier	-1	1	p	0.79002
491.8972	0.0	+	51	verb	list	1	14	nomatch	tablier	-1	1	p	0.79002
491.8373	0.0	[response]	51	verb	list	1	15	nomatch	tablier	-1	1	p	0.79002
501.44640000000004	0.0	+	52	verb	phrase	4	1	match	adam	2	1	y	1.11
501.9963	0.2	pltdrmc	52	verb	phrase	4	2	match	adam	2	1	y	1.11
502.19630000000006	0.0	+	52	verb	phrase	4	3	match	adam	2	1	y	1.11
502.59630000000004	0.2	adam	52	verb	phrase	4	4	match	adam	2	1	y	1.11
502.7963	0.0	+	52	verb	phrase	4	5	match	adam	2	1	y	1.11
503.1962	0.2	doit	52	verb	phrase	4	6	match	adam	2	1	y	1.11
503.3962	0.0	+	52	verb	phrase	4	7	match	adam	2	1	y	1.11
503.7962	0.2	trop	52	verb	phrase	4	8	match	adam	2	1	y	1.11
503.99620000000004	0.0	+	52	verb	phrase	4	9	match	adam	2	1	y	1.11
504.39610000000005	0.2	patiner	52	verb	phrase	4	10	match	adam	2	1	y	1.11
504.5961	0.0	+	52	verb	phrase	4	11	match	adam	2	1	y	1.11
504.99610000000007	0.0	+	52	verb	phrase	4	12	match	adam	2	1	y	1.11
506.9959	0.0	ADAM	52	verb	phrase	4	13	match	adam	2	1	y	1.11
508.1625	0.0	+	52	verb	phrase	4	14	match	adam	2	1	y	1.11
508.1059	0.0	[response]	52	verb	phrase	4	15	match	adam	2	1	y	1.11
509.39570000000003	0.0	+	53	verb	list	2	1	match	chasser	5	1	y	0.75846
509.9456	0.2	pqkns	53	verb	list	2	2	match	chasser	5	1	y	0.75846
510.14560000000006	0.0	+	53	verb	list	2	3	match	chasser	5	1	y	0.75846
510.54560000000004	0.2	zpwn	53	verb	list	2	4	match	chasser	5	1	y	0.75846
510.7456000000001	0.0	+	53	verb	list	2	5	match	chasser	5	1	y	0.75846
511.14549999999997	0.2	njsf	53	verb	list	2	6	match	chasser	5	1	y	0.75846
511.3455	0.0	+	53	verb	list	2	7	match	chasser	5	1	y	0.75846
511.7455	0.2	nouveau	53	verb	list	2	8	match	chasser	5	1	y	0.75846
511.94550000000004	0.0	+	53	verb	list	2	9	match	chasser	5	1	y	0.75846
512.3454	0.2	chasser	53	verb	list	2	10	match	chasser	5	1	y	0.75846
512.5454	0.0	+	53	verb	list	2	11	match	chasser	5	1	y	0.75846
512.9454000000001	0.0	+	53	verb	list	2	12	match	chasser	5	1	y	0.75846
514.9452	0.0	CHASSER	53	verb	list	2	13	match	chasser	5	1	y	0.75846
515.7618	0.0	+	53	verb	list	2	14	match	chasser	5	1	y	0.75846
515.7037	0.0	[response]	53	verb	list	2	15	match	chasser	5	1	y	0.75846
517.345	0.0	+	54	verb	phrase	4	1	nomatch	tôt	-1	1	p	0.62897
517.8949	0.2	ghqspt	54	verb	phrase	4	2	nomatch	tôt	-1	1	p	0.62897
518.0949	0.0	+	54	verb	phrase	4	3	nomatch	tôt	-1	1	p	0.62897
518.4949	0.2	jean	54	verb	phrase	4	4	nomatch	tôt	-1	1	p	0.62897
518.6949000000001	0.0	+	54	verb	phrase	4	5	nomatch	tôt	-1	1	p	0.62897
519.0948000000001	0.2	peut	54	verb	phrase	4	6	nomatch	tôt	-1	1	p	0.62897
519.2948	0.0	+	54	verb	phrase	4	7	nomatch	tôt	-1	1	p	0.62897
519.6948	0.2	parader	54	verb	phrase	4	8	nomatch	tôt	-1	1	p	0.62897
519.8948	0.0	+	54	verb	phrase	4	9	nomatch	tôt	-1	1	p	0.62897
520.2947	0.2	ainsi	54	verb	phrase	4	10	nomatch	tôt	-1	1	p	0.62897
520.4947000000001	0.0	+	54	verb	phrase	4	11	nomatch	tôt	-1	1	p	0.62897
520.8947000000001	0.0	+	54	verb	phrase	4	12	nomatch	tôt	-1	1	p	0.62897
522.8945	0.0	TÔT	54	verb	phrase	4	13	nomatch	tôt	-1	1	p	0.62897
523.5778	0.0	+	54	verb	phrase	4	14	nomatch	tôt	-1	1	p	0.62897
523.5235	0.0	[response]	54	verb	phrase	4	15	nomatch	tôt	-1	1	p	0.62897
525.2943	0.0	+	55	verb	list	1	1	nomatch	paul	-1	1	p	0.78194
525.8443	0.2	mvdzrk	55	verb	list	1	2	nomatch	paul	-1	1	p	0.78194
526.0442	0.0	+	55	verb	list	1	3	nomatch	paul	-1	1	p	0.78194
526.4442	0.2	fnlw	55	verb	list	1	4	nomatch	paul	-1	1	p	0.78194
526.6442000000001	0.0	+	55	verb	list	1	5	nomatch	paul	-1	1	p	0.78194
527.0442	0.2	vp	55	verb	list	1	6	nomatch	paul	-1	1	p	0.78194
527.2441	0.0	+	55	verb	list	1	7	nomatch	paul	-1	1	p	0.78194
527.6441	0.2	tpdzsgn	55	verb	list	1	8	nomatch	paul	-1	1	p	0.78194
527.8441	0.0	+	55	verb	list	1	9	nomatch	paul	-1	1	p	0.78194
528.244	0.2	beau	55	verb	list	1	10	nomatch	paul	-1	1	p	0.78194
528.4440000000001	0.0	+	55	verb	list	1	11	nomatch	paul	-1	1	p	0.78194
528.844	0.0	+	55	verb	list	1	12	nomatch	paul	-1	1	p	0.78194
530.8438	0.0	PAUL	55	verb	list	1	13	nomatch	paul	-1	1	p	0.78194
531.6937	0.0	+	55	verb	list	1	14	nomatch	paul	-1	1	p	0.78194
531.6258	0.0	[response]	55	verb	list	1	15	nomatch	paul	-1	1	p	0.78194
533.2436	0.0	+	56	verb	list	4	1	match	doit	3	1	y	1.024
533.7936000000001	0.2	qnjrs	56	verb	list	4	2	match	doit	3	1	y	1.024
533.9935	0.0	+	56	verb	list	4	3	match	doit	3	1	y	1.024
534.3935	0.2	avec	56	verb	list	4	4	match	doit	3	1	y	1.024
534.5935000000001	0.0	+	56	verb	list	4	5	match	doit	3	1	y	1.024
534.9935	0.2	doit	56	verb	list	4	6	match	doit	3	1	y	1.024
535.1934	0.0	+	56	verb	list	4	7	match	doit	3	1	y	1.024
535.5934	0.2	petit	56	verb	list	4	8	match	doit	3	1	y	1.024
535.7934	0.0	+	56	verb	list	4	9	match	doit	3	1	y	1.024
536.1934	0.2	patiner	56	verb	list	4	10	match	doit	3	1	y	1.024
536.3933000000001	0.0	+	56	verb	list	4	11	match	doit	3	1	y	1.024
536.7933	0.0	+	56	verb	list	4	12	match	doit	3	1	y	1.024
538.7931	0.0	DOIT	56	verb	list	4	13	match	doit	3	1	y	1.024
539.8764	0.0	+	56	verb	list	4	14	match	doit	3	1	y	1.024
539.8171	0.0	[response]	56	verb	list	4	15	match	doit	3	1	y	1.024
549.1922000000001	0.0	+	57	verb	list	2	1	nomatch	loin	-1	1	p	0.83239
549.7422	0.2	qxklwp	57	verb	list	2	2	nomatch	loin	-1	1	p	0.83239
549.9422000000001	0.0	+	57	verb	list	2	3	nomatch	loin	-1	1	p	0.83239
550.3421000000001	0.2	zmbq	57	verb	list	2	4	nomatch	loin	-1	1	p	0.83239
550.5421	0.0	+	57	verb	list	2	5	nomatch	loin	-1	1	p	0.83239
550.9421	0.2	blzh	57	verb	list	2	6	nomatch	loin	-1	1	p	0.83239
551.1421	0.0	+	57	verb	list	2	7	nomatch	loin	-1	1	p	0.83239
551.542	0.2	galoper	57	verb	list	2	8	nomatch	loin	-1	1	p	0.83239
551.7420000000001	0.0	+	57	verb	list	2	9	nomatch	loin	-1	1	p	0.83239
552.142	0.2	noir	57	verb	list	2	10	nomatch	loin	-1	1	p	0.83239
552.342	0.0	+	57	verb	list	2	11	nomatch	loin	-1	1	p	0.83239
552.7419	0.0	+	57	verb	list	2	12	nomatch	loin	-1	1	p	0.83239
554.7417	0.0	LOIN	57	verb	list	2	13	nomatch	loin	-1	1	p	0.83239
555.6417	0.0	+	57	verb	list	2	14	nomatch	loin	-1	1	p	0.83239
555.5741	0.0	[response]	57	verb	list	2	15	nomatch	loin	-1	1	p	0.83239
557.1415000000001	0.0	+	58	verb	list	4	1	nomatch	peut	-1	1	p	0.62312
557.6915	0.2	scb	58	verb	list	4	2	nomatch	peut	-1	1	p	0.62312
557.8915000000001	0.0	+	58	verb	list	4	3	nomatch	peut	-1	1	p	0.62312
558.2914000000001	0.2	yves	58	verb	list	4	4	nomatch	peut	-1	1	p	0.62312
558.4914	0.0	+	58	verb	list	4	5	nomatch	peut	-1	1	p	0.62312
558.8914	0.2	son	58	verb	list	4	6	nomatch	peut	-1	1	p	0.62312
559.0914	0.0	+	58	verb	list	4	7	nomatch	peut	-1	1	p	0.62312
559.4913	0.2	parader	58	verb	list	4	8	nomatch	peut	-1	1	p	0.62312
559.6913000000001	0.0	+	58	verb	list	4	9	nomatch	peut	-1	1	p	0.62312
560.0913	0.2	rouge	58	verb	list	4	10	nomatch	peut	-1	1	p	0.62312
560.2913	0.0	+	58	verb	list	4	11	nomatch	peut	-1	1	p	0.62312
560.6912	0.0	+	58	verb	list	4	12	nomatch	peut	-1	1	p	0.62312
562.6911	0.0	PEUT	58	verb	list	4	13	nomatch	peut	-1	1	p	0.62312
563.3743000000001	0.0	+	58	verb	list	4	14	nomatch	peut	-1	1	p	0.62312
563.3142	0.0	[response]	58	verb	list	4	15	nomatch	peut	-1	1	p	0.62312
565.0908000000001	0.0	+	59	verb	phrase	3	1	nomatch	mon	-1	1	p	0.92226
565.6408	0.2	jrbwc	59	verb	phrase	3	2	nomatch	mon	-1	1	p	0.92226
565.8408000000001	0.0	+	59	verb	phrase	3	3	nomatch	mon	-1	1	p	0.92226
566.2407000000001	0.2	xhvf	59	verb	phrase	3	4	nomatch	mon	-1	1	p	0.92226
566.4407	0.0	+	59	verb	phrase	3	5	nomatch	mon	-1	1	p	0.92226
566.8407	0.2	doit	59	verb	phrase	3	6	nomatch	mon	-1	1	p	0.92226
567.0407	0.0	+	59	verb	phrase	3	7	nomatch	mon	-1	1	p	0.92226
567.4406	0.2	trop	59	verb	phrase	3	8	nomatch	mon	-1	1	p	0.92226
567.6406000000001	0.0	+	59	verb	phrase	3	9	nomatch	mon	-1	1	p	0.92226
568.0406	0.2	jongler	59	verb	phrase	3	10	nomatch	mon	-1	1	p	0.92226
568.2406	0.0	+	59	verb	phrase	3	11	nomatch	mon	-1	1	p	0.92226
568.6405	0.0	+	59	verb	phrase	3	12	nomatch	mon	-1	1	p	0.92226
570.6404	0.0	MON	59	verb	phrase	3	13	nomatch	mon	-1	1	p	0.92226
571.6236	0.0	+	59	verb	phrase	3	14	nomatch	mon	-1	1	p	0.92226
571.5626	0.0	[response]	59	verb	phrase	3	15	nomatch	mon	-1	1	p	0.92226
581.0394	0.0	+	60	noun	phrase	2	1	nomatch	grenier	-1	1	p	0.69716
581.5894000000001	0.2	wxmcpng	60	noun	phrase	2	2	nomatch	grenier	-1	1	p	0.69716
581.7894	0.0	+	60	noun	phrase	2	3	nomatch	grenier	-1	1	p	0.69716
582.1894	0.2	fnlw	60	noun	phrase	2	4	nomatch	grenier	-1	1	p	0.69716
582.3893	0.0	+	60	noun	phrase	2	5	nomatch	grenier	-1	1	p	0.69716
582.7893	0.2	tvw	60	noun	phrase	2	6	nomatch	grenier	-1	1	p	0.69716
582.9893000000001	0.0	+	60	noun	phrase	2	7	nomatch	grenier	-1	1	p	0.69716
583.3893	0.2	nouveau	60	noun	phrase	2	8	nomatch	grenier	-1	1	p	0.69716
583.5892	0.0	+	60	noun	phrase	2	9	nomatch	grenier	-1	1	p	0.69716
583.9892	0.2	tablier	60	noun	phrase	2	10	nomatch	grenier	-1	1	p	0.69716
584.1892	0.0	+	60	noun	phrase	2	11	nomatch	grenier	-1	1	p	0.69716
584.5891	0.0	+	60	noun	phrase	2	12	nomatch	grenier	-1	1	p	0.69716
586.5895	0.0	GRENIER	60	noun	phrase	2	13	nomatch	grenier	-1	1	p	0.69716
587.3556	0.0	+	60	noun	phrase	2	14	nomatch	grenier	-1	1	p	0.69716
587.2866000000001	0.0	[response]	60	noun	phrase	2	15	nomatch	grenier	-1	1	p	0.69716
588.9888000000001	0.0	+	61	verb	list	4	1	nomatch	doit	-1	1	p	0.77271
589.5387000000001	0.2	kzbqrgd	61	verb	list	4	2	nomatch	doit	-1	1	p	0.77271
589.7387	0.0	+	61	verb	list	4	3	nomatch	doit	-1	1	p	0.77271
590.1387	0.2	sous	61	verb	list	4	4	nomatch	doit	-1	1	p	0.77271
590.3386	0.0	+	61	verb	list	4	5	nomatch	doit	-1	1	p	0.77271
590.7386	0.2	va	61	verb	list	4	6	nomatch	doit	-1	1	p	0.77271
590.9386000000001	0.0	+	61	verb	list	4	7	nomatch	doit	-1	1	p	0.77271
591.3386	0.2	grand	61	verb	list	4	8	nomatch	doit	-1	1	p	0.77271
591.5385	0.0	+	61	verb	list	4	9	nomatch	doit	-1	1	p	0.77271
591.9385	0.2	jongler	61	verb	list	4	10	nomatch	doit	-1	1	p	0.77271
592.1385	0.0	+	61	verb	list	4	11	nomatch	doit	-1	1	p	0.77271
592.5385	0.0	+	61	verb	list	4	12	nomatch	doit	-1	1	p	0.77271
594.5383	0.0	DOIT	61	verb	list	4	13	nomatch	doit	-1	1	p	0.77271
595.3715000000001	0.0	+	61	verb	list	4	14	nomatch	doit	-1	1	p	0.77271
595.311	0.0	[response]	61	verb	list	4	15	nomatch	doit	-1	1	p	0.77271
596.9381000000001	0.0	+	62	noun	phrase	4	1	match	pour	2	1	y	0.7926000000000001
597.488	0.2	tjqrbn	62	noun	phrase	4	2	match	pour	2	1	y	0.7926000000000001
597.688	0.0	+	62	noun	phrase	4	3	match	pour	2	1	y	0.7926000000000001
598.0880000000001	0.2	pour	62	noun	phrase	4	4	match	pour	2	1	y	0.7926000000000001
598.288	0.0	+	62	noun	phrase	4	5	match	pour	2	1	y	0.7926000000000001
598.6879	0.2	mon	62	noun	phrase	4	6	match	pour	2	1	y	0.7926000000000001
598.8879000000001	0.0	+	62	noun	phrase	4	7	match	pour	2	1	y	0.7926000000000001
599.2879	0.2	beau	62	noun	phrase	4	8	match	pour	2	1	y	0.7926000000000001
599.4879000000001	0.0	+	62	noun	phrase	4	9	match	pour	2	1	y	0.7926000000000001
599.8878	0.2	boîtier	62	noun	phrase	4	10	match	pour	2	1	y	0.7926000000000001
600.0878	0.0	+	62	noun	phrase	4	11	match	pour	2	1	y	0.7926000000000001
600.4878	0.0	+	62	noun	phrase	4	12	match	pour	2	1	y	0.7926000000000001
602.4876	0.0	POUR	62	noun	phrase	4	13	match	pour	2	1	y	0.7926000000000001
603.3375	0.0	+	62	noun	phrase	4	14	match	pour	2	1	y	0.7926000000000001
603.2802	0.0	[response]	62	noun	phrase	4	15	match	pour	2	1	y	0.7926000000000001
604.8874000000001	0.0	+	63	verb	list	1	1	nomatch	patiner	-1	1	p	0.56314
605.4373	0.2	lnb	63	verb	list	1	2	nomatch	patiner	-1	1	p	0.56314
605.6373	0.0	+	63	verb	list	1	3	nomatch	patiner	-1	1	p	0.56314
606.0373000000001	0.2	pnsd	63	verb	list	1	4	nomatch	patiner	-1	1	p	0.56314
606.2373	0.0	+	63	verb	list	1	5	nomatch	patiner	-1	1	p	0.56314
606.6372	0.2	blzh	63	verb	list	1	6	nomatch	patiner	-1	1	p	0.56314
606.8372	0.0	+	63	verb	list	1	7	nomatch	patiner	-1	1	p	0.56314
607.2372	0.2	xgmdrft	63	verb	list	1	8	nomatch	patiner	-1	1	p	0.56314
607.4372000000001	0.0	+	63	verb	list	1	9	nomatch	patiner	-1	1	p	0.56314
607.8371000000001	0.2	rouge	63	verb	list	1	10	nomatch	patiner	-1	1	p	0.56314
608.0371	0.0	+	63	verb	list	1	11	nomatch	patiner	-1	1	p	0.56314
608.4371	0.0	+	63	verb	list	1	12	nomatch	patiner	-1	1	p	0.56314
610.4369	0.0	PATINER	63	verb	list	1	13	nomatch	patiner	-1	1	p	0.56314
611.0702	0.0	+	63	verb	list	1	14	nomatch	patiner	-1	1	p	0.56314
611.0	0.0	[response]	63	verb	list	1	15	nomatch	patiner	-1	1	p	0.56314
612.8367000000001	0.0	+	64	noun	list	1	1	match	voilier	5	1	y	0.6597200000000001
613.3866	0.2	mdwrsvp	64	noun	list	1	2	match	voilier	5	1	y	0.6597200000000001
613.5866	0.0	+	64	noun	list	1	3	match	voilier	5	1	y	0.6597200000000001
613.9866000000001	0.2	hkr	64	noun	list	1	4	match	voilier	5	1	y	0.6597200000000001
614.1866	0.0	+	64	noun	list	1	5	match	voilier	5	1	y	0.6597200000000001
614.5865	0.2	fml	64	noun	list	1	6	match	voilier	5	1	y	0.6597200000000001
614.7865	0.0	+	64	noun	list	1	7	match	voilier	5	1	y	0.6597200000000001
615.1865	0.2	mgkc	64	noun	list	1	8	match	voilier	5	1	y	0.6597200000000001
615.3865000000001	0.0	+	64	noun	list	1	9	match	voilier	5	1	y	0.6597200000000001
615.7864000000001	0.2	voilier	64	noun	list	1	10	match	voilier	5	1	y	0.6597200000000001
615.9864	0.0	+	64	noun	list	1	11	match	voilier	5	1	y	0.6597200000000001
616.3864	0.0	+	64	noun	list	1	12	match	voilier	5	1	y	0.6597200000000001
618.3862	0.0	VOILIER	64	noun	list	1	13	match	voilier	5	1	y	0.6597200000000001
619.1028	0.0	+	64	noun	list	1	14	match	voilier	5	1	y	0.6597200000000001
619.0459000000002	0.0	[response]	64	noun	list	1	15	match	voilier	5	1	y	0.6597200000000001
620.7860000000001	0.0	+	65	verb	phrase	1	1	match	beaucoup	5	1	y	0.57624
621.336	0.2	whsnv	65	verb	phrase	1	2	match	beaucoup	5	1	y	0.57624
621.5359000000001	0.0	+	65	verb	phrase	1	3	match	beaucoup	5	1	y	0.57624
621.9359000000001	0.2	zmbq	65	verb	phrase	1	4	match	beaucoup	5	1	y	0.57624
622.1359	0.0	+	65	verb	phrase	1	5	match	beaucoup	5	1	y	0.57624
622.5358	0.2	vp	65	verb	phrase	1	6	match	beaucoup	5	1	y	0.57624
622.7358	0.0	+	65	verb	phrase	1	7	match	beaucoup	5	1	y	0.57624
623.1358	0.2	lhqmnzv	65	verb	phrase	1	8	match	beaucoup	5	1	y	0.57624
623.3358000000001	0.0	+	65	verb	phrase	1	9	match	beaucoup	5	1	y	0.57624
623.7357000000001	0.2	beaucoup	65	verb	phrase	1	10	match	beaucoup	5	1	y	0.57624
623.9357	0.0	+	65	verb	phrase	1	11	match	beaucoup	5	1	y	0.57624
624.3357	0.0	+	65	verb	phrase	1	12	match	beaucoup	5	1	y	0.57624
626.3355	0.0	BEAUCOUP	65	verb	phrase	1	13	match	beaucoup	5	1	y	0.57624
626.9688	0.0	+	65	verb	phrase	1	14	match	beaucoup	5	1	y	0.57624
626.9118000000001	0.0	[response]	65	verb	phrase	1	15	match	beaucoup	5	1	y	0.57624
628.7353	0.0	+	66	verb	phrase	2	1	match	patiner	4	1	y	0.63476
629.2853	0.2	hgnb	66	verb	phrase	2	2	match	patiner	4	1	y	0.63476
629.4852000000001	0.0	+	66	verb	phrase	2	3	match	patiner	4	1	y	0.63476
629.8852	0.2	lzfq	66	verb	phrase	2	4	match	patiner	4	1	y	0.63476
630.0852	0.0	+	66	verb	phrase	2	5	match	patiner	4	1	y	0.63476
630.4852000000001	0.2	njsf	66	verb	phrase	2	6	match	patiner	4	1	y	0.63476
630.6851	0.0	+	66	verb	phrase	2	7	match	patiner	4	1	y	0.63476
631.0851	0.2	patiner	66	verb	phrase	2	8	match	patiner	4	1	y	0.63476
631.2851	0.0	+	66	verb	phrase	2	9	match	patiner	4	1	y	0.63476
631.6851	0.2	tôt	66	verb	phrase	2	10	match	patiner	4	1	y	0.63476
631.885	0.0	+	66	verb	phrase	2	11	match	patiner	4	1	y	0.63476
632.2850000000001	0.0	+	66	verb	phrase	2	12	match	patiner	4	1	y	0.63476
634.2849	0.0	PATINER	66	verb	phrase	2	13	match	patiner	4	1	y	0.63476
634.9848000000001	0.0	+	66	verb	phrase	2	14	match	patiner	4	1	y	0.63476
634.9196000000001	0.0	[response]	66	verb	phrase	2	15	match	patiner	4	1	y	0.63476
652.6999000000001	0.0	+	67	verb	phrase	1	1	nomatch	doit	-1	1	p	0.6080100000000002
653.2498	0.2	txbdgv	67	verb	phrase	1	2	nomatch	doit	-1	1	p	0.6080100000000002
653.4498	0.0	+	67	verb	phrase	1	3	nomatch	doit	-1	1	p	0.6080100000000002
653.8498000000001	0.2	xhvf	67	verb	phrase	1	4	nomatch	doit	-1	1	p	0.6080100000000002
654.0498	0.0	+	67	verb	phrase	1	5	nomatch	doit	-1	1	p	0.6080100000000002
654.4497	0.2	smjp	67	verb	phrase	1	6	nomatch	doit	-1	1	p	0.6080100000000002
654.6497	0.0	+	67	verb	phrase	1	7	nomatch	doit	-1	1	p	0.6080100000000002
655.0497	0.2	dcsl	67	verb	phrase	1	8	nomatch	doit	-1	1	p	0.6080100000000002
655.2497000000001	0.0	+	67	verb	phrase	1	9	nomatch	doit	-1	1	p	0.6080100000000002
655.6496000000001	0.2	parader	67	verb	phrase	1	10	nomatch	doit	-1	1	p	0.6080100000000002
655.8496	0.0	+	67	verb	phrase	1	11	nomatch	doit	-1	1	p	0.6080100000000002
656.2496	0.0	+	67	verb	phrase	1	12	nomatch	doit	-1	1	p	0.6080100000000002
658.2494	0.0	DOIT	67	verb	phrase	1	13	nomatch	doit	-1	1	p	0.6080100000000002
658.916	0.0	+	67	verb	phrase	1	14	nomatch	doit	-1	1	p	0.6080100000000002
658.8574	0.0	[response]	67	verb	phrase	1	15	nomatch	doit	-1	1	p	0.6080100000000002
660.6492000000001	0.0	+	68	verb	list	3	1	nomatch	vieux	-1	1	p	0.5984300000000001
661.1992	0.2	lfcjq	68	verb	list	3	2	nomatch	vieux	-1	1	p	0.5984300000000001
661.3991	0.0	+	68	verb	list	3	3	nomatch	vieux	-1	1	p	0.5984300000000001
661.7991000000001	0.2	ckl	68	verb	list	3	4	nomatch	vieux	-1	1	p	0.5984300000000001
661.9991	0.0	+	68	verb	list	3	5	nomatch	vieux	-1	1	p	0.5984300000000001
662.399	0.2	va	68	verb	list	3	6	nomatch	vieux	-1	1	p	0.5984300000000001
662.599	0.0	+	68	verb	list	3	7	nomatch	vieux	-1	1	p	0.5984300000000001
662.999	0.2	nouveau	68	verb	list	3	8	nomatch	vieux	-1	1	p	0.5984300000000001
663.1990000000001	0.0	+	68	verb	list	3	9	nomatch	vieux	-1	1	p	0.5984300000000001
663.5989000000001	0.2	chasser	68	verb	list	3	10	nomatch	vieux	-1	1	p	0.5984300000000001
663.7989	0.0	+	68	verb	list	3	11	nomatch	vieux	-1	1	p	0.5984300000000001
664.1989	0.0	+	68	verb	list	3	12	nomatch	vieux	-1	1	p	0.5984300000000001
666.1987	0.0	VIEUX	68	verb	list	3	13	nomatch	vieux	-1	1	p	0.5984300000000001
666.8653	0.0	+	68	verb	list	3	14	nomatch	vieux	-1	1	p	0.5984300000000001
666.7972	0.0	[response]	68	verb	list	3	15	nomatch	vieux	-1	1	p	0.5984300000000001
668.5985000000001	0.0	+	69	verb	phrase	1	1	nomatch	vite	-1	1	p	0.7087900000000001
669.1485	0.2	gtm	69	verb	phrase	1	2	nomatch	vite	-1	1	p	0.7087900000000001
669.3484000000001	0.0	+	69	verb	phrase	1	3	nomatch	vite	-1	1	p	0.7087900000000001
669.7484000000001	0.2	hkr	69	verb	phrase	1	4	nomatch	vite	-1	1	p	0.7087900000000001
669.9484	0.0	+	69	verb	phrase	1	5	nomatch	vite	-1	1	p	0.7087900000000001
670.3484000000001	0.2	njsf	69	verb	phrase	1	6	nomatch	vite	-1	1	p	0.7087900000000001
670.5483	0.0	+	69	verb	phrase	1	7	nomatch	vite	-1	1	p	0.7087900000000001
670.9483	0.2	sdfbk	69	verb	phrase	1	8	nomatch	vite	-1	1	p	0.7087900000000001
671.1483000000001	0.0	+	69	verb	phrase	1	9	nomatch	vite	-1	1	p	0.7087900000000001
671.5483	0.2	galoper	69	verb	phrase	1	10	nomatch	vite	-1	1	p	0.7087900000000001
671.7482	0.0	+	69	verb	phrase	1	11	nomatch	vite	-1	1	p	0.7087900000000001
672.1482	0.0	+	69	verb	phrase	1	12	nomatch	vite	-1	1	p	0.7087900000000001
674.148	0.0	VITE	69	verb	phrase	1	13	nomatch	vite	-1	1	p	0.7087900000000001
674.9146000000001	0.0	+	69	verb	phrase	1	14	nomatch	vite	-1	1	p	0.7087900000000001
674.8568	0.0	[response]	69	verb	phrase	1	15	nomatch	vite	-1	1	p	0.7087900000000001
676.5478	0.0	+	70	verb	list	1	1	match	parader	5	1	y	0.73749
677.0978	0.2	mhdtsnr	70	verb	list	1	2	match	parader	5	1	y	0.73749
677.2978	0.0	+	70	verb	list	1	3	match	parader	5	1	y	0.73749
677.6977	0.2	xhvf	70	verb	list	1	4	match	parader	5	1	y	0.73749
677.8977	0.0	+	70	verb	list	1	5	match	parader	5	1	y	0.73749
678.2977000000001	0.2	blzh	70	verb	list	1	6	match	parader	5	1	y	0.73749
678.4976	0.0	+	70	verb	list	1	7	match	parader	5	1	y	0.73749
678.8976	0.2	fwjpz	70	verb	list	1	8	match	parader	5	1	y	0.73749
679.0976	0.0	+	70	verb	list	1	9	match	parader	5	1	y	0.73749
679.4976	0.2	parader	70	verb	list	1	10	match	parader	5	1	y	0.73749
679.6975	0.0	+	70	verb	list	1	11	match	parader	5	1	y	0.73749
680.0975000000001	0.0	+	70	verb	list	1	12	match	parader	5	1	y	0.73749
682.0973	0.0	PARADER	70	verb	list	1	13	match	parader	5	1	y	0.73749
682.8973	0.0	+	70	verb	list	1	14	match	parader	5	1	y	0.73749
682.8348000000001	0.0	[response]	70	verb	list	1	15	match	parader	5	1	y	0.73749
684.4971	0.0	+	71	verb	list	2	1	match	bleu	5	1	y	0.7378
685.0471	0.2	kpdh	71	verb	list	2	2	match	bleu	5	1	y	0.7378
685.2471	0.0	+	71	verb	list	2	3	match	bleu	5	1	y	0.7378
685.647	0.2	pnsd	71	verb	list	2	4	match	bleu	5	1	y	0.7378
685.847	0.0	+	71	verb	list	2	5	match	bleu	5	1	y	0.7378
686.2470000000001	0.2	tvw	71	verb	list	2	6	match	bleu	5	1	y	0.7378
686.447	0.0	+	71	verb	list	2	7	match	bleu	5	1	y	0.7378
686.8469	0.2	chasser	71	verb	list	2	8	match	bleu	5	1	y	0.7378
687.0469	0.0	+	71	verb	list	2	9	match	bleu	5	1	y	0.7378
687.4469	0.2	bleu	71	verb	list	2	10	match	bleu	5	1	y	0.7378
687.6469000000001	0.0	+	71	verb	list	2	11	match	bleu	5	1	y	0.7378
688.0469	0.0	+	71	verb	list	2	12	match	bleu	5	1	y	0.7378
690.0466	0.0	BLEU	71	verb	list	2	13	match	bleu	5	1	y	0.7378
690.8466000000001	0.0	+	71	verb	list	2	14	match	bleu	5	1	y	0.7378
690.7844	0.0	[response]	71	verb	list	2	15	match	bleu	5	1	y	0.7378
692.4464	0.0	+	72	verb	phrase	1	1	nomatch	rouler	-1	1	p	0.65939
692.9964	0.2	kfjcm	72	verb	phrase	1	2	nomatch	rouler	-1	1	p	0.65939
693.1964	0.0	+	72	verb	phrase	1	3	nomatch	rouler	-1	1	p	0.65939
693.5963	0.2	zmbq	72	verb	phrase	1	4	nomatch	rouler	-1	1	p	0.65939
693.7963	0.0	+	72	verb	phrase	1	5	nomatch	rouler	-1	1	p	0.65939
694.1964	0.2	vp	72	verb	phrase	1	6	nomatch	rouler	-1	1	p	0.65939
694.3963	0.0	+	72	verb	phrase	1	7	nomatch	rouler	-1	1	p	0.65939
694.7962	0.2	tbjvknlh	72	verb	phrase	1	8	nomatch	rouler	-1	1	p	0.65939
694.9962	0.0	+	72	verb	phrase	1	9	nomatch	rouler	-1	1	p	0.65939
695.3962	0.2	jongler	72	verb	phrase	1	10	nomatch	rouler	-1	1	p	0.65939
695.5962000000001	0.0	+	72	verb	phrase	1	11	nomatch	rouler	-1	1	p	0.65939
695.9961000000001	0.0	+	72	verb	phrase	1	12	nomatch	rouler	-1	1	p	0.65939
697.996	0.0	ROULER	72	verb	phrase	1	13	nomatch	rouler	-1	1	p	0.65939
698.7125	0.0	+	72	verb	phrase	1	14	nomatch	rouler	-1	1	p	0.65939
698.6553	0.0	[response]	72	verb	phrase	1	15	nomatch	rouler	-1	1	p	0.65939
700.3957	0.0	+	73	noun	phrase	2	1	match	casier	4	1	y	0.7707
700.9457	0.2	wkb	73	noun	phrase	2	2	match	casier	4	1	y	0.7707
701.1457	0.0	+	73	noun	phrase	2	3	match	casier	4	1	y	0.7707
701.5456	0.2	klgc	73	noun	phrase	2	4	match	casier	4	1	y	0.7707
701.7456000000001	0.0	+	73	noun	phrase	2	5	match	casier	4	1	y	0.7707
702.1456000000001	0.2	tvw	73	noun	phrase	2	6	match	casier	4	1	y	0.7707
702.3456	0.0	+	73	noun	phrase	2	7	match	casier	4	1	y	0.7707
702.7455	0.2	casier	73	noun	phrase	2	8	match	casier	4	1	y	0.7707
702.9455	0.0	+	73	noun	phrase	2	9	match	casier	4	1	y	0.7707
703.3455	0.2	bleu	73	noun	phrase	2	10	match	casier	4	1	y	0.7707
703.5455000000001	0.0	+	73	noun	phrase	2	11	match	casier	4	1	y	0.7707
703.9454000000001	0.0	+	73	noun	phrase	2	12	match	casier	4	1	y	0.7707
705.9453	0.0	CASIER	73	noun	phrase	2	13	match	casier	4	1	y	0.7707
706.7785	0.0	+	73	noun	phrase	2	14	match	casier	4	1	y	0.7707
706.716	0.0	[response]	73	noun	phrase	2	15	match	casier	4	1	y	0.7707
708.345	0.0	+	74	verb	list	3	1	match	rouge	5	1	y	0.84163
708.895	0.2	njfq	74	verb	list	3	2	match	rouge	5	1	y	0.84163
709.095	0.0	+	74	verb	list	3	3	match	rouge	5	1	y	0.84163
709.495	0.2	gjfq	74	verb	list	3	4	match	rouge	5	1	y	0.84163
709.6949000000001	0.0	+	74	verb	list	3	5	match	rouge	5	1	y	0.84163
710.0949	0.2	son	74	verb	list	3	6	match	rouge	5	1	y	0.84163
710.2949	0.0	+	74	verb	list	3	7	match	rouge	5	1	y	0.84163
710.6949000000001	0.2	parader	74	verb	list	3	8	match	rouge	5	1	y	0.84163
710.8948	0.0	+	74	verb	list	3	9	match	rouge	5	1	y	0.84163
711.2948	0.2	rouge	74	verb	list	3	10	match	rouge	5	1	y	0.84163
711.4948	0.0	+	74	verb	list	3	11	match	rouge	5	1	y	0.84163
711.8947000000001	0.0	+	74	verb	list	3	12	match	rouge	5	1	y	0.84163
713.8946000000001	0.0	ROUGE	74	verb	list	3	13	match	rouge	5	1	y	0.84163
714.7945	0.0	+	74	verb	list	3	14	match	rouge	5	1	y	0.84163
714.7362	0.0	[response]	74	verb	list	3	15	match	rouge	5	1	y	0.84163
716.2944	0.0	+	75	noun	list	1	1	match	beaucoup	5	1	y	0.53438
716.8443	0.2	jwbnxl	75	noun	list	1	2	match	beaucoup	5	1	y	0.53438
717.0443	0.0	+	75	noun	list	1	3	match	beaucoup	5	1	y	0.53438
717.4443	0.2	brtg	75	noun	list	1	4	match	beaucoup	5	1	y	0.53438
717.6442000000001	0.0	+	75	noun	list	1	5	match	beaucoup	5	1	y	0.53438
718.0442	0.2	blzh	75	noun	list	1	6	match	beaucoup	5	1	y	0.53438
718.2442	0.0	+	75	noun	list	1	7	match	beaucoup	5	1	y	0.53438
718.6442000000001	0.2	rwmkscb	75	noun	list	1	8	match	beaucoup	5	1	y	0.53438
718.8441	0.0	+	75	noun	list	1	9	match	beaucoup	5	1	y	0.53438
719.2441	0.2	beaucoup	75	noun	list	1	10	match	beaucoup	5	1	y	0.53438
719.4441	0.0	+	75	noun	list	1	11	match	beaucoup	5	1	y	0.53438
719.8441	0.0	+	75	noun	list	1	12	match	beaucoup	5	1	y	0.53438
721.8439000000001	0.0	BEAUCOUP	75	noun	list	1	13	match	beaucoup	5	1	y	0.53438
722.4438	0.0	+	75	noun	list	1	14	match	beaucoup	5	1	y	0.53438
722.3783000000001	0.0	[response]	75	noun	list	1	15	match	beaucoup	5	1	y	0.53438
724.2437	0.0	+	76	verb	phrase	2	1	match	chasser	4	1	y	0.60444
724.7936000000001	0.2	fxhnpz	76	verb	phrase	2	2	match	chasser	4	1	y	0.60444
724.9936	0.0	+	76	verb	phrase	2	3	match	chasser	4	1	y	0.60444
725.3936	0.2	hkr	76	verb	phrase	2	4	match	chasser	4	1	y	0.60444
725.5936	0.0	+	76	verb	phrase	2	5	match	chasser	4	1	y	0.60444
725.9935	0.2	smjp	76	verb	phrase	2	6	match	chasser	4	1	y	0.60444
726.1935	0.0	+	76	verb	phrase	2	7	match	chasser	4	1	y	0.60444
726.5935000000001	0.2	chasser	76	verb	phrase	2	8	match	chasser	4	1	y	0.60444
726.7934	0.0	+	76	verb	phrase	2	9	match	chasser	4	1	y	0.60444
727.1934	0.2	tard	76	verb	phrase	2	10	match	chasser	4	1	y	0.60444
727.3934	0.0	+	76	verb	phrase	2	11	match	chasser	4	1	y	0.60444
727.7934	0.0	+	76	verb	phrase	2	12	match	chasser	4	1	y	0.60444
729.7932000000001	0.0	CHASSER	76	verb	phrase	2	13	match	chasser	4	1	y	0.60444
730.4598	0.0	+	76	verb	phrase	2	14	match	chasser	4	1	y	0.60444
730.3976	0.0	[response]	76	verb	phrase	2	15	match	chasser	4	1	y	0.60444
732.193	0.0	+	77	verb	phrase	2	1	nomatch	grenier	-1	1	p	0.7593200000000001
732.7429000000001	0.2	gmfj	77	verb	phrase	2	2	nomatch	grenier	-1	1	p	0.7593200000000001
732.9429	0.0	+	77	verb	phrase	2	3	nomatch	grenier	-1	1	p	0.7593200000000001
733.3429	0.2	brtg	77	verb	phrase	2	4	nomatch	grenier	-1	1	p	0.7593200000000001
733.5429	0.0	+	77	verb	phrase	2	5	nomatch	grenier	-1	1	p	0.7593200000000001
733.9428	0.2	vp	77	verb	phrase	2	6	nomatch	grenier	-1	1	p	0.7593200000000001
734.1428000000001	0.0	+	77	verb	phrase	2	7	nomatch	grenier	-1	1	p	0.7593200000000001
734.5428	0.2	plus	77	verb	phrase	2	8	nomatch	grenier	-1	1	p	0.7593200000000001
734.7428	0.0	+	77	verb	phrase	2	9	nomatch	grenier	-1	1	p	0.7593200000000001
735.1427	0.2	plonger	77	verb	phrase	2	10	nomatch	grenier	-1	1	p	0.7593200000000001
735.3427	0.0	+	77	verb	phrase	2	11	nomatch	grenier	-1	1	p	0.7593200000000001
735.7427	0.0	+	77	verb	phrase	2	12	nomatch	grenier	-1	1	p	0.7593200000000001
737.7425000000001	0.0	GRENIER	77	verb	phrase	2	13	nomatch	grenier	-1	1	p	0.7593200000000001
738.5591000000001	0.0	+	77	verb	phrase	2	14	nomatch	grenier	-1	1	p	0.7593200000000001
738.5018	0.0	[response]	77	verb	phrase	2	15	nomatch	grenier	-1	1	p	0.7593200000000001
740.1423	0.0	+	78	verb	list	1	1	nomatch	bleu	-1	1	p	0.84201
740.6922000000001	0.2	vnhr	78	verb	list	1	2	nomatch	bleu	-1	1	p	0.84201
740.8922	0.0	+	78	verb	list	1	3	nomatch	bleu	-1	1	p	0.84201
741.2922	0.2	zmbq	78	verb	list	1	4	nomatch	bleu	-1	1	p	0.84201
741.4922	0.0	+	78	verb	list	1	5	nomatch	bleu	-1	1	p	0.84201
741.8921	0.2	tvw	78	verb	list	1	6	nomatch	bleu	-1	1	p	0.84201
742.0921000000001	0.0	+	78	verb	list	1	7	nomatch	bleu	-1	1	p	0.84201
742.4921	0.2	lhqmnzv	78	verb	list	1	8	nomatch	bleu	-1	1	p	0.84201
742.6921	0.0	+	78	verb	list	1	9	nomatch	bleu	-1	1	p	0.84201
743.092	0.2	noir	78	verb	list	1	10	nomatch	bleu	-1	1	p	0.84201
743.292	0.0	+	78	verb	list	1	11	nomatch	bleu	-1	1	p	0.84201
743.692	0.0	+	78	verb	list	1	12	nomatch	bleu	-1	1	p	0.84201
745.6918000000001	0.0	BLEU	78	verb	list	1	13	nomatch	bleu	-1	1	p	0.84201
746.5917000000001	0.0	+	78	verb	list	1	14	nomatch	bleu	-1	1	p	0.84201
746.5338	0.0	[response]	78	verb	list	1	15	nomatch	bleu	-1	1	p	0.84201
748.0916	0.0	+	79	verb	list	3	1	nomatch	ainsi	-1	1	p	0.65843
748.6415000000001	0.2	gsxwrtk	79	verb	list	3	2	nomatch	ainsi	-1	1	p	0.65843
748.8415	0.0	+	79	verb	list	3	3	nomatch	ainsi	-1	1	p	0.65843
749.2415	0.2	xhvf	79	verb	list	3	4	nomatch	ainsi	-1	1	p	0.65843
749.4415	0.0	+	79	verb	list	3	5	nomatch	ainsi	-1	1	p	0.65843
749.8414	0.2	son	79	verb	list	3	6	nomatch	ainsi	-1	1	p	0.65843
750.0414000000001	0.0	+	79	verb	list	3	7	nomatch	ainsi	-1	1	p	0.65843
750.4414	0.2	jongler	79	verb	list	3	8	nomatch	ainsi	-1	1	p	0.65843
750.6414	0.0	+	79	verb	list	3	9	nomatch	ainsi	-1	1	p	0.65843
751.0413	0.2	vert	79	verb	list	3	10	nomatch	ainsi	-1	1	p	0.65843
751.2413	0.0	+	79	verb	list	3	11	nomatch	ainsi	-1	1	p	0.65843
751.6413	0.0	+	79	verb	list	3	12	nomatch	ainsi	-1	1	p	0.65843
753.6411	0.0	AINSI	79	verb	list	3	13	nomatch	ainsi	-1	1	p	0.65843
754.3577	0.0	+	79	verb	list	3	14	nomatch	ainsi	-1	1	p	0.65843
754.2995000000001	0.0	[response]	79	verb	list	3	15	nomatch	ainsi	-1	1	p	0.65843
756.0409000000001	0.0	+	80	verb	list	4	1	nomatch	voilier	-1	1	p	0.7654700000000001
756.5909	0.2	vhpkd	80	verb	list	4	2	nomatch	voilier	-1	1	p	0.7654700000000001
756.7908	0.0	+	80	verb	list	4	3	nomatch	voilier	-1	1	p	0.7654700000000001
757.1908000000001	0.2	sur	80	verb	list	4	4	nomatch	voilier	-1	1	p	0.7654700000000001
757.3908	0.0	+	80	verb	list	4	5	nomatch	voilier	-1	1	p	0.7654700000000001
757.7908	0.2	peut	80	verb	list	4	6	nomatch	voilier	-1	1	p	0.7654700000000001
757.9907000000001	0.0	+	80	verb	list	4	7	nomatch	voilier	-1	1	p	0.7654700000000001
758.3907	0.2	vieux	80	verb	list	4	8	nomatch	voilier	-1	1	p	0.7654700000000001
758.5907	0.0	+	80	verb	list	4	9	nomatch	voilier	-1	1	p	0.7654700000000001
758.9907000000001	0.2	rouler	80	verb	list	4	10	nomatch	voilier	-1	1	p	0.7654700000000001
759.1906	0.0	+	80	verb	list	4	11	nomatch	voilier	-1	1	p	0.7654700000000001
759.5906	0.0	+	80	verb	list	4	12	nomatch	voilier	-1	1	p	0.7654700000000001
761.5905	0.0	VOILIER	80	verb	list	4	13	nomatch	voilier	-1	1	p	0.7654700000000001
762.4237	0.0	+	80	verb	list	4	14	nomatch	voilier	-1	1	p	0.7654700000000001
763.9902000000001	0.0	+	80	verb	list	4	15	nomatch	voilier	-1	1	p	0.7654700000000001
764.9901	0.0	+	80	verb	list	4	16	nomatch	voilier	-1	1	p	0.7654700000000001
765.0901	0.0	+	80	verb	list	4	17	nomatch	voilier	-1	1	p	0.7654700000000001
766.49	0.0	+	80	verb	list	4	18	nomatch	voilier	-1	1	p	0.7654700000000001
766.59	0.0	+	80	verb	list	4	19	nomatch	voilier	-1	1	p	0.7654700000000001
767.9899	0.0	+	80	verb	list	4	20	nomatch	voilier	-1	1	p	0.7654700000000001
768.0899000000001	0.0	+	80	verb	list	4	21	nomatch	voilier	-1	1	p	0.7654700000000001
769.4897	0.0	+	80	verb	list	4	22	nomatch	voilier	-1	1	p	0.7654700000000001
769.5897	0.0	+	80	verb	list	4	23	nomatch	voilier	-1	1	p	0.7654700000000001
770.9896	0.0	+	80	verb	list	4	24	nomatch	voilier	-1	1	p	0.7654700000000001
771.0896	0.0	+	80	verb	list	4	25	nomatch	voilier	-1	1	p	0.7654700000000001
772.4895	0.0	+	80	verb	list	4	26	nomatch	voilier	-1	1	p	0.7654700000000001
772.5895	0.0	+	80	verb	list	4	27	nomatch	voilier	-1	1	p	0.7654700000000001
773.9893000000001	0.0	+	80	verb	list	4	28	nomatch	voilier	-1	1	p	0.7654700000000001
774.0893	0.0	+	80	verb	list	4	29	nomatch	voilier	-1	1	p	0.7654700000000001
775.4892	0.0	+	80	verb	list	4	30	nomatch	voilier	-1	1	p	0.7654700000000001
775.5892	0.0	+	80	verb	list	4	31	nomatch	voilier	-1	1	p	0.7654700000000001
776.9891	0.0	+	80	verb	list	4	32	nomatch	voilier	-1	1	p	0.7654700000000001
777.0891	0.0	+	80	verb	list	4	33	nomatch	voilier	-1	1	p	0.7654700000000001
778.4889000000001	0.0	+	80	verb	list	4	34	nomatch	voilier	-1	1	p	0.7654700000000001
778.5889000000001	0.0	+	80	verb	list	4	35	nomatch	voilier	-1	1	p	0.7654700000000001
783.2385	0.0	+	80	verb	list	4	36	nomatch	voilier	-1	1	p	0.7654700000000001
762.356	0.0	[response]	80	verb	list	4	37	nomatch	voilier	-1	1	p	0.7654700000000001
