onset	duration	stim	trial_number	trial_type	trial_structure	trial_length	sequential_position	probe_type	probe	probe_position	response_correct	response_key	response_time
0.06009999999999849	0.0	+	1	verb	list	4	1	match	doit	3	1	y	0.72863
0.5434000000000054	0.2	cfrzbk	1	verb	list	4	2	match	doit	3	1	y	0.72863
0.743300000000005	0.0	+	1	verb	list	4	3	match	doit	3	1	y	0.72863
1.1433000000000035	0.2	dans	1	verb	list	4	4	match	doit	3	1	y	0.72863
1.3432999999999993	0.0	+	1	verb	list	4	5	match	doit	3	1	y	0.72863
1.743300000000005	0.2	doit	1	verb	list	4	6	match	doit	3	1	y	0.72863
1.9432000000000045	0.0	+	1	verb	list	4	7	match	doit	3	1	y	0.72863
2.343200000000003	0.2	nouveau	1	verb	list	4	8	match	doit	3	1	y	0.72863
2.543199999999999	0.0	+	1	verb	list	4	9	match	doit	3	1	y	0.72863
2.943100000000001	0.2	plonger	1	verb	list	4	10	match	doit	3	1	y	0.72863
3.143100000000004	0.0	+	1	verb	list	4	11	match	doit	3	1	y	0.72863
3.5431000000000026	0.0	+	1	verb	list	4	12	match	doit	3	1	y	0.72863
5.542900000000003	0.0	DOIT	1	verb	list	4	13	match	doit	3	1	y	0.72863
6.3262	0.0	+	1	verb	list	4	14	match	doit	3	1	y	0.72863
6.2716000000000065	0.0	[response]	1	verb	list	4	15	match	doit	3	1	y	0.72863
7.942700000000002	0.0	+	2	verb	phrase	1	1	match	patiner	5	1	y	0.55152
8.492700000000006	0.2	jthrf	2	verb	phrase	1	2	match	patiner	5	1	y	0.55152
8.692699999999995	0.0	+	2	verb	phrase	1	3	match	patiner	5	1	y	0.55152
9.092599999999997	0.2	zmbq	2	verb	phrase	1	4	match	patiner	5	1	y	0.55152
9.2926	0.0	+	2	verb	phrase	1	5	match	patiner	5	1	y	0.55152
9.692600000000006	0.2	vp	2	verb	phrase	1	6	match	patiner	5	1	y	0.55152
9.892500000000005	0.0	+	2	verb	phrase	1	7	match	patiner	5	1	y	0.55152
10.292499999999997	0.2	mgkc	2	verb	phrase	1	8	match	patiner	5	1	y	0.55152
10.4925	0.0	+	2	verb	phrase	1	9	match	patiner	5	1	y	0.55152
10.892500000000005	0.2	patiner	2	verb	phrase	1	10	match	patiner	5	1	y	0.55152
11.092400000000005	0.0	+	2	verb	phrase	1	11	match	patiner	5	1	y	0.55152
11.492399999999996	0.0	+	2	verb	phrase	1	12	match	patiner	5	1	y	0.55152
13.492200000000004	0.0	PATINER	2	verb	phrase	1	13	match	patiner	5	1	y	0.55152
14.108799999999995	0.0	+	2	verb	phrase	1	14	match	patiner	5	1	y	0.55152
14.043799999999997	0.0	[response]	2	verb	phrase	1	15	match	patiner	5	1	y	0.55152
15.892000000000003	0.0	+	3	noun	list	2	1	match	plus	4	1	y	0.9539100000000001
16.442	0.2	xnkzptq	3	noun	list	2	2	match	plus	4	1	y	0.9539100000000001
16.642000000000003	0.0	+	3	noun	list	2	3	match	plus	4	1	y	0.9539100000000001
17.041900000000005	0.2	xhvf	3	noun	list	2	4	match	plus	4	1	y	0.9539100000000001
17.241900000000008	0.0	+	3	noun	list	2	5	match	plus	4	1	y	0.9539100000000001
17.6419	0.2	fml	3	noun	list	2	6	match	plus	4	1	y	0.9539100000000001
17.841900000000003	0.0	+	3	noun	list	2	7	match	plus	4	1	y	0.9539100000000001
18.241800000000005	0.2	plus	3	noun	list	2	8	match	plus	4	1	y	0.9539100000000001
18.441800000000008	0.0	+	3	noun	list	2	9	match	plus	4	1	y	0.9539100000000001
18.8418	0.2	casier	3	noun	list	2	10	match	plus	4	1	y	0.9539100000000001
19.041800000000002	0.0	+	3	noun	list	2	11	match	plus	4	1	y	0.9539100000000001
19.441700000000004	0.0	+	3	noun	list	2	12	match	plus	4	1	y	0.9539100000000001
21.4416	0.0	PLUS	3	noun	list	2	13	match	plus	4	1	y	0.9539100000000001
22.45810000000001	0.0	+	3	noun	list	2	14	match	plus	4	1	y	0.9539100000000001
22.395500000000006	0.0	[response]	3	noun	list	2	15	match	plus	4	1	y	0.9539100000000001
23.841299999999997	0.0	+	4	noun	phrase	3	1	match	sablier	5	1	y	0.81437
24.391300000000008	0.2	bsh	4	noun	phrase	3	2	match	sablier	5	1	y	0.81437
24.591299999999997	0.0	+	4	noun	phrase	3	3	match	sablier	5	1	y	0.81437
24.9912	0.2	ckl	4	noun	phrase	3	4	match	sablier	5	1	y	0.81437
25.191200000000002	0.0	+	4	noun	phrase	3	5	match	sablier	5	1	y	0.81437
25.591200000000008	0.2	son	4	noun	phrase	3	6	match	sablier	5	1	y	0.81437
25.791199999999996	0.0	+	4	noun	phrase	3	7	match	sablier	5	1	y	0.81437
26.1911	0.2	vieux	4	noun	phrase	3	8	match	sablier	5	1	y	0.81437
26.3911	0.0	+	4	noun	phrase	3	9	match	sablier	5	1	y	0.81437
26.791100000000007	0.2	sablier	4	noun	phrase	3	10	match	sablier	5	1	y	0.81437
26.991099999999996	0.0	+	4	noun	phrase	3	11	match	sablier	5	1	y	0.81437
27.391	0.0	+	4	noun	phrase	3	12	match	sablier	5	1	y	0.81437
29.390899999999995	0.0	SABLIER	4	noun	phrase	3	13	match	sablier	5	1	y	0.81437
30.274099999999997	0.0	+	4	noun	phrase	3	14	match	sablier	5	1	y	0.81437
30.205199999999998	0.0	[response]	4	noun	phrase	3	15	match	sablier	5	1	y	0.81437
31.790700000000008	0.0	+	5	noun	phrase	1	1	match	casier	5	1	y	0.57913
32.3406	0.2	cjznlg	5	noun	phrase	1	2	match	casier	5	1	y	0.57913
32.540600000000005	0.0	+	5	noun	phrase	1	3	match	casier	5	1	y	0.57913
32.940599999999996	0.2	zpwn	5	noun	phrase	1	4	match	casier	5	1	y	0.57913
33.140499999999996	0.0	+	5	noun	phrase	1	5	match	casier	5	1	y	0.57913
33.5405	0.2	tvw	5	noun	phrase	1	6	match	casier	5	1	y	0.57913
33.740500000000004	0.0	+	5	noun	phrase	1	7	match	casier	5	1	y	0.57913
34.140499999999996	0.2	nldp	5	noun	phrase	1	8	match	casier	5	1	y	0.57913
34.340399999999995	0.0	+	5	noun	phrase	1	9	match	casier	5	1	y	0.57913
34.7404	0.2	casier	5	noun	phrase	1	10	match	casier	5	1	y	0.57913
34.940400000000004	0.0	+	5	noun	phrase	1	11	match	casier	5	1	y	0.57913
35.340399999999995	0.0	+	5	noun	phrase	1	12	match	casier	5	1	y	0.57913
37.3402	0.0	CASIER	5	noun	phrase	1	13	match	casier	5	1	y	0.57913
37.97350000000001	0.0	+	5	noun	phrase	1	14	match	casier	5	1	y	0.57913
37.9193	0.0	[response]	5	noun	phrase	1	15	match	casier	5	1	y	0.57913
39.74	0.0	+	6	noun	list	4	1	nomatch	plus	-1	1	p	0.96369
40.289899999999996	0.2	rvnlb	6	noun	list	4	2	nomatch	plus	-1	1	p	0.96369
40.4899	0.0	+	6	noun	list	4	3	nomatch	plus	-1	1	p	0.96369
40.889900000000004	0.2	sous	6	noun	list	4	4	nomatch	plus	-1	1	p	0.96369
41.08990000000001	0.0	+	6	noun	list	4	5	nomatch	plus	-1	1	p	0.96369
41.489799999999995	0.2	doit	6	noun	list	4	6	nomatch	plus	-1	1	p	0.96369
41.6898	0.0	+	6	noun	list	4	7	nomatch	plus	-1	1	p	0.96369
42.089800000000004	0.2	sablier	6	noun	list	4	8	nomatch	plus	-1	1	p	0.96369
42.28980000000001	0.0	+	6	noun	list	4	9	nomatch	plus	-1	1	p	0.96369
42.690400000000004	0.2	tard	6	noun	list	4	10	nomatch	plus	-1	1	p	0.96369
42.8897	0.0	+	6	noun	list	4	11	nomatch	plus	-1	1	p	0.96369
43.2897	0.0	+	6	noun	list	4	12	nomatch	plus	-1	1	p	0.96369
45.2895	0.0	PLUS	6	noun	list	4	13	nomatch	plus	-1	1	p	0.96369
46.322700000000005	0.0	+	6	noun	list	4	14	nomatch	plus	-1	1	p	0.96369
46.2532	0.0	[response]	6	noun	list	4	15	nomatch	plus	-1	1	p	0.96369
47.689299999999996	0.0	+	7	noun	list	1	1	match	boîtier	5	1	y	0.44672000000000006
48.239200000000004	0.2	cxvlt	7	noun	list	1	2	match	boîtier	5	1	y	0.44672000000000006
48.43920000000001	0.0	+	7	noun	list	1	3	match	boîtier	5	1	y	0.44672000000000006
48.8392	0.2	ckl	7	noun	list	1	4	match	boîtier	5	1	y	0.44672000000000006
49.0392	0.0	+	7	noun	list	1	5	match	boîtier	5	1	y	0.44672000000000006
49.4391	0.2	smjp	7	noun	list	1	6	match	boîtier	5	1	y	0.44672000000000006
49.639100000000006	0.0	+	7	noun	list	1	7	match	boîtier	5	1	y	0.44672000000000006
50.0391	0.2	sdfbk	7	noun	list	1	8	match	boîtier	5	1	y	0.44672000000000006
50.2391	0.0	+	7	noun	list	1	9	match	boîtier	5	1	y	0.44672000000000006
50.639	0.2	boîtier	7	noun	list	1	10	match	boîtier	5	1	y	0.44672000000000006
50.839000000000006	0.0	+	7	noun	list	1	11	match	boîtier	5	1	y	0.44672000000000006
51.239	0.0	+	7	noun	list	1	12	match	boîtier	5	1	y	0.44672000000000006
53.238800000000005	0.0	BOÎTIER	7	noun	list	1	13	match	boîtier	5	1	y	0.44672000000000006
53.7554	0.0	+	7	noun	list	1	14	match	boîtier	5	1	y	0.44672000000000006
53.6855	0.0	[response]	7	noun	list	1	15	match	boîtier	5	1	y	0.44672000000000006
55.638600000000004	0.0	+	8	noun	list	4	1	match	panier	5	1	y	0.55873
56.1886	0.2	lbcq	8	noun	list	4	2	match	panier	5	1	y	0.55873
56.3885	0.0	+	8	noun	list	4	3	match	panier	5	1	y	0.55873
56.788500000000006	0.2	luc	8	noun	list	4	4	match	panier	5	1	y	0.55873
56.988499999999995	0.0	+	8	noun	list	4	5	match	panier	5	1	y	0.55873
57.3884	0.2	mon	8	noun	list	4	6	match	panier	5	1	y	0.55873
57.5884	0.0	+	8	noun	list	4	7	match	panier	5	1	y	0.55873
57.988400000000006	0.2	plus	8	noun	list	4	8	match	panier	5	1	y	0.55873
58.18840000000001	0.0	+	8	noun	list	4	9	match	panier	5	1	y	0.55873
58.5883	0.2	panier	8	noun	list	4	10	match	panier	5	1	y	0.55873
58.7883	0.0	+	8	noun	list	4	11	match	panier	5	1	y	0.55873
59.188300000000005	0.0	+	8	noun	list	4	12	match	panier	5	1	y	0.55873
61.1881	0.0	PANIER	8	noun	list	4	13	match	panier	5	1	y	0.55873
61.804700000000004	0.0	+	8	noun	list	4	14	match	panier	5	1	y	0.55873
61.746900000000004	0.0	[response]	8	noun	list	4	15	match	panier	5	1	y	0.55873
63.5879	0.0	+	9	noun	phrase	1	1	match	tablier	5	1	y	0.51356
64.1379	0.2	mjhzwc	9	noun	phrase	1	2	match	tablier	5	1	y	0.51356
64.33780000000002	0.0	+	9	noun	phrase	1	3	match	tablier	5	1	y	0.51356
64.7378	0.2	dthz	9	noun	phrase	1	4	match	tablier	5	1	y	0.51356
64.93780000000001	0.0	+	9	noun	phrase	1	5	match	tablier	5	1	y	0.51356
65.33780000000002	0.2	tvw	9	noun	phrase	1	6	match	tablier	5	1	y	0.51356
65.5377	0.0	+	9	noun	phrase	1	7	match	tablier	5	1	y	0.51356
65.9377	0.2	fpwlx	9	noun	phrase	1	8	match	tablier	5	1	y	0.51356
66.1377	0.0	+	9	noun	phrase	1	9	match	tablier	5	1	y	0.51356
66.53890000000001	0.2	tablier	9	noun	phrase	1	10	match	tablier	5	1	y	0.51356
66.73760000000001	0.0	+	9	noun	phrase	1	11	match	tablier	5	1	y	0.51356
67.13759999999999	0.0	+	9	noun	phrase	1	12	match	tablier	5	1	y	0.51356
69.13740000000001	0.0	TABLIER	9	noun	phrase	1	13	match	tablier	5	1	y	0.51356
69.7207	0.0	+	9	noun	phrase	1	14	match	tablier	5	1	y	0.51356
69.65100000000001	0.0	[response]	9	noun	phrase	1	15	match	tablier	5	1	y	0.51356
71.53720000000001	0.0	+	10	noun	phrase	4	1	match	mon	3	1	y	0.63593
72.0872	0.2	tzhglw	10	noun	phrase	4	2	match	mon	3	1	y	0.63593
72.28720000000001	0.0	+	10	noun	phrase	4	3	match	mon	3	1	y	0.63593
72.68710000000002	0.2	vers	10	noun	phrase	4	4	match	mon	3	1	y	0.63593
72.8871	0.0	+	10	noun	phrase	4	5	match	mon	3	1	y	0.63593
73.28710000000001	0.2	mon	10	noun	phrase	4	6	match	mon	3	1	y	0.63593
73.4871	0.0	+	10	noun	phrase	4	7	match	mon	3	1	y	0.63593
73.887	0.2	nouveau	10	noun	phrase	4	8	match	mon	3	1	y	0.63593
74.08700000000002	0.0	+	10	noun	phrase	4	9	match	mon	3	1	y	0.63593
74.48700000000002	0.2	cendrier	10	noun	phrase	4	10	match	mon	3	1	y	0.63593
74.68700000000001	0.0	+	10	noun	phrase	4	11	match	mon	3	1	y	0.63593
75.08690000000001	0.0	+	10	noun	phrase	4	12	match	mon	3	1	y	0.63593
77.08670000000001	0.0	MON	10	noun	phrase	4	13	match	mon	3	1	y	0.63593
77.7867	0.0	+	10	noun	phrase	4	14	match	mon	3	1	y	0.63593
77.72270000000003	0.0	[response]	10	noun	phrase	4	15	match	mon	3	1	y	0.63593
79.4865	0.0	+	11	noun	list	3	1	nomatch	bleu	-1	1	p	0.8327300000000001
80.03650000000002	0.2	zwr	11	noun	list	3	2	nomatch	bleu	-1	1	p	0.8327300000000001
80.2365	0.0	+	11	noun	list	3	3	nomatch	bleu	-1	1	p	0.8327300000000001
80.63640000000001	0.2	gjfq	11	noun	list	3	4	nomatch	bleu	-1	1	p	0.8327300000000001
80.8364	0.0	+	11	noun	list	3	5	nomatch	bleu	-1	1	p	0.8327300000000001
81.2364	0.2	leur	11	noun	list	3	6	nomatch	bleu	-1	1	p	0.8327300000000001
81.43640000000002	0.0	+	11	noun	list	3	7	nomatch	bleu	-1	1	p	0.8327300000000001
81.83630000000002	0.2	moins	11	noun	list	3	8	nomatch	bleu	-1	1	p	0.8327300000000001
82.03630000000001	0.0	+	11	noun	list	3	9	nomatch	bleu	-1	1	p	0.8327300000000001
82.43630000000002	0.2	casier	11	noun	list	3	10	nomatch	bleu	-1	1	p	0.8327300000000001
82.6363	0.0	+	11	noun	list	3	11	nomatch	bleu	-1	1	p	0.8327300000000001
83.03620000000001	0.0	+	11	noun	list	3	12	nomatch	bleu	-1	1	p	0.8327300000000001
85.0361	0.0	BLEU	11	noun	list	3	13	nomatch	bleu	-1	1	p	0.8327300000000001
85.936	0.0	+	11	noun	list	3	14	nomatch	bleu	-1	1	p	0.8327300000000001
85.86880000000002	0.0	[response]	11	noun	list	3	15	nomatch	bleu	-1	1	p	0.8327300000000001
87.4358	0.0	+	12	noun	phrase	2	1	nomatch	vert	-1	1	p	0.63278
87.98580000000001	0.2	xjnc	12	noun	phrase	2	2	nomatch	vert	-1	1	p	0.63278
88.1858	0.0	+	12	noun	phrase	2	3	nomatch	vert	-1	1	p	0.63278
88.5858	0.2	ckl	12	noun	phrase	2	4	nomatch	vert	-1	1	p	0.63278
88.78570000000002	0.0	+	12	noun	phrase	2	5	nomatch	vert	-1	1	p	0.63278
89.1857	0.2	fml	12	noun	phrase	2	6	nomatch	vert	-1	1	p	0.63278
89.38570000000001	0.0	+	12	noun	phrase	2	7	nomatch	vert	-1	1	p	0.63278
89.78560000000002	0.2	tablier	12	noun	phrase	2	8	nomatch	vert	-1	1	p	0.63278
89.9856	0.0	+	12	noun	phrase	2	9	nomatch	vert	-1	1	p	0.63278
90.38560000000001	0.2	rouge	12	noun	phrase	2	10	nomatch	vert	-1	1	p	0.63278
90.5856	0.0	+	12	noun	phrase	2	11	nomatch	vert	-1	1	p	0.63278
90.9855	0.0	+	12	noun	phrase	2	12	nomatch	vert	-1	1	p	0.63278
92.9854	0.0	VERT	12	noun	phrase	2	13	nomatch	vert	-1	1	p	0.63278
93.68530000000001	0.0	+	12	noun	phrase	2	14	nomatch	vert	-1	1	p	0.63278
93.61820000000003	0.0	[response]	12	noun	phrase	2	15	nomatch	vert	-1	1	p	0.63278
95.3852	0.0	+	13	noun	phrase	4	1	nomatch	voilier	-1	1	p	1.0646
95.9351	0.2	qhd	13	noun	phrase	4	2	nomatch	voilier	-1	1	p	1.0646
96.13510000000002	0.0	+	13	noun	phrase	4	3	nomatch	voilier	-1	1	p	1.0646
96.5351	0.2	sous	13	noun	phrase	4	4	nomatch	voilier	-1	1	p	1.0646
96.73500000000001	0.0	+	13	noun	phrase	4	5	nomatch	voilier	-1	1	p	1.0646
97.13500000000002	0.2	leur	13	noun	phrase	4	6	nomatch	voilier	-1	1	p	1.0646
97.33500000000001	0.0	+	13	noun	phrase	4	7	nomatch	voilier	-1	1	p	1.0646
97.73500000000001	0.2	petit	13	noun	phrase	4	8	nomatch	voilier	-1	1	p	1.0646
97.9349	0.0	+	13	noun	phrase	4	9	nomatch	voilier	-1	1	p	1.0646
98.3349	0.2	grenier	13	noun	phrase	4	10	nomatch	voilier	-1	1	p	1.0646
98.53490000000002	0.0	+	13	noun	phrase	4	11	nomatch	voilier	-1	1	p	1.0646
98.9349	0.0	+	13	noun	phrase	4	12	nomatch	voilier	-1	1	p	1.0646
100.9513	0.0	VOILIER	13	noun	phrase	4	13	nomatch	voilier	-1	1	p	1.0646
102.08460000000002	0.0	+	13	noun	phrase	4	14	nomatch	voilier	-1	1	p	1.0646
102.01590000000002	0.0	[response]	13	noun	phrase	4	15	nomatch	voilier	-1	1	p	1.0646
103.3511	0.0	+	14	noun	phrase	1	1	nomatch	casier	-1	1	p	0.64933
103.90110000000001	0.2	bnsdjvf	14	noun	phrase	1	2	nomatch	casier	-1	1	p	0.64933
104.1011	0.0	+	14	noun	phrase	1	3	nomatch	casier	-1	1	p	0.64933
104.50220000000002	0.2	jpqd	14	noun	phrase	1	4	nomatch	casier	-1	1	p	0.64933
104.70100000000002	0.0	+	14	noun	phrase	1	5	nomatch	casier	-1	1	p	0.64933
105.101	0.2	blzh	14	noun	phrase	1	6	nomatch	casier	-1	1	p	0.64933
105.30100000000002	0.0	+	14	noun	phrase	1	7	nomatch	casier	-1	1	p	0.64933
105.70090000000002	0.2	kmzsl	14	noun	phrase	1	8	nomatch	casier	-1	1	p	0.64933
105.90090000000001	0.0	+	14	noun	phrase	1	9	nomatch	casier	-1	1	p	0.64933
106.30090000000001	0.2	tablier	14	noun	phrase	1	10	nomatch	casier	-1	1	p	0.64933
106.5009	0.0	+	14	noun	phrase	1	11	nomatch	casier	-1	1	p	0.64933
106.9008	0.0	+	14	noun	phrase	1	12	nomatch	casier	-1	1	p	0.64933
108.9007	0.0	CASIER	14	noun	phrase	1	13	nomatch	casier	-1	1	p	0.64933
109.6173	0.0	+	14	noun	phrase	1	14	nomatch	casier	-1	1	p	0.64933
109.55000000000001	0.0	[response]	14	noun	phrase	1	15	nomatch	casier	-1	1	p	0.64933
119.2998	0.0	+	15	noun	phrase	4	1	nomatch	moins	-1	1	p	0.87448
119.84970000000001	0.2	zdjw	15	noun	phrase	4	2	nomatch	moins	-1	1	p	0.87448
120.0497	0.0	+	15	noun	phrase	4	3	nomatch	moins	-1	1	p	0.87448
120.4497	0.2	sur	15	noun	phrase	4	4	nomatch	moins	-1	1	p	0.87448
120.64960000000002	0.0	+	15	noun	phrase	4	5	nomatch	moins	-1	1	p	0.87448
121.0496	0.2	son	15	noun	phrase	4	6	nomatch	moins	-1	1	p	0.87448
121.24960000000002	0.0	+	15	noun	phrase	4	7	nomatch	moins	-1	1	p	0.87448
121.64960000000002	0.2	cendrier	15	noun	phrase	4	8	nomatch	moins	-1	1	p	0.87448
121.8495	0.0	+	15	noun	phrase	4	9	nomatch	moins	-1	1	p	0.87448
122.24950000000001	0.2	bleu	15	noun	phrase	4	10	nomatch	moins	-1	1	p	0.87448
122.4495	0.0	+	15	noun	phrase	4	11	nomatch	moins	-1	1	p	0.87448
122.8495	0.0	+	15	noun	phrase	4	12	nomatch	moins	-1	1	p	0.87448
124.8493	0.0	MOINS	15	noun	phrase	4	13	nomatch	moins	-1	1	p	0.87448
125.7825	0.0	+	15	noun	phrase	4	14	nomatch	moins	-1	1	p	0.87448
125.72380000000001	0.0	[response]	15	noun	phrase	4	15	nomatch	moins	-1	1	p	0.87448
127.2491	0.0	+	16	noun	list	4	1	match	mieux	4	1	y	0.78655
127.799	0.2	vlxwjr	16	noun	list	4	2	match	mieux	4	1	y	0.78655
127.999	0.0	+	16	noun	list	4	3	match	mieux	4	1	y	0.78655
128.399	0.2	paul	16	noun	list	4	4	match	mieux	4	1	y	0.78655
128.59900000000002	0.0	+	16	noun	list	4	5	match	mieux	4	1	y	0.78655
128.99890000000002	0.2	leur	16	noun	list	4	6	match	mieux	4	1	y	0.78655
129.1989	0.0	+	16	noun	list	4	7	match	mieux	4	1	y	0.78655
129.59890000000001	0.2	mieux	16	noun	list	4	8	match	mieux	4	1	y	0.78655
129.7989	0.0	+	16	noun	list	4	9	match	mieux	4	1	y	0.78655
130.1988	0.2	casier	16	noun	list	4	10	match	mieux	4	1	y	0.78655
130.39880000000002	0.0	+	16	noun	list	4	11	match	mieux	4	1	y	0.78655
130.7988	0.0	+	16	noun	list	4	12	match	mieux	4	1	y	0.78655
132.79860000000002	0.0	MIEUX	16	noun	list	4	13	match	mieux	4	1	y	0.78655
133.6485	0.0	+	16	noun	list	4	14	match	mieux	4	1	y	0.78655
133.5851	0.0	[response]	16	noun	list	4	15	match	mieux	4	1	y	0.78655
135.19840000000002	0.0	+	17	noun	phrase	2	1	nomatch	plonger	-1	1	p	0.85943
135.7483	0.2	wzrhxm	17	noun	phrase	2	2	nomatch	plonger	-1	1	p	0.85943
135.94830000000002	0.0	+	17	noun	phrase	2	3	nomatch	plonger	-1	1	p	0.85943
136.34830000000002	0.2	ckl	17	noun	phrase	2	4	nomatch	plonger	-1	1	p	0.85943
136.5483	0.0	+	17	noun	phrase	2	5	nomatch	plonger	-1	1	p	0.85943
136.9482	0.2	blzh	17	noun	phrase	2	6	nomatch	plonger	-1	1	p	0.85943
137.1482	0.0	+	17	noun	phrase	2	7	nomatch	plonger	-1	1	p	0.85943
137.5482	0.2	cendrier	17	noun	phrase	2	8	nomatch	plonger	-1	1	p	0.85943
137.7482	0.0	+	17	noun	phrase	2	9	nomatch	plonger	-1	1	p	0.85943
138.1481	0.2	noir	17	noun	phrase	2	10	nomatch	plonger	-1	1	p	0.85943
138.34810000000002	0.0	+	17	noun	phrase	2	11	nomatch	plonger	-1	1	p	0.85943
138.74810000000002	0.0	+	17	noun	phrase	2	12	nomatch	plonger	-1	1	p	0.85943
140.74790000000002	0.0	PLONGER	17	noun	phrase	2	13	nomatch	plonger	-1	1	p	0.85943
141.6645	0.0	+	17	noun	phrase	2	14	nomatch	plonger	-1	1	p	0.85943
141.60730000000004	0.0	[response]	17	noun	phrase	2	15	nomatch	plonger	-1	1	p	0.85943
143.14770000000001	0.0	+	18	noun	list	4	1	nomatch	grenier	-1	1	p	0.74399
143.6977	0.2	kjv	18	noun	list	4	2	nomatch	grenier	-1	1	p	0.74399
143.8976	0.0	+	18	noun	list	4	3	nomatch	grenier	-1	1	p	0.74399
144.29760000000002	0.2	sans	18	noun	list	4	4	nomatch	grenier	-1	1	p	0.74399
144.4976	0.0	+	18	noun	list	4	5	nomatch	grenier	-1	1	p	0.74399
144.8976	0.2	va	18	noun	list	4	6	nomatch	grenier	-1	1	p	0.74399
145.0975	0.0	+	18	noun	list	4	7	nomatch	grenier	-1	1	p	0.74399
145.4975	0.2	casier	18	noun	list	4	8	nomatch	grenier	-1	1	p	0.74399
145.69750000000002	0.0	+	18	noun	list	4	9	nomatch	grenier	-1	1	p	0.74399
146.0975	0.2	vite	18	noun	list	4	10	nomatch	grenier	-1	1	p	0.74399
146.2974	0.0	+	18	noun	list	4	11	nomatch	grenier	-1	1	p	0.74399
146.69740000000002	0.0	+	18	noun	list	4	12	nomatch	grenier	-1	1	p	0.74399
148.6972	0.0	GRENIER	18	noun	list	4	13	nomatch	grenier	-1	1	p	0.74399
149.49720000000002	0.0	+	18	noun	list	4	14	nomatch	grenier	-1	1	p	0.74399
149.4412	0.0	[response]	18	noun	list	4	15	nomatch	grenier	-1	1	p	0.74399
151.097	0.0	+	19	noun	phrase	4	1	match	petit	4	1	y	0.86782
151.64700000000002	0.2	zfbsdjg	19	noun	phrase	4	2	match	petit	4	1	y	0.86782
151.847	0.0	+	19	noun	phrase	4	3	match	petit	4	1	y	0.86782
152.2469	0.2	sous	19	noun	phrase	4	4	match	petit	4	1	y	0.86782
152.4469	0.0	+	19	noun	phrase	4	5	match	petit	4	1	y	0.86782
152.8469	0.2	son	19	noun	phrase	4	6	match	petit	4	1	y	0.86782
153.04680000000002	0.0	+	19	noun	phrase	4	7	match	petit	4	1	y	0.86782
153.4468	0.2	petit	19	noun	phrase	4	8	match	petit	4	1	y	0.86782
153.6468	0.0	+	19	noun	phrase	4	9	match	petit	4	1	y	0.86782
154.04680000000002	0.2	sablier	19	noun	phrase	4	10	match	petit	4	1	y	0.86782
154.2467	0.0	+	19	noun	phrase	4	11	match	petit	4	1	y	0.86782
154.6467	0.0	+	19	noun	phrase	4	12	match	petit	4	1	y	0.86782
156.6465	0.0	PETIT	19	noun	phrase	4	13	match	petit	4	1	y	0.86782
157.5798	0.0	+	19	noun	phrase	4	14	match	petit	4	1	y	0.86782
157.5144	0.0	[response]	19	noun	phrase	4	15	match	petit	4	1	y	0.86782
159.0463	0.0	+	20	verb	list	1	1	nomatch	beau	-1	1	p	0.65118
159.5963	0.2	wml	20	verb	list	1	2	nomatch	beau	-1	1	p	0.65118
159.7963	0.0	+	20	verb	list	1	3	nomatch	beau	-1	1	p	0.65118
160.1962	0.2	zmbq	20	verb	list	1	4	nomatch	beau	-1	1	p	0.65118
160.39620000000002	0.0	+	20	verb	list	1	5	nomatch	beau	-1	1	p	0.65118
160.7962	0.2	blzh	20	verb	list	1	6	nomatch	beau	-1	1	p	0.65118
160.99620000000002	0.0	+	20	verb	list	1	7	nomatch	beau	-1	1	p	0.65118
161.39610000000002	0.2	kgvfblm	20	verb	list	1	8	nomatch	beau	-1	1	p	0.65118
161.5961	0.0	+	20	verb	list	1	9	nomatch	beau	-1	1	p	0.65118
161.9961	0.2	vert	20	verb	list	1	10	nomatch	beau	-1	1	p	0.65118
162.1961	0.0	+	20	verb	list	1	11	nomatch	beau	-1	1	p	0.65118
162.596	0.0	+	20	verb	list	1	12	nomatch	beau	-1	1	p	0.65118
164.5958	0.0	BEAU	20	verb	list	1	13	nomatch	beau	-1	1	p	0.65118
165.3124	0.0	+	20	verb	list	1	14	nomatch	beau	-1	1	p	0.65118
165.247	0.0	[response]	20	verb	list	1	15	nomatch	beau	-1	1	p	0.65118
166.9956	0.0	+	21	verb	phrase	2	1	match	tard	5	1	y	0.74599
167.5456	0.2	vts	21	verb	phrase	2	2	match	tard	5	1	y	0.74599
167.7456	0.0	+	21	verb	phrase	2	3	match	tard	5	1	y	0.74599
168.1455	0.2	pnsd	21	verb	phrase	2	4	match	tard	5	1	y	0.74599
168.34550000000002	0.0	+	21	verb	phrase	2	5	match	tard	5	1	y	0.74599
168.74550000000002	0.2	vp	21	verb	phrase	2	6	match	tard	5	1	y	0.74599
168.9455	0.0	+	21	verb	phrase	2	7	match	tard	5	1	y	0.74599
169.3454	0.2	parader	21	verb	phrase	2	8	match	tard	5	1	y	0.74599
169.5454	0.0	+	21	verb	phrase	2	9	match	tard	5	1	y	0.74599
169.9454	0.2	tard	21	verb	phrase	2	10	match	tard	5	1	y	0.74599
170.1454	0.0	+	21	verb	phrase	2	11	match	tard	5	1	y	0.74599
170.5453	0.0	+	21	verb	phrase	2	12	match	tard	5	1	y	0.74599
172.54520000000002	0.0	TARD	21	verb	phrase	2	13	match	tard	5	1	y	0.74599
173.3617	0.0	+	21	verb	phrase	2	14	match	tard	5	1	y	0.74599
173.29120000000003	0.0	[response]	21	verb	phrase	2	15	match	tard	5	1	y	0.74599
182.9443	0.0	+	22	noun	phrase	2	1	match	bleu	5	1	y	0.7468000000000001
183.4942	0.2	kcdz	22	noun	phrase	2	2	match	bleu	5	1	y	0.7468000000000001
183.6942	0.0	+	22	noun	phrase	2	3	match	bleu	5	1	y	0.7468000000000001
184.0942	0.2	fnlw	22	noun	phrase	2	4	match	bleu	5	1	y	0.7468000000000001
184.29410000000001	0.0	+	22	noun	phrase	2	5	match	bleu	5	1	y	0.7468000000000001
184.69410000000002	0.2	tvw	22	noun	phrase	2	6	match	bleu	5	1	y	0.7468000000000001
184.8941	0.0	+	22	noun	phrase	2	7	match	bleu	5	1	y	0.7468000000000001
185.29410000000001	0.2	sablier	22	noun	phrase	2	8	match	bleu	5	1	y	0.7468000000000001
185.494	0.0	+	22	noun	phrase	2	9	match	bleu	5	1	y	0.7468000000000001
185.894	0.2	bleu	22	noun	phrase	2	10	match	bleu	5	1	y	0.7468000000000001
186.09400000000002	0.0	+	22	noun	phrase	2	11	match	bleu	5	1	y	0.7468000000000001
186.494	0.0	+	22	noun	phrase	2	12	match	bleu	5	1	y	0.7468000000000001
188.49380000000002	0.0	BLEU	22	noun	phrase	2	13	match	bleu	5	1	y	0.7468000000000001
189.31040000000002	0.0	+	22	noun	phrase	2	14	match	bleu	5	1	y	0.7468000000000001
189.2406	0.0	[response]	22	noun	phrase	2	15	match	bleu	5	1	y	0.7468000000000001
198.8929	0.0	+	23	noun	list	1	1	nomatch	plus	-1	1	p	0.85091
199.4428	0.2	rmctzlw	23	noun	list	1	2	nomatch	plus	-1	1	p	0.85091
199.64280000000002	0.0	+	23	noun	list	1	3	nomatch	plus	-1	1	p	0.85091
200.0428	0.2	xhvf	23	noun	list	1	4	nomatch	plus	-1	1	p	0.85091
200.24280000000002	0.0	+	23	noun	list	1	5	nomatch	plus	-1	1	p	0.85091
200.6427	0.2	fml	23	noun	list	1	6	nomatch	plus	-1	1	p	0.85091
200.84270000000004	0.0	+	23	noun	list	1	7	nomatch	plus	-1	1	p	0.85091
201.2427	0.2	pskzcdh	23	noun	list	1	8	nomatch	plus	-1	1	p	0.85091
201.4427	0.0	+	23	noun	list	1	9	nomatch	plus	-1	1	p	0.85091
201.8426	0.2	moins	23	noun	list	1	10	nomatch	plus	-1	1	p	0.85091
202.0426	0.0	+	23	noun	list	1	11	nomatch	plus	-1	1	p	0.85091
202.44260000000003	0.0	+	23	noun	list	1	12	nomatch	plus	-1	1	p	0.85091
204.44240000000002	0.0	PLUS	23	noun	list	1	13	nomatch	plus	-1	1	p	0.85091
205.35900000000004	0.0	+	23	noun	list	1	14	nomatch	plus	-1	1	p	0.85091
205.2933	0.0	[response]	23	noun	list	1	15	nomatch	plus	-1	1	p	0.85091
206.8422	0.0	+	24	noun	list	2	1	nomatch	loin	-1	1	p	0.7303400000000001
207.39210000000003	0.2	dpzhkxf	24	noun	list	2	2	nomatch	loin	-1	1	p	0.7303400000000001
207.59210000000002	0.0	+	24	noun	list	2	3	nomatch	loin	-1	1	p	0.7303400000000001
207.9921	0.2	slvm	24	noun	list	2	4	nomatch	loin	-1	1	p	0.7303400000000001
208.19209999999998	0.0	+	24	noun	list	2	5	nomatch	loin	-1	1	p	0.7303400000000001
208.59199999999998	0.2	njsf	24	noun	list	2	6	nomatch	loin	-1	1	p	0.7303400000000001
208.79200000000003	0.0	+	24	noun	list	2	7	nomatch	loin	-1	1	p	0.7303400000000001
209.192	0.2	cendrier	24	noun	list	2	8	nomatch	loin	-1	1	p	0.7303400000000001
209.392	0.0	+	24	noun	list	2	9	nomatch	loin	-1	1	p	0.7303400000000001
209.7919	0.2	tôt	24	noun	list	2	10	nomatch	loin	-1	1	p	0.7303400000000001
209.9919	0.0	+	24	noun	list	2	11	nomatch	loin	-1	1	p	0.7303400000000001
210.39190000000002	0.0	+	24	noun	list	2	12	nomatch	loin	-1	1	p	0.7303400000000001
212.39170000000001	0.0	LOIN	24	noun	list	2	13	nomatch	loin	-1	1	p	0.7303400000000001
213.1916	0.0	+	24	noun	list	2	14	nomatch	loin	-1	1	p	0.7303400000000001
213.1221	0.0	[response]	24	noun	list	2	15	nomatch	loin	-1	1	p	0.7303400000000001
222.7908	0.0	+	25	noun	list	1	1	nomatch	sablier	-1	1	p	0.8134200000000001
223.3408	0.2	lfzwbq	25	noun	list	1	2	nomatch	sablier	-1	1	p	0.8134200000000001
223.5408	0.0	+	25	noun	list	1	3	nomatch	sablier	-1	1	p	0.8134200000000001
223.9407	0.2	dthz	25	noun	list	1	4	nomatch	sablier	-1	1	p	0.8134200000000001
224.14069999999998	0.0	+	25	noun	list	1	5	nomatch	sablier	-1	1	p	0.8134200000000001
224.54070000000002	0.2	vp	25	noun	list	1	6	nomatch	sablier	-1	1	p	0.8134200000000001
224.74060000000003	0.0	+	25	noun	list	1	7	nomatch	sablier	-1	1	p	0.8134200000000001
225.1406	0.2	khrp	25	noun	list	1	8	nomatch	sablier	-1	1	p	0.8134200000000001
225.3406	0.0	+	25	noun	list	1	9	nomatch	sablier	-1	1	p	0.8134200000000001
225.74060000000003	0.2	panier	25	noun	list	1	10	nomatch	sablier	-1	1	p	0.8134200000000001
225.9405	0.0	+	25	noun	list	1	11	nomatch	sablier	-1	1	p	0.8134200000000001
226.34050000000002	0.0	+	25	noun	list	1	12	nomatch	sablier	-1	1	p	0.8134200000000001
228.3403	0.0	SABLIER	25	noun	list	1	13	nomatch	sablier	-1	1	p	0.8134200000000001
229.22360000000003	0.0	+	25	noun	list	1	14	nomatch	sablier	-1	1	p	0.8134200000000001
229.1538	0.0	[response]	25	noun	list	1	15	nomatch	sablier	-1	1	p	0.8134200000000001
238.7394	0.0	+	26	verb	phrase	2	1	nomatch	vite	-1	1	p	0.98639
239.2894	0.2	nmpr	26	verb	phrase	2	2	nomatch	vite	-1	1	p	0.98639
239.4894	0.0	+	26	verb	phrase	2	3	nomatch	vite	-1	1	p	0.98639
239.8893	0.2	xhvf	26	verb	phrase	2	4	nomatch	vite	-1	1	p	0.98639
240.08930000000004	0.0	+	26	verb	phrase	2	5	nomatch	vite	-1	1	p	0.98639
240.48930000000001	0.2	njsf	26	verb	phrase	2	6	nomatch	vite	-1	1	p	0.98639
240.6893	0.0	+	26	verb	phrase	2	7	nomatch	vite	-1	1	p	0.98639
241.0892	0.2	mieux	26	verb	phrase	2	8	nomatch	vite	-1	1	p	0.98639
241.2892	0.0	+	26	verb	phrase	2	9	nomatch	vite	-1	1	p	0.98639
241.68920000000003	0.2	jongler	26	verb	phrase	2	10	nomatch	vite	-1	1	p	0.98639
241.88920000000002	0.0	+	26	verb	phrase	2	11	nomatch	vite	-1	1	p	0.98639
242.28910000000002	0.0	+	26	verb	phrase	2	12	nomatch	vite	-1	1	p	0.98639
244.289	0.0	VITE	26	verb	phrase	2	13	nomatch	vite	-1	1	p	0.98639
245.33890000000002	0.0	+	26	verb	phrase	2	14	nomatch	vite	-1	1	p	0.98639
245.27530000000002	0.0	[response]	26	verb	phrase	2	15	nomatch	vite	-1	1	p	0.98639
246.68869999999998	0.0	+	27	noun	list	1	1	match	trop	5	1	y	0.68144
247.2387	0.2	vzg	27	noun	list	1	2	match	trop	5	1	y	0.68144
247.43869999999998	0.0	+	27	noun	list	1	3	match	trop	5	1	y	0.68144
247.83870000000002	0.2	hkr	27	noun	list	1	4	match	trop	5	1	y	0.68144
248.03860000000003	0.0	+	27	noun	list	1	5	match	trop	5	1	y	0.68144
248.4386	0.2	tvw	27	noun	list	1	6	match	trop	5	1	y	0.68144
248.6386	0.0	+	27	noun	list	1	7	match	trop	5	1	y	0.68144
249.0385	0.2	xpnkzqbr	27	noun	list	1	8	match	trop	5	1	y	0.68144
249.2385	0.0	+	27	noun	list	1	9	match	trop	5	1	y	0.68144
249.63850000000002	0.2	trop	27	noun	list	1	10	match	trop	5	1	y	0.68144
249.8385	0.0	+	27	noun	list	1	11	match	trop	5	1	y	0.68144
250.2384	0.0	+	27	noun	list	1	12	match	trop	5	1	y	0.68144
252.23829999999998	0.0	TROP	27	noun	list	1	13	match	trop	5	1	y	0.68144
252.9882	0.0	+	27	noun	list	1	14	match	trop	5	1	y	0.68144
252.91970000000003	0.0	[response]	27	noun	list	1	15	match	trop	5	1	y	0.68144
254.6381	0.0	+	28	noun	phrase	1	1	nomatch	panier	-1	1	p	0.72757
255.188	0.2	sfwr	28	noun	phrase	1	2	nomatch	panier	-1	1	p	0.72757
255.38800000000003	0.0	+	28	noun	phrase	1	3	nomatch	panier	-1	1	p	0.72757
255.788	0.2	klgc	28	noun	phrase	1	4	nomatch	panier	-1	1	p	0.72757
255.98790000000002	0.0	+	28	noun	phrase	1	5	nomatch	panier	-1	1	p	0.72757
256.3879	0.2	blzh	28	noun	phrase	1	6	nomatch	panier	-1	1	p	0.72757
256.5879	0.0	+	28	noun	phrase	1	7	nomatch	panier	-1	1	p	0.72757
256.9879	0.2	fwjpz	28	noun	phrase	1	8	nomatch	panier	-1	1	p	0.72757
257.1878	0.0	+	28	noun	phrase	1	9	nomatch	panier	-1	1	p	0.72757
257.5878	0.2	boîtier	28	noun	phrase	1	10	nomatch	panier	-1	1	p	0.72757
257.7878	0.0	+	28	noun	phrase	1	11	nomatch	panier	-1	1	p	0.72757
258.1878	0.0	+	28	noun	phrase	1	12	nomatch	panier	-1	1	p	0.72757
260.18760000000003	0.0	PANIER	28	noun	phrase	1	13	nomatch	panier	-1	1	p	0.72757
260.9708	0.0	+	28	noun	phrase	1	14	nomatch	panier	-1	1	p	0.72757
260.9152	0.0	[response]	28	noun	phrase	1	15	nomatch	panier	-1	1	p	0.72757
278.586	0.0	+	29	verb	phrase	4	1	nomatch	trop	-1	1	p	0.8611600000000001
279.1359	0.2	khsprc	29	verb	phrase	4	2	nomatch	trop	-1	1	p	0.8611600000000001
279.3359	0.0	+	29	verb	phrase	4	3	nomatch	trop	-1	1	p	0.8611600000000001
279.7359	0.2	jean	29	verb	phrase	4	4	nomatch	trop	-1	1	p	0.8611600000000001
279.9359	0.0	+	29	verb	phrase	4	5	nomatch	trop	-1	1	p	0.8611600000000001
280.3358	0.2	peut	29	verb	phrase	4	6	nomatch	trop	-1	1	p	0.8611600000000001
280.5358	0.0	+	29	verb	phrase	4	7	nomatch	trop	-1	1	p	0.8611600000000001
280.93580000000003	0.2	jongler	29	verb	phrase	4	8	nomatch	trop	-1	1	p	0.8611600000000001
281.1358	0.0	+	29	verb	phrase	4	9	nomatch	trop	-1	1	p	0.8611600000000001
281.5357	0.2	tard	29	verb	phrase	4	10	nomatch	trop	-1	1	p	0.8611600000000001
281.7357	0.0	+	29	verb	phrase	4	11	nomatch	trop	-1	1	p	0.8611600000000001
282.1357	0.0	+	29	verb	phrase	4	12	nomatch	trop	-1	1	p	0.8611600000000001
284.13550000000004	0.0	TROP	29	verb	phrase	4	13	nomatch	trop	-1	1	p	0.8611600000000001
285.0521	0.0	+	29	verb	phrase	4	14	nomatch	trop	-1	1	p	0.8611600000000001
284.99670000000003	0.0	[response]	29	verb	phrase	4	15	nomatch	trop	-1	1	p	0.8611600000000001
286.5353	0.0	+	30	verb	phrase	2	1	match	beaucoup	4	1	y	0.79538
287.0853	0.2	pmrs	30	verb	phrase	2	2	match	beaucoup	4	1	y	0.79538
287.28520000000003	0.0	+	30	verb	phrase	2	3	match	beaucoup	4	1	y	0.79538
287.6852	0.2	lzfq	30	verb	phrase	2	4	match	beaucoup	4	1	y	0.79538
287.8852	0.0	+	30	verb	phrase	2	5	match	beaucoup	4	1	y	0.79538
288.2851	0.2	njsf	30	verb	phrase	2	6	match	beaucoup	4	1	y	0.79538
288.4851	0.0	+	30	verb	phrase	2	7	match	beaucoup	4	1	y	0.79538
288.8851	0.2	beaucoup	30	verb	phrase	2	8	match	beaucoup	4	1	y	0.79538
289.0851	0.0	+	30	verb	phrase	2	9	match	beaucoup	4	1	y	0.79538
289.4851	0.2	patiner	30	verb	phrase	2	10	match	beaucoup	4	1	y	0.79538
289.685	0.0	+	30	verb	phrase	2	11	match	beaucoup	4	1	y	0.79538
290.08500000000004	0.0	+	30	verb	phrase	2	12	match	beaucoup	4	1	y	0.79538
292.0849	0.0	BEAUCOUP	30	verb	phrase	2	13	match	beaucoup	4	1	y	0.79538
292.9347	0.0	+	30	verb	phrase	2	14	match	beaucoup	4	1	y	0.79538
292.88030000000003	0.0	[response]	30	verb	phrase	2	15	match	beaucoup	4	1	y	0.79538
294.5013	0.0	+	31	noun	phrase	1	1	match	sablier	5	1	y	0.56168
295.0512	0.2	wfjvqgr	31	noun	phrase	1	2	match	sablier	5	1	y	0.56168
295.2512	0.0	+	31	noun	phrase	1	3	match	sablier	5	1	y	0.56168
295.6512	0.2	slvm	31	noun	phrase	1	4	match	sablier	5	1	y	0.56168
295.8512	0.0	+	31	noun	phrase	1	5	match	sablier	5	1	y	0.56168
296.2511	0.2	blzh	31	noun	phrase	1	6	match	sablier	5	1	y	0.56168
296.4511	0.0	+	31	noun	phrase	1	7	match	sablier	5	1	y	0.56168
296.85110000000003	0.2	pwrbhks	31	noun	phrase	1	8	match	sablier	5	1	y	0.56168
297.0511	0.0	+	31	noun	phrase	1	9	match	sablier	5	1	y	0.56168
297.451	0.2	sablier	31	noun	phrase	1	10	match	sablier	5	1	y	0.56168
297.651	0.0	+	31	noun	phrase	1	11	match	sablier	5	1	y	0.56168
298.051	0.0	+	31	noun	phrase	1	12	match	sablier	5	1	y	0.56168
300.0508	0.0	SABLIER	31	noun	phrase	1	13	match	sablier	5	1	y	0.56168
300.6674	0.0	+	31	noun	phrase	1	14	match	sablier	5	1	y	0.56168
300.6125	0.0	[response]	31	noun	phrase	1	15	match	sablier	5	1	y	0.56168
302.4506	0.0	+	32	verb	list	1	1	match	parader	5	1	y	0.5761
303.0005	0.2	zsfq	32	verb	list	1	2	match	parader	5	1	y	0.5761
303.20050000000003	0.0	+	32	verb	list	1	3	match	parader	5	1	y	0.5761
303.6005	0.2	fnlw	32	verb	list	1	4	match	parader	5	1	y	0.5761
303.8005	0.0	+	32	verb	list	1	5	match	parader	5	1	y	0.5761
304.2004	0.2	njsf	32	verb	list	1	6	match	parader	5	1	y	0.5761
304.4004	0.0	+	32	verb	list	1	7	match	parader	5	1	y	0.5761
304.8004	0.2	gnkf	32	verb	list	1	8	match	parader	5	1	y	0.5761
305.0004	0.0	+	32	verb	list	1	9	match	parader	5	1	y	0.5761
305.4003	0.2	parader	32	verb	list	1	10	match	parader	5	1	y	0.5761
305.6003	0.0	+	32	verb	list	1	11	match	parader	5	1	y	0.5761
306.0003	0.0	+	32	verb	list	1	12	match	parader	5	1	y	0.5761
308.00010000000003	0.0	PARADER	32	verb	list	1	13	match	parader	5	1	y	0.5761
308.6334	0.0	+	32	verb	list	1	14	match	parader	5	1	y	0.5761
308.57620000000003	0.0	[response]	32	verb	list	1	15	match	parader	5	1	y	0.5761
310.3999	0.0	+	33	noun	list	2	1	match	sablier	4	1	y	0.7206
310.9499	0.2	fhxznwl	33	noun	list	2	2	match	sablier	4	1	y	0.7206
311.1498	0.0	+	33	noun	list	2	3	match	sablier	4	1	y	0.7206
311.5498	0.2	ckl	33	noun	list	2	4	match	sablier	4	1	y	0.7206
311.7498	0.0	+	33	noun	list	2	5	match	sablier	4	1	y	0.7206
312.1498	0.2	vp	33	noun	list	2	6	match	sablier	4	1	y	0.7206
312.3497	0.0	+	33	noun	list	2	7	match	sablier	4	1	y	0.7206
312.7497	0.2	sablier	33	noun	list	2	8	match	sablier	4	1	y	0.7206
312.9497	0.0	+	33	noun	list	2	9	match	sablier	4	1	y	0.7206
313.3497	0.2	vite	33	noun	list	2	10	match	sablier	4	1	y	0.7206
313.5496	0.0	+	33	noun	list	2	11	match	sablier	4	1	y	0.7206
313.94960000000003	0.0	+	33	noun	list	2	12	match	sablier	4	1	y	0.7206
315.9494	0.0	SABLIER	33	noun	list	2	13	match	sablier	4	1	y	0.7206
316.7327	0.0	+	33	noun	list	2	14	match	sablier	4	1	y	0.7206
316.67	0.0	[response]	33	noun	list	2	15	match	sablier	4	1	y	0.7206
318.3492	0.0	+	34	noun	phrase	1	1	match	cendrier	5	1	y	0.73312
318.8992	0.2	rcxdg	34	noun	phrase	1	2	match	cendrier	5	1	y	0.73312
319.0992	0.0	+	34	noun	phrase	1	3	match	cendrier	5	1	y	0.73312
319.4991	0.2	slvm	34	noun	phrase	1	4	match	cendrier	5	1	y	0.73312
319.6991	0.0	+	34	noun	phrase	1	5	match	cendrier	5	1	y	0.73312
320.0991	0.2	blzh	34	noun	phrase	1	6	match	cendrier	5	1	y	0.73312
320.29900000000004	0.0	+	34	noun	phrase	1	7	match	cendrier	5	1	y	0.73312
320.699	0.2	fwjpz	34	noun	phrase	1	8	match	cendrier	5	1	y	0.73312
320.899	0.0	+	34	noun	phrase	1	9	match	cendrier	5	1	y	0.73312
321.29900000000004	0.2	cendrier	34	noun	phrase	1	10	match	cendrier	5	1	y	0.73312
321.5003	0.0	+	34	noun	phrase	1	11	match	cendrier	5	1	y	0.73312
321.8989	0.0	+	34	noun	phrase	1	12	match	cendrier	5	1	y	0.73312
323.8987	0.0	CENDRIER	34	noun	phrase	1	13	match	cendrier	5	1	y	0.73312
324.69870000000003	0.0	+	34	noun	phrase	1	14	match	cendrier	5	1	y	0.73312
324.6319000000001	0.0	[response]	34	noun	phrase	1	15	match	cendrier	5	1	y	0.73312
326.2985	0.0	+	35	verb	phrase	1	1	match	vite	5	1	y	0.69408
326.8485	0.2	vbjpd	35	verb	phrase	1	2	match	vite	5	1	y	0.69408
327.0485	0.0	+	35	verb	phrase	1	3	match	vite	5	1	y	0.69408
327.4484	0.2	hkr	35	verb	phrase	1	4	match	vite	5	1	y	0.69408
327.6484	0.0	+	35	verb	phrase	1	5	match	vite	5	1	y	0.69408
328.0484	0.2	smjp	35	verb	phrase	1	6	match	vite	5	1	y	0.69408
328.2484	0.0	+	35	verb	phrase	1	7	match	vite	5	1	y	0.69408
328.6483	0.2	pvhtxrz	35	verb	phrase	1	8	match	vite	5	1	y	0.69408
328.8483	0.0	+	35	verb	phrase	1	9	match	vite	5	1	y	0.69408
329.24830000000003	0.2	vite	35	verb	phrase	1	10	match	vite	5	1	y	0.69408
329.4483	0.0	+	35	verb	phrase	1	11	match	vite	5	1	y	0.69408
329.8482	0.0	+	35	verb	phrase	1	12	match	vite	5	1	y	0.69408
331.848	0.0	VITE	35	verb	phrase	1	13	match	vite	5	1	y	0.69408
332.598	0.0	+	35	verb	phrase	1	14	match	vite	5	1	y	0.69408
332.5421	0.0	[response]	35	verb	phrase	1	15	match	vite	5	1	y	0.69408
334.2478	0.0	+	36	noun	list	3	1	nomatch	plonger	-1	1	p	0.7202500000000001
334.7978	0.2	zblvfk	36	noun	list	3	2	nomatch	plonger	-1	1	p	0.7202500000000001
334.9978	0.0	+	36	noun	list	3	3	nomatch	plonger	-1	1	p	0.7202500000000001
335.3977	0.2	brtg	36	noun	list	3	4	nomatch	plonger	-1	1	p	0.7202500000000001
335.59770000000003	0.0	+	36	noun	list	3	5	nomatch	plonger	-1	1	p	0.7202500000000001
335.9977	0.2	mon	36	noun	list	3	6	nomatch	plonger	-1	1	p	0.7202500000000001
336.1977	0.0	+	36	noun	list	3	7	nomatch	plonger	-1	1	p	0.7202500000000001
336.5976	0.2	trop	36	noun	list	3	8	nomatch	plonger	-1	1	p	0.7202500000000001
336.7976	0.0	+	36	noun	list	3	9	nomatch	plonger	-1	1	p	0.7202500000000001
337.1976	0.2	panier	36	noun	list	3	10	nomatch	plonger	-1	1	p	0.7202500000000001
337.3976	0.0	+	36	noun	list	3	11	nomatch	plonger	-1	1	p	0.7202500000000001
337.7975	0.0	+	36	noun	list	3	12	nomatch	plonger	-1	1	p	0.7202500000000001
339.7974	0.0	PLONGER	36	noun	list	3	13	nomatch	plonger	-1	1	p	0.7202500000000001
340.5806	0.0	+	36	noun	list	3	14	nomatch	plonger	-1	1	p	0.7202500000000001
340.5176	0.0	[response]	36	noun	list	3	15	nomatch	plonger	-1	1	p	0.7202500000000001
342.19710000000003	0.0	+	37	verb	list	3	1	nomatch	rouler	-1	1	p	0.80287
342.7471	0.2	xbg	37	verb	list	3	2	nomatch	rouler	-1	1	p	0.80287
342.94710000000003	0.0	+	37	verb	list	3	3	nomatch	rouler	-1	1	p	0.80287
343.3471	0.2	ckl	37	verb	list	3	4	nomatch	rouler	-1	1	p	0.80287
343.547	0.0	+	37	verb	list	3	5	nomatch	rouler	-1	1	p	0.80287
343.947	0.2	doit	37	verb	list	3	6	nomatch	rouler	-1	1	p	0.80287
344.147	0.0	+	37	verb	list	3	7	nomatch	rouler	-1	1	p	0.80287
344.5469	0.2	petit	37	verb	list	3	8	nomatch	rouler	-1	1	p	0.80287
344.7469	0.0	+	37	verb	list	3	9	nomatch	rouler	-1	1	p	0.80287
345.1469	0.2	jongler	37	verb	list	3	10	nomatch	rouler	-1	1	p	0.80287
345.3469	0.0	+	37	verb	list	3	11	nomatch	rouler	-1	1	p	0.80287
345.7468	0.0	+	37	verb	list	3	12	nomatch	rouler	-1	1	p	0.80287
347.74670000000003	0.0	ROULER	37	verb	list	3	13	nomatch	rouler	-1	1	p	0.80287
348.6133	0.0	+	37	verb	list	3	14	nomatch	rouler	-1	1	p	0.80287
348.5495	0.0	[response]	37	verb	list	3	15	nomatch	rouler	-1	1	p	0.80287
366.1451	0.0	+	38	noun	list	2	1	nomatch	mon	-1	1	p	1.0827
366.695	0.2	pcnh	38	noun	list	2	2	nomatch	mon	-1	1	p	1.0827
366.895	0.0	+	38	noun	list	2	3	nomatch	mon	-1	1	p	1.0827
367.295	0.2	hkr	38	noun	list	2	4	nomatch	mon	-1	1	p	1.0827
367.495	0.0	+	38	noun	list	2	5	nomatch	mon	-1	1	p	1.0827
367.8949	0.2	blzh	38	noun	list	2	6	nomatch	mon	-1	1	p	1.0827
368.0949	0.0	+	38	noun	list	2	7	nomatch	mon	-1	1	p	1.0827
368.49490000000003	0.2	moins	38	noun	list	2	8	nomatch	mon	-1	1	p	1.0827
368.6949	0.0	+	38	noun	list	2	9	nomatch	mon	-1	1	p	1.0827
369.0948	0.2	cendrier	38	noun	list	2	10	nomatch	mon	-1	1	p	1.0827
369.2948	0.0	+	38	noun	list	2	11	nomatch	mon	-1	1	p	1.0827
369.6948	0.0	+	38	noun	list	2	12	nomatch	mon	-1	1	p	1.0827
371.69460000000004	0.0	MON	38	noun	list	2	13	nomatch	mon	-1	1	p	1.0827
372.8445	0.0	+	38	noun	list	2	14	nomatch	mon	-1	1	p	1.0827
372.7773	0.0	[response]	38	noun	list	2	15	nomatch	mon	-1	1	p	1.0827
374.0944	0.0	+	39	verb	phrase	4	1	match	tard	5	1	y	0.78715
374.6443	0.2	vld	39	verb	phrase	4	2	match	tard	5	1	y	0.78715
374.84430000000003	0.0	+	39	verb	phrase	4	3	match	tard	5	1	y	0.78715
375.2443	0.2	luc	39	verb	phrase	4	4	match	tard	5	1	y	0.78715
375.4443	0.0	+	39	verb	phrase	4	5	match	tard	5	1	y	0.78715
375.8442	0.2	doit	39	verb	phrase	4	6	match	tard	5	1	y	0.78715
376.0442	0.0	+	39	verb	phrase	4	7	match	tard	5	1	y	0.78715
376.4442	0.2	patiner	39	verb	phrase	4	8	match	tard	5	1	y	0.78715
376.6442	0.0	+	39	verb	phrase	4	9	match	tard	5	1	y	0.78715
377.0441	0.2	tard	39	verb	phrase	4	10	match	tard	5	1	y	0.78715
377.2441	0.0	+	39	verb	phrase	4	11	match	tard	5	1	y	0.78715
377.64410000000004	0.0	+	39	verb	phrase	4	12	match	tard	5	1	y	0.78715
379.64390000000003	0.0	TARD	39	verb	phrase	4	13	match	tard	5	1	y	0.78715
380.4938	0.0	+	39	verb	phrase	4	14	match	tard	5	1	y	0.78715
380.4311	0.0	[response]	39	verb	phrase	4	15	match	tard	5	1	y	0.78715
382.0437	0.0	+	40	verb	list	1	1	match	nouveau	5	1	y	0.55366
382.5937	0.2	fgcjt	40	verb	list	1	2	match	nouveau	5	1	y	0.55366
382.7936	0.0	+	40	verb	list	1	3	match	nouveau	5	1	y	0.55366
383.1936	0.2	fnlw	40	verb	list	1	4	match	nouveau	5	1	y	0.55366
383.3936	0.0	+	40	verb	list	1	5	match	nouveau	5	1	y	0.55366
383.7936	0.2	njsf	40	verb	list	1	6	match	nouveau	5	1	y	0.55366
383.9935	0.0	+	40	verb	list	1	7	match	nouveau	5	1	y	0.55366
384.3935	0.2	xgmdrft	40	verb	list	1	8	match	nouveau	5	1	y	0.55366
384.5935	0.0	+	40	verb	list	1	9	match	nouveau	5	1	y	0.55366
384.9934	0.2	nouveau	40	verb	list	1	10	match	nouveau	5	1	y	0.55366
385.1934	0.0	+	40	verb	list	1	11	match	nouveau	5	1	y	0.55366
385.59340000000003	0.0	+	40	verb	list	1	12	match	nouveau	5	1	y	0.55366
387.5932	0.0	NOUVEAU	40	verb	list	1	13	match	nouveau	5	1	y	0.55366
388.20980000000003	0.0	+	40	verb	list	1	14	match	nouveau	5	1	y	0.55366
388.1469	0.0	[response]	40	verb	list	1	15	match	nouveau	5	1	y	0.55366
389.993	0.0	+	41	verb	phrase	4	1	match	rouler	4	1	y	0.63272
390.543	0.2	pndv	41	verb	phrase	4	2	match	rouler	4	1	y	0.63272
390.743	0.0	+	41	verb	phrase	4	3	match	rouler	4	1	y	0.63272
391.1429	0.2	adam	41	verb	phrase	4	4	match	rouler	4	1	y	0.63272
391.3429	0.0	+	41	verb	phrase	4	5	match	rouler	4	1	y	0.63272
391.7429	0.2	doit	41	verb	phrase	4	6	match	rouler	4	1	y	0.63272
391.94280000000003	0.0	+	41	verb	phrase	4	7	match	rouler	4	1	y	0.63272
392.3428	0.2	rouler	41	verb	phrase	4	8	match	rouler	4	1	y	0.63272
392.5428	0.0	+	41	verb	phrase	4	9	match	rouler	4	1	y	0.63272
392.94280000000003	0.2	tôt	41	verb	phrase	4	10	match	rouler	4	1	y	0.63272
393.1427	0.0	+	41	verb	phrase	4	11	match	rouler	4	1	y	0.63272
393.5427	0.0	+	41	verb	phrase	4	12	match	rouler	4	1	y	0.63272
395.5425	0.0	ROULER	41	verb	phrase	4	13	match	rouler	4	1	y	0.63272
396.2425	0.0	+	41	verb	phrase	4	14	match	rouler	4	1	y	0.63272
396.17530000000005	0.0	[response]	41	verb	phrase	4	15	match	rouler	4	1	y	0.63272
405.9416	0.0	+	42	noun	phrase	1	1	match	grenier	5	1	y	0.7891
406.4916	0.2	hvgj	42	noun	phrase	1	2	match	grenier	5	1	y	0.7891
406.6916	0.0	+	42	noun	phrase	1	3	match	grenier	5	1	y	0.7891
407.0915	0.2	klgc	42	noun	phrase	1	4	match	grenier	5	1	y	0.7891
407.2915	0.0	+	42	noun	phrase	1	5	match	grenier	5	1	y	0.7891
407.6915	0.2	blzh	42	noun	phrase	1	6	match	grenier	5	1	y	0.7891
407.8915	0.0	+	42	noun	phrase	1	7	match	grenier	5	1	y	0.7891
408.2914	0.2	gnkf	42	noun	phrase	1	8	match	grenier	5	1	y	0.7891
408.4914	0.0	+	42	noun	phrase	1	9	match	grenier	5	1	y	0.7891
408.89140000000003	0.2	grenier	42	noun	phrase	1	10	match	grenier	5	1	y	0.7891
409.0914	0.0	+	42	noun	phrase	1	11	match	grenier	5	1	y	0.7891
409.4913	0.0	+	42	noun	phrase	1	12	match	grenier	5	1	y	0.7891
411.4912	0.0	GRENIER	42	noun	phrase	1	13	match	grenier	5	1	y	0.7891
412.3411	0.0	+	42	noun	phrase	1	14	match	grenier	5	1	y	0.7891
412.2803	0.0	[response]	42	noun	phrase	1	15	match	grenier	5	1	y	0.7891
421.8902	0.0	+	43	verb	list	2	1	nomatch	boîtier	-1	1	p	0.7265200000000002
422.4402	0.2	gtprhls	43	verb	list	2	2	nomatch	boîtier	-1	1	p	0.7265200000000002
422.6402	0.0	+	43	verb	list	2	3	nomatch	boîtier	-1	1	p	0.7265200000000002
423.0402	0.2	ckl	43	verb	list	2	4	nomatch	boîtier	-1	1	p	0.7265200000000002
423.2401	0.0	+	43	verb	list	2	5	nomatch	boîtier	-1	1	p	0.7265200000000002
423.6401	0.2	njsf	43	verb	list	2	6	nomatch	boîtier	-1	1	p	0.7265200000000002
423.8401	0.0	+	43	verb	list	2	7	nomatch	boîtier	-1	1	p	0.7265200000000002
424.24	0.2	beau	43	verb	list	2	8	nomatch	boîtier	-1	1	p	0.7265200000000002
424.44	0.0	+	43	verb	list	2	9	nomatch	boîtier	-1	1	p	0.7265200000000002
424.84000000000003	0.2	parader	43	verb	list	2	10	nomatch	boîtier	-1	1	p	0.7265200000000002
425.04	0.0	+	43	verb	list	2	11	nomatch	boîtier	-1	1	p	0.7265200000000002
425.4399	0.0	+	43	verb	list	2	12	nomatch	boîtier	-1	1	p	0.7265200000000002
427.4398	0.0	BOÎTIER	43	verb	list	2	13	nomatch	boîtier	-1	1	p	0.7265200000000002
428.223	0.0	+	43	verb	list	2	14	nomatch	boîtier	-1	1	p	0.7265200000000002
428.16630000000004	0.0	[response]	43	verb	list	2	15	nomatch	boîtier	-1	1	p	0.7265200000000002
429.8396	0.0	+	44	verb	list	1	1	nomatch	sans	-1	1	p	0.54714
430.3895	0.2	tlpvh	44	verb	list	1	2	nomatch	sans	-1	1	p	0.54714
430.5895	0.0	+	44	verb	list	1	3	nomatch	sans	-1	1	p	0.54714
430.9895	0.2	pnsd	44	verb	list	1	4	nomatch	sans	-1	1	p	0.54714
431.1895	0.0	+	44	verb	list	1	5	nomatch	sans	-1	1	p	0.54714
431.5894	0.2	blzh	44	verb	list	1	6	nomatch	sans	-1	1	p	0.54714
431.7894	0.0	+	44	verb	list	1	7	nomatch	sans	-1	1	p	0.54714
432.18940000000003	0.2	fwjpz	44	verb	list	1	8	nomatch	sans	-1	1	p	0.54714
432.3893	0.0	+	44	verb	list	1	9	nomatch	sans	-1	1	p	0.54714
432.7893	0.2	galoper	44	verb	list	1	10	nomatch	sans	-1	1	p	0.54714
432.9893	0.0	+	44	verb	list	1	11	nomatch	sans	-1	1	p	0.54714
433.3893	0.0	+	44	verb	list	1	12	nomatch	sans	-1	1	p	0.54714
435.3891	0.0	SANS	44	verb	list	1	13	nomatch	sans	-1	1	p	0.54714
436.0057	0.0	+	44	verb	list	1	14	nomatch	sans	-1	1	p	0.54714
435.9362	0.0	[response]	44	verb	list	1	15	nomatch	sans	-1	1	p	0.54714
453.7875	0.0	+	45	noun	list	3	1	match	trop	4	1	y	0.8304
454.3374	0.2	tzwlv	45	noun	list	3	2	match	trop	4	1	y	0.8304
454.5374	0.0	+	45	noun	list	3	3	match	trop	4	1	y	0.8304
454.9374	0.2	hkr	45	noun	list	3	4	match	trop	4	1	y	0.8304
455.1374	0.0	+	45	noun	list	3	5	match	trop	4	1	y	0.8304
455.5373	0.2	son	45	noun	list	3	6	match	trop	4	1	y	0.8304
455.7373	0.0	+	45	noun	list	3	7	match	trop	4	1	y	0.8304
456.1373	0.2	trop	45	noun	list	3	8	match	trop	4	1	y	0.8304
456.3373	0.0	+	45	noun	list	3	9	match	trop	4	1	y	0.8304
456.7372	0.2	boîtier	45	noun	list	3	10	match	trop	4	1	y	0.8304
456.9372	0.0	+	45	noun	list	3	11	match	trop	4	1	y	0.8304
457.3372	0.0	+	45	noun	list	3	12	match	trop	4	1	y	0.8304
459.33700000000005	0.0	TROP	45	noun	list	3	13	match	trop	4	1	y	0.8304
460.23690000000005	0.0	+	45	noun	list	3	14	match	trop	4	1	y	0.8304
460.1674	0.0	[response]	45	noun	list	3	15	match	trop	4	1	y	0.8304
461.73679999999996	0.0	+	46	verb	list	2	1	nomatch	rouge	-1	1	p	0.64506
462.2868	0.2	rgkj	46	verb	list	2	2	nomatch	rouge	-1	1	p	0.64506
462.4867	0.0	+	46	verb	list	2	3	nomatch	rouge	-1	1	p	0.64506
462.88669999999996	0.2	ckl	46	verb	list	2	4	nomatch	rouge	-1	1	p	0.64506
463.0867	0.0	+	46	verb	list	2	5	nomatch	rouge	-1	1	p	0.64506
463.4867	0.2	njsf	46	verb	list	2	6	nomatch	rouge	-1	1	p	0.64506
463.68660000000006	0.0	+	46	verb	list	2	7	nomatch	rouge	-1	1	p	0.64506
464.08660000000003	0.2	beau	46	verb	list	2	8	nomatch	rouge	-1	1	p	0.64506
464.28659999999996	0.0	+	46	verb	list	2	9	nomatch	rouge	-1	1	p	0.64506
464.68649999999997	0.2	patiner	46	verb	list	2	10	nomatch	rouge	-1	1	p	0.64506
464.8865	0.0	+	46	verb	list	2	11	nomatch	rouge	-1	1	p	0.64506
465.2865	0.0	+	46	verb	list	2	12	nomatch	rouge	-1	1	p	0.64506
467.28630000000004	0.0	ROUGE	46	verb	list	2	13	nomatch	rouge	-1	1	p	0.64506
467.98629999999997	0.0	+	46	verb	list	2	14	nomatch	rouge	-1	1	p	0.64506
467.9314	0.0	[response]	46	verb	list	2	15	nomatch	rouge	-1	1	p	0.64506
469.68609999999995	0.0	+	47	noun	list	3	1	match	peut	3	1	y	0.98564
470.2361	0.2	bsrcq	47	noun	list	3	2	match	peut	3	1	y	0.98564
470.436	0.0	+	47	noun	list	3	3	match	peut	3	1	y	0.98564
470.83599999999996	0.2	slvm	47	noun	list	3	4	match	peut	3	1	y	0.98564
471.036	0.0	+	47	noun	list	3	5	match	peut	3	1	y	0.98564
471.436	0.2	peut	47	noun	list	3	6	match	peut	3	1	y	0.98564
471.63590000000005	0.0	+	47	noun	list	3	7	match	peut	3	1	y	0.98564
472.0359	0.2	panier	47	noun	list	3	8	match	peut	3	1	y	0.98564
472.23589999999996	0.0	+	47	noun	list	3	9	match	peut	3	1	y	0.98564
472.63590000000005	0.2	tard	47	noun	list	3	10	match	peut	3	1	y	0.98564
472.8358	0.0	+	47	noun	list	3	11	match	peut	3	1	y	0.98564
473.2358	0.0	+	47	noun	list	3	12	match	peut	3	1	y	0.98564
475.23560000000003	0.0	PEUT	47	noun	list	3	13	match	peut	3	1	y	0.98564
476.2855	0.0	+	47	noun	list	3	14	match	peut	3	1	y	0.98564
476.2213	0.0	[response]	47	noun	list	3	15	match	peut	3	1	y	0.98564
477.63540000000006	0.0	+	48	verb	list	4	1	nomatch	leur	-1	1	p	0.83413
478.1854	0.2	ckt	48	verb	list	4	2	nomatch	leur	-1	1	p	0.83413
478.38540000000006	0.0	+	48	verb	list	4	3	nomatch	leur	-1	1	p	0.83413
478.78530000000006	0.2	sur	48	verb	list	4	4	nomatch	leur	-1	1	p	0.83413
478.9853	0.0	+	48	verb	list	4	5	nomatch	leur	-1	1	p	0.83413
479.3853	0.2	doit	48	verb	list	4	6	nomatch	leur	-1	1	p	0.83413
479.5853	0.0	+	48	verb	list	4	7	nomatch	leur	-1	1	p	0.83413
479.9852	0.2	nouveau	48	verb	list	4	8	nomatch	leur	-1	1	p	0.83413
480.18520000000007	0.0	+	48	verb	list	4	9	nomatch	leur	-1	1	p	0.83413
480.58520000000004	0.2	voyager	48	verb	list	4	10	nomatch	leur	-1	1	p	0.83413
480.7852	0.0	+	48	verb	list	4	11	nomatch	leur	-1	1	p	0.83413
481.1851	0.0	+	48	verb	list	4	12	nomatch	leur	-1	1	p	0.83413
483.1849	0.0	LEUR	48	verb	list	4	13	nomatch	leur	-1	1	p	0.83413
484.0849	0.0	+	48	verb	list	4	14	nomatch	leur	-1	1	p	0.83413
484.01910000000004	0.0	[response]	48	verb	list	4	15	nomatch	leur	-1	1	p	0.83413
493.6007	0.0	+	49	noun	list	1	1	match	casier	5	1	y	0.67258
494.1507	0.2	nrv	49	noun	list	1	2	match	casier	5	1	y	0.67258
494.35060000000004	0.0	+	49	noun	list	1	3	match	casier	5	1	y	0.67258
494.7506	0.2	brtg	49	noun	list	1	4	match	casier	5	1	y	0.67258
494.95060000000007	0.0	+	49	noun	list	1	5	match	casier	5	1	y	0.67258
495.35060000000004	0.2	fml	49	noun	list	1	6	match	casier	5	1	y	0.67258
495.5505	0.0	+	49	noun	list	1	7	match	casier	5	1	y	0.67258
495.9505	0.2	tbjvknlh	49	noun	list	1	8	match	casier	5	1	y	0.67258
496.1505	0.0	+	49	noun	list	1	9	match	casier	5	1	y	0.67258
496.5505	0.2	casier	49	noun	list	1	10	match	casier	5	1	y	0.67258
496.75039999999996	0.0	+	49	noun	list	1	11	match	casier	5	1	y	0.67258
497.15040000000005	0.0	+	49	noun	list	1	12	match	casier	5	1	y	0.67258
499.1502	0.0	CASIER	49	noun	list	1	13	match	casier	5	1	y	0.67258
499.88349999999997	0.0	+	49	noun	list	1	14	match	casier	5	1	y	0.67258
499.8228	0.0	[response]	49	noun	list	1	15	match	casier	5	1	y	0.67258
501.55	0.0	+	50	verb	phrase	1	1	nomatch	mieux	-1	1	p	0.61727
502.09999999999997	0.2	qmprclw	50	verb	phrase	1	2	nomatch	mieux	-1	1	p	0.61727
502.3	0.0	+	50	verb	phrase	1	3	nomatch	mieux	-1	1	p	0.61727
502.6999	0.2	hkr	50	verb	phrase	1	4	nomatch	mieux	-1	1	p	0.61727
502.89990000000006	0.0	+	50	verb	phrase	1	5	nomatch	mieux	-1	1	p	0.61727
503.29990000000004	0.2	smjp	50	verb	phrase	1	6	nomatch	mieux	-1	1	p	0.61727
503.5011	0.0	+	50	verb	phrase	1	7	nomatch	mieux	-1	1	p	0.61727
503.89979999999997	0.2	tpdzsgn	50	verb	phrase	1	8	nomatch	mieux	-1	1	p	0.61727
504.0998	0.0	+	50	verb	phrase	1	9	nomatch	mieux	-1	1	p	0.61727
504.4998	0.2	trop	50	verb	phrase	1	10	nomatch	mieux	-1	1	p	0.61727
504.69970000000006	0.0	+	50	verb	phrase	1	11	nomatch	mieux	-1	1	p	0.61727
505.09970000000004	0.0	+	50	verb	phrase	1	12	nomatch	mieux	-1	1	p	0.61727
507.0995	0.0	MIEUX	50	verb	phrase	1	13	nomatch	mieux	-1	1	p	0.61727
507.7828	0.0	+	50	verb	phrase	1	14	nomatch	mieux	-1	1	p	0.61727
507.7168	0.0	[response]	50	verb	phrase	1	15	nomatch	mieux	-1	1	p	0.61727
509.4993	0.0	+	51	noun	phrase	2	1	nomatch	petit	-1	1	p	0.54207
510.04929999999996	0.2	vbksmr	51	noun	phrase	2	2	nomatch	petit	-1	1	p	0.54207
510.2493	0.0	+	51	noun	phrase	2	3	nomatch	petit	-1	1	p	0.54207
510.6492	0.2	dthz	51	noun	phrase	2	4	nomatch	petit	-1	1	p	0.54207
510.84920000000005	0.0	+	51	noun	phrase	2	5	nomatch	petit	-1	1	p	0.54207
511.24920000000003	0.2	tvw	51	noun	phrase	2	6	nomatch	petit	-1	1	p	0.54207
511.44919999999996	0.0	+	51	noun	phrase	2	7	nomatch	petit	-1	1	p	0.54207
511.84909999999996	0.2	beau	51	noun	phrase	2	8	nomatch	petit	-1	1	p	0.54207
512.0491	0.0	+	51	noun	phrase	2	9	nomatch	petit	-1	1	p	0.54207
512.4490999999999	0.2	cendrier	51	noun	phrase	2	10	nomatch	petit	-1	1	p	0.54207
512.6491	0.0	+	51	noun	phrase	2	11	nomatch	petit	-1	1	p	0.54207
513.049	0.0	+	51	noun	phrase	2	12	nomatch	petit	-1	1	p	0.54207
515.0489	0.0	PETIT	51	noun	phrase	2	13	nomatch	petit	-1	1	p	0.54207
515.6487999999999	0.0	+	51	noun	phrase	2	14	nomatch	petit	-1	1	p	0.54207
515.5908999999999	0.0	[response]	51	noun	phrase	2	15	nomatch	petit	-1	1	p	0.54207
517.4485999999999	0.0	+	52	verb	list	2	1	match	bleu	5	1	y	0.8521300000000002
517.9985999999999	0.2	kpgjbcf	52	verb	list	2	2	match	bleu	5	1	y	0.8521300000000002
518.1985999999999	0.0	+	52	verb	list	2	3	match	bleu	5	1	y	0.8521300000000002
518.5985	0.2	xhvf	52	verb	list	2	4	match	bleu	5	1	y	0.8521300000000002
518.7985	0.0	+	52	verb	list	2	5	match	bleu	5	1	y	0.8521300000000002
519.1985	0.2	fml	52	verb	list	2	6	match	bleu	5	1	y	0.8521300000000002
519.3984999999999	0.0	+	52	verb	list	2	7	match	bleu	5	1	y	0.8521300000000002
519.7983999999999	0.2	patiner	52	verb	list	2	8	match	bleu	5	1	y	0.8521300000000002
519.9984	0.0	+	52	verb	list	2	9	match	bleu	5	1	y	0.8521300000000002
520.3983999999999	0.2	bleu	52	verb	list	2	10	match	bleu	5	1	y	0.8521300000000002
520.5984	0.0	+	52	verb	list	2	11	match	bleu	5	1	y	0.8521300000000002
520.9983	0.0	+	52	verb	list	2	12	match	bleu	5	1	y	0.8521300000000002
522.9982	0.0	BLEU	52	verb	list	2	13	match	bleu	5	1	y	0.8521300000000002
523.9146999999999	0.0	+	52	verb	list	2	14	match	bleu	5	1	y	0.8521300000000002
523.8503	0.0	[response]	52	verb	list	2	15	match	bleu	5	1	y	0.8521300000000002
525.3978999999999	0.0	+	53	noun	list	1	1	match	vite	5	1	y	0.49659
525.9479	0.2	cpqzdl	53	noun	list	1	2	match	vite	5	1	y	0.49659
526.1478999999999	0.0	+	53	noun	list	1	3	match	vite	5	1	y	0.49659
526.5478999999999	0.2	slvm	53	noun	list	1	4	match	vite	5	1	y	0.49659
526.7478	0.0	+	53	noun	list	1	5	match	vite	5	1	y	0.49659
527.1478	0.2	vp	53	noun	list	1	6	match	vite	5	1	y	0.49659
527.3478	0.0	+	53	noun	list	1	7	match	vite	5	1	y	0.49659
527.7478	0.2	xpnkzqbr	53	noun	list	1	8	match	vite	5	1	y	0.49659
527.9476999999999	0.0	+	53	noun	list	1	9	match	vite	5	1	y	0.49659
528.3476999999999	0.2	vite	53	noun	list	1	10	match	vite	5	1	y	0.49659
528.5477	0.0	+	53	noun	list	1	11	match	vite	5	1	y	0.49659
528.9476	0.0	+	53	noun	list	1	12	match	vite	5	1	y	0.49659
530.9475	0.0	VITE	53	noun	list	1	13	match	vite	5	1	y	0.49659
531.5152999999999	0.0	+	53	noun	list	1	14	match	vite	5	1	y	0.49659
531.4440999999999	0.0	[response]	53	noun	list	1	15	match	vite	5	1	y	0.49659
533.3472999999999	0.0	+	54	noun	phrase	3	1	nomatch	voilier	-1	1	p	0.54325
533.8972	0.2	qhtz	54	noun	phrase	3	2	nomatch	voilier	-1	1	p	0.54325
534.0971999999999	0.0	+	54	noun	phrase	3	3	nomatch	voilier	-1	1	p	0.54325
534.4971999999999	0.2	klgc	54	noun	phrase	3	4	nomatch	voilier	-1	1	p	0.54325
534.6971	0.0	+	54	noun	phrase	3	5	nomatch	voilier	-1	1	p	0.54325
535.0971	0.2	son	54	noun	phrase	3	6	nomatch	voilier	-1	1	p	0.54325
535.2971	0.0	+	54	noun	phrase	3	7	nomatch	voilier	-1	1	p	0.54325
535.6971	0.2	cendrier	54	noun	phrase	3	8	nomatch	voilier	-1	1	p	0.54325
535.8969999999999	0.0	+	54	noun	phrase	3	9	nomatch	voilier	-1	1	p	0.54325
536.2969999999999	0.2	bleu	54	noun	phrase	3	10	nomatch	voilier	-1	1	p	0.54325
536.497	0.0	+	54	noun	phrase	3	11	nomatch	voilier	-1	1	p	0.54325
536.8969999999999	0.0	+	54	noun	phrase	3	12	nomatch	voilier	-1	1	p	0.54325
538.8968	0.0	VOILIER	54	noun	phrase	3	13	nomatch	voilier	-1	1	p	0.54325
539.4966999999999	0.0	+	54	noun	phrase	3	14	nomatch	voilier	-1	1	p	0.54325
539.4399999999999	0.0	[response]	54	noun	phrase	3	15	nomatch	voilier	-1	1	p	0.54325
541.2965999999999	0.0	+	55	verb	phrase	1	1	match	plonger	5	1	y	0.5758200000000001
541.8465	0.2	vkpw	55	verb	phrase	1	2	match	plonger	5	1	y	0.5758200000000001
542.0464999999999	0.0	+	55	verb	phrase	1	3	match	plonger	5	1	y	0.5758200000000001
542.4464999999999	0.2	lzfq	55	verb	phrase	1	4	match	plonger	5	1	y	0.5758200000000001
542.6465	0.0	+	55	verb	phrase	1	5	match	plonger	5	1	y	0.5758200000000001
543.0464	0.2	njsf	55	verb	phrase	1	6	match	plonger	5	1	y	0.5758200000000001
543.2464	0.0	+	55	verb	phrase	1	7	match	plonger	5	1	y	0.5758200000000001
543.6464	0.2	dcsl	55	verb	phrase	1	8	match	plonger	5	1	y	0.5758200000000001
543.8463999999999	0.0	+	55	verb	phrase	1	9	match	plonger	5	1	y	0.5758200000000001
544.2462999999999	0.2	plonger	55	verb	phrase	1	10	match	plonger	5	1	y	0.5758200000000001
544.4463	0.0	+	55	verb	phrase	1	11	match	plonger	5	1	y	0.5758200000000001
544.8462999999999	0.0	+	55	verb	phrase	1	12	match	plonger	5	1	y	0.5758200000000001
546.8461	0.0	PLONGER	55	verb	phrase	1	13	match	plonger	5	1	y	0.5758200000000001
547.4793999999999	0.0	+	55	verb	phrase	1	14	match	plonger	5	1	y	0.5758200000000001
547.4218999999999	0.0	[response]	55	verb	phrase	1	15	match	plonger	5	1	y	0.5758200000000001
549.2459	0.0	+	56	noun	phrase	3	1	nomatch	voilier	-1	1	p	0.63651
549.7958	0.2	mpbgrc	56	noun	phrase	3	2	nomatch	voilier	-1	1	p	0.63651
549.9957999999999	0.0	+	56	noun	phrase	3	3	nomatch	voilier	-1	1	p	0.63651
550.3958	0.2	ckl	56	noun	phrase	3	4	nomatch	voilier	-1	1	p	0.63651
550.5957999999999	0.0	+	56	noun	phrase	3	5	nomatch	voilier	-1	1	p	0.63651
550.9956999999999	0.2	mon	56	noun	phrase	3	6	nomatch	voilier	-1	1	p	0.63651
551.1957	0.0	+	56	noun	phrase	3	7	nomatch	voilier	-1	1	p	0.63651
551.5957	0.2	petit	56	noun	phrase	3	8	nomatch	voilier	-1	1	p	0.63651
551.7956999999999	0.0	+	56	noun	phrase	3	9	nomatch	voilier	-1	1	p	0.63651
552.1955999999999	0.2	tablier	56	noun	phrase	3	10	nomatch	voilier	-1	1	p	0.63651
552.3956	0.0	+	56	noun	phrase	3	11	nomatch	voilier	-1	1	p	0.63651
552.7955999999999	0.0	+	56	noun	phrase	3	12	nomatch	voilier	-1	1	p	0.63651
554.7954	0.0	VOILIER	56	noun	phrase	3	13	nomatch	voilier	-1	1	p	0.63651
555.4952999999999	0.0	+	56	noun	phrase	3	14	nomatch	voilier	-1	1	p	0.63651
555.4318999999999	0.0	[response]	56	noun	phrase	3	15	nomatch	voilier	-1	1	p	0.63651
565.1945	0.0	+	57	verb	list	4	1	match	jade	2	1	y	1.1176
565.7444999999999	0.2	zwxlcp	57	verb	list	4	2	match	jade	2	1	y	1.1176
565.9444	0.0	+	57	verb	list	4	3	match	jade	2	1	y	1.1176
566.3444	0.2	jade	57	verb	list	4	4	match	jade	2	1	y	1.1176
566.5444	0.0	+	57	verb	list	4	5	match	jade	2	1	y	1.1176
566.9444	0.2	leur	57	verb	list	4	6	match	jade	2	1	y	1.1176
567.1442999999999	0.0	+	57	verb	list	4	7	match	jade	2	1	y	1.1176
567.5442999999999	0.2	voyager	57	verb	list	4	8	match	jade	2	1	y	1.1176
567.7443	0.0	+	57	verb	list	4	9	match	jade	2	1	y	1.1176
568.1442999999999	0.2	bleu	57	verb	list	4	10	match	jade	2	1	y	1.1176
568.3442	0.0	+	57	verb	list	4	11	match	jade	2	1	y	1.1176
568.7442	0.0	+	57	verb	list	4	12	match	jade	2	1	y	1.1176
570.7439999999999	0.0	JADE	57	verb	list	4	13	match	jade	2	1	y	1.1176
571.9272	0.0	+	57	verb	list	4	14	match	jade	2	1	y	1.1176
571.8616	0.0	[response]	57	verb	list	4	15	match	jade	2	1	y	1.1176
581.1431	0.0	+	58	verb	list	1	1	match	rouler	5	1	y	0.74255
581.6931	0.2	wtz	58	verb	list	1	2	match	rouler	5	1	y	0.74255
581.8931	0.0	+	58	verb	list	1	3	match	rouler	5	1	y	0.74255
582.293	0.2	zpwn	58	verb	list	1	4	match	rouler	5	1	y	0.74255
582.4929999999999	0.0	+	58	verb	list	1	5	match	rouler	5	1	y	0.74255
582.8929999999999	0.2	njsf	58	verb	list	1	6	match	rouler	5	1	y	0.74255
583.093	0.0	+	58	verb	list	1	7	match	rouler	5	1	y	0.74255
583.4929	0.2	pzgfx	58	verb	list	1	8	match	rouler	5	1	y	0.74255
583.6929	0.0	+	58	verb	list	1	9	match	rouler	5	1	y	0.74255
584.0929	0.2	rouler	58	verb	list	1	10	match	rouler	5	1	y	0.74255
584.2928999999999	0.0	+	58	verb	list	1	11	match	rouler	5	1	y	0.74255
584.6927999999999	0.0	+	58	verb	list	1	12	match	rouler	5	1	y	0.74255
586.6926	0.0	ROULER	58	verb	list	1	13	match	rouler	5	1	y	0.74255
587.4925999999999	0.0	+	58	verb	list	1	14	match	rouler	5	1	y	0.74255
587.4352	0.0	[response]	58	verb	list	1	15	match	rouler	5	1	y	0.74255
589.0924	0.0	+	59	verb	list	1	1	match	plonger	5	1	y	0.47913
589.6424	0.2	gbtv	59	verb	list	1	2	match	plonger	5	1	y	0.47913
589.8424	0.0	+	59	verb	list	1	3	match	plonger	5	1	y	0.47913
590.2423	0.2	pnsd	59	verb	list	1	4	match	plonger	5	1	y	0.47913
590.4422999999999	0.0	+	59	verb	list	1	5	match	plonger	5	1	y	0.47913
590.8422999999999	0.2	fml	59	verb	list	1	6	match	plonger	5	1	y	0.47913
591.0423	0.0	+	59	verb	list	1	7	match	plonger	5	1	y	0.47913
591.4422	0.2	wdbr	59	verb	list	1	8	match	plonger	5	1	y	0.47913
591.6422	0.0	+	59	verb	list	1	9	match	plonger	5	1	y	0.47913
592.0422	0.2	plonger	59	verb	list	1	10	match	plonger	5	1	y	0.47913
592.2421999999999	0.0	+	59	verb	list	1	11	match	plonger	5	1	y	0.47913
592.6420999999999	0.0	+	59	verb	list	1	12	match	plonger	5	1	y	0.47913
594.6419999999999	0.0	PLONGER	59	verb	list	1	13	match	plonger	5	1	y	0.47913
595.1751999999999	0.0	+	59	verb	list	1	14	match	plonger	5	1	y	0.47913
595.1211	0.0	[response]	59	verb	list	1	15	match	plonger	5	1	y	0.47913
597.0417	0.0	+	60	verb	phrase	1	1	nomatch	tôt	-1	1	p	0.81361
597.5917	0.2	gnbj	60	verb	phrase	1	2	nomatch	tôt	-1	1	p	0.81361
597.7917	0.0	+	60	verb	phrase	1	3	nomatch	tôt	-1	1	p	0.81361
598.1916	0.2	brtg	60	verb	phrase	1	4	nomatch	tôt	-1	1	p	0.81361
598.3915999999999	0.0	+	60	verb	phrase	1	5	nomatch	tôt	-1	1	p	0.81361
598.7915999999999	0.2	smjp	60	verb	phrase	1	6	nomatch	tôt	-1	1	p	0.81361
598.9916	0.0	+	60	verb	phrase	1	7	nomatch	tôt	-1	1	p	0.81361
599.3915	0.2	fwsljkp	60	verb	phrase	1	8	nomatch	tôt	-1	1	p	0.81361
599.5915	0.0	+	60	verb	phrase	1	9	nomatch	tôt	-1	1	p	0.81361
599.9915	0.2	tard	60	verb	phrase	1	10	nomatch	tôt	-1	1	p	0.81361
600.1914999999999	0.0	+	60	verb	phrase	1	11	nomatch	tôt	-1	1	p	0.81361
600.5913999999999	0.0	+	60	verb	phrase	1	12	nomatch	tôt	-1	1	p	0.81361
602.5912999999999	0.0	TÔT	60	verb	phrase	1	13	nomatch	tôt	-1	1	p	0.81361
603.4744999999999	0.0	+	60	verb	phrase	1	14	nomatch	tôt	-1	1	p	0.81361
603.4049	0.0	[response]	60	verb	phrase	1	15	nomatch	tôt	-1	1	p	0.81361
604.9911	0.0	+	61	verb	phrase	1	1	nomatch	beaucoup	-1	1	p	0.77646
605.5409999999999	0.2	pntdzx	61	verb	phrase	1	2	nomatch	beaucoup	-1	1	p	0.77646
605.741	0.0	+	61	verb	phrase	1	3	nomatch	beaucoup	-1	1	p	0.77646
606.141	0.2	zmbq	61	verb	phrase	1	4	nomatch	beaucoup	-1	1	p	0.77646
606.3408999999999	0.0	+	61	verb	phrase	1	5	nomatch	beaucoup	-1	1	p	0.77646
606.7408999999999	0.2	njsf	61	verb	phrase	1	6	nomatch	beaucoup	-1	1	p	0.77646
606.9408999999999	0.0	+	61	verb	phrase	1	7	nomatch	beaucoup	-1	1	p	0.77646
607.3408999999999	0.2	xgmdrft	61	verb	phrase	1	8	nomatch	beaucoup	-1	1	p	0.77646
607.5408	0.0	+	61	verb	phrase	1	9	nomatch	beaucoup	-1	1	p	0.77646
607.9408	0.2	mieux	61	verb	phrase	1	10	nomatch	beaucoup	-1	1	p	0.77646
608.1407999999999	0.0	+	61	verb	phrase	1	11	nomatch	beaucoup	-1	1	p	0.77646
608.5408	0.0	+	61	verb	phrase	1	12	nomatch	beaucoup	-1	1	p	0.77646
610.5405999999999	0.0	BEAUCOUP	61	verb	phrase	1	13	nomatch	beaucoup	-1	1	p	0.77646
611.3738	0.0	+	61	verb	phrase	1	14	nomatch	beaucoup	-1	1	p	0.77646
611.317	0.0	[response]	61	verb	phrase	1	15	nomatch	beaucoup	-1	1	p	0.77646
612.9404	0.0	+	62	noun	list	1	1	match	tablier	5	1	y	0.61037
613.4902999999999	0.2	xrqnjw	62	noun	list	1	2	match	tablier	5	1	y	0.61037
613.6903	0.0	+	62	noun	list	1	3	match	tablier	5	1	y	0.61037
614.0903	0.2	brtg	62	noun	list	1	4	match	tablier	5	1	y	0.61037
614.2903	0.0	+	62	noun	list	1	5	match	tablier	5	1	y	0.61037
614.6902	0.2	tvw	62	noun	list	1	6	match	tablier	5	1	y	0.61037
614.8901999999999	0.0	+	62	noun	list	1	7	match	tablier	5	1	y	0.61037
615.2901999999999	0.2	mgkc	62	noun	list	1	8	match	tablier	5	1	y	0.61037
615.4901	0.0	+	62	noun	list	1	9	match	tablier	5	1	y	0.61037
615.8901	0.2	tablier	62	noun	list	1	10	match	tablier	5	1	y	0.61037
616.0901	0.0	+	62	noun	list	1	11	match	tablier	5	1	y	0.61037
616.4901	0.0	+	62	noun	list	1	12	match	tablier	5	1	y	0.61037
618.4898999999999	0.0	TABLIER	62	noun	list	1	13	match	tablier	5	1	y	0.61037
619.1564999999999	0.0	+	62	noun	list	1	14	match	tablier	5	1	y	0.61037
619.1003	0.0	[response]	62	noun	list	1	15	match	tablier	5	1	y	0.61037
620.8897	0.0	+	63	verb	phrase	4	1	nomatch	peut	-1	1	p	0.9794900000000001
621.4395999999999	0.2	hrgscdz	63	verb	phrase	4	2	nomatch	peut	-1	1	p	0.9794900000000001
621.6396	0.0	+	63	verb	phrase	4	3	nomatch	peut	-1	1	p	0.9794900000000001
622.0396	0.2	marc	63	verb	phrase	4	4	nomatch	peut	-1	1	p	0.9794900000000001
622.2396	0.0	+	63	verb	phrase	4	5	nomatch	peut	-1	1	p	0.9794900000000001
622.6395	0.2	va	63	verb	phrase	4	6	nomatch	peut	-1	1	p	0.9794900000000001
622.8394999999999	0.0	+	63	verb	phrase	4	7	nomatch	peut	-1	1	p	0.9794900000000001
623.2394999999999	0.2	trop	63	verb	phrase	4	8	nomatch	peut	-1	1	p	0.9794900000000001
623.4395	0.0	+	63	verb	phrase	4	9	nomatch	peut	-1	1	p	0.9794900000000001
623.8394	0.2	voyager	63	verb	phrase	4	10	nomatch	peut	-1	1	p	0.9794900000000001
624.0394	0.0	+	63	verb	phrase	4	11	nomatch	peut	-1	1	p	0.9794900000000001
624.4394	0.0	+	63	verb	phrase	4	12	nomatch	peut	-1	1	p	0.9794900000000001
626.4391999999999	0.0	PEUT	63	verb	phrase	4	13	nomatch	peut	-1	1	p	0.9794900000000001
627.4891	0.0	+	63	verb	phrase	4	14	nomatch	peut	-1	1	p	0.9794900000000001
627.4187	0.0	[response]	63	verb	phrase	4	15	nomatch	peut	-1	1	p	0.9794900000000001
628.8389999999999	0.0	+	64	noun	phrase	3	1	nomatch	jongler	-1	1	p	1.0601000000000003
629.3888999999999	0.2	kbtgv	64	noun	phrase	3	2	nomatch	jongler	-1	1	p	1.0601000000000003
629.5889	0.0	+	64	noun	phrase	3	3	nomatch	jongler	-1	1	p	1.0601000000000003
629.9889	0.2	ckl	64	noun	phrase	3	4	nomatch	jongler	-1	1	p	1.0601000000000003
630.1889	0.0	+	64	noun	phrase	3	5	nomatch	jongler	-1	1	p	1.0601000000000003
630.5888	0.2	mon	64	noun	phrase	3	6	nomatch	jongler	-1	1	p	1.0601000000000003
630.7887999999999	0.0	+	64	noun	phrase	3	7	nomatch	jongler	-1	1	p	1.0601000000000003
631.1887999999999	0.2	voilier	64	noun	phrase	3	8	nomatch	jongler	-1	1	p	1.0601000000000003
631.3888	0.0	+	64	noun	phrase	3	9	nomatch	jongler	-1	1	p	1.0601000000000003
631.7887	0.2	rouge	64	noun	phrase	3	10	nomatch	jongler	-1	1	p	1.0601000000000003
631.9887	0.0	+	64	noun	phrase	3	11	nomatch	jongler	-1	1	p	1.0601000000000003
632.3887	0.0	+	64	noun	phrase	3	12	nomatch	jongler	-1	1	p	1.0601000000000003
634.3884999999999	0.0	JONGLER	64	noun	phrase	3	13	nomatch	jongler	-1	1	p	1.0601000000000003
635.5051	0.0	+	64	noun	phrase	3	14	nomatch	jongler	-1	1	p	1.0601000000000003
635.4485999999999	0.0	[response]	64	noun	phrase	3	15	nomatch	jongler	-1	1	p	1.0601000000000003
636.7882999999999	0.0	+	65	verb	phrase	3	1	nomatch	vite	-1	1	p	0.53868
637.3383	0.2	lcf	65	verb	phrase	3	2	nomatch	vite	-1	1	p	0.53868
637.5382	0.0	+	65	verb	phrase	3	3	nomatch	vite	-1	1	p	0.53868
637.9381999999999	0.2	zmbq	65	verb	phrase	3	4	nomatch	vite	-1	1	p	0.53868
638.1382	0.0	+	65	verb	phrase	3	5	nomatch	vite	-1	1	p	0.53868
638.5381	0.2	peut	65	verb	phrase	3	6	nomatch	vite	-1	1	p	0.53868
638.7380999999999	0.0	+	65	verb	phrase	3	7	nomatch	vite	-1	1	p	0.53868
639.1381	0.2	plus	65	verb	phrase	3	8	nomatch	vite	-1	1	p	0.53868
639.3380999999999	0.0	+	65	verb	phrase	3	9	nomatch	vite	-1	1	p	0.53868
639.7379999999999	0.2	chasser	65	verb	phrase	3	10	nomatch	vite	-1	1	p	0.53868
639.938	0.0	+	65	verb	phrase	3	11	nomatch	vite	-1	1	p	0.53868
640.338	0.0	+	65	verb	phrase	3	12	nomatch	vite	-1	1	p	0.53868
642.3377999999999	0.0	VITE	65	verb	phrase	3	13	nomatch	vite	-1	1	p	0.53868
642.9377999999999	0.0	+	65	verb	phrase	3	14	nomatch	vite	-1	1	p	0.53868
642.8765	0.0	[response]	65	verb	phrase	3	15	nomatch	vite	-1	1	p	0.53868
644.7375999999999	0.0	+	66	verb	list	4	1	nomatch	jade	-1	1	p	0.91707
645.2876	0.2	lbj	66	verb	list	4	2	nomatch	jade	-1	1	p	0.91707
645.4875	0.0	+	66	verb	list	4	3	nomatch	jade	-1	1	p	0.91707
645.8874999999999	0.2	jean	66	verb	list	4	4	nomatch	jade	-1	1	p	0.91707
646.0875	0.0	+	66	verb	list	4	5	nomatch	jade	-1	1	p	0.91707
646.4875	0.2	leur	66	verb	list	4	6	nomatch	jade	-1	1	p	0.91707
646.6873999999999	0.0	+	66	verb	list	4	7	nomatch	jade	-1	1	p	0.91707
647.0874	0.2	galoper	66	verb	list	4	8	nomatch	jade	-1	1	p	0.91707
647.2873999999999	0.0	+	66	verb	list	4	9	nomatch	jade	-1	1	p	0.91707
647.6873999999999	0.2	vert	66	verb	list	4	10	nomatch	jade	-1	1	p	0.91707
647.8873	0.0	+	66	verb	list	4	11	nomatch	jade	-1	1	p	0.91707
648.2873	0.0	+	66	verb	list	4	12	nomatch	jade	-1	1	p	0.91707
650.2870999999999	0.0	JADE	66	verb	list	4	13	nomatch	jade	-1	1	p	0.91707
651.2704	0.0	+	66	verb	list	4	14	nomatch	jade	-1	1	p	0.91707
651.2041999999999	0.0	[response]	66	verb	list	4	15	nomatch	jade	-1	1	p	0.91707
652.6868999999999	0.0	+	67	verb	phrase	3	1	match	va	3	1	y	0.55341
653.2369	0.2	sqvxjrg	67	verb	phrase	3	2	match	va	3	1	y	0.55341
653.4368999999999	0.0	+	67	verb	phrase	3	3	match	va	3	1	y	0.55341
653.8367999999999	0.2	lzfq	67	verb	phrase	3	4	match	va	3	1	y	0.55341
654.0368	0.0	+	67	verb	phrase	3	5	match	va	3	1	y	0.55341
654.4368	0.2	va	67	verb	phrase	3	6	match	va	3	1	y	0.55341
654.6368	0.0	+	67	verb	phrase	3	7	match	va	3	1	y	0.55341
655.0367	0.2	beaucoup	67	verb	phrase	3	8	match	va	3	1	y	0.55341
655.2366999999999	0.0	+	67	verb	phrase	3	9	match	va	3	1	y	0.55341
655.6366999999999	0.2	patiner	67	verb	phrase	3	10	match	va	3	1	y	0.55341
655.8366	0.0	+	67	verb	phrase	3	11	match	va	3	1	y	0.55341
656.2366	0.0	+	67	verb	phrase	3	12	match	va	3	1	y	0.55341
658.2364	0.0	VA	67	verb	phrase	3	13	match	va	3	1	y	0.55341
658.853	0.0	+	67	verb	phrase	3	14	match	va	3	1	y	0.55341
658.7897999999999	0.0	[response]	67	verb	phrase	3	15	match	va	3	1	y	0.55341
660.6361999999999	0.0	+	68	verb	list	2	1	nomatch	jade	-1	1	p	0.67026
661.1862	0.2	wzmjpg	68	verb	list	2	2	nomatch	jade	-1	1	p	0.67026
661.3861999999999	0.0	+	68	verb	list	2	3	nomatch	jade	-1	1	p	0.67026
661.7860999999999	0.2	zpwn	68	verb	list	2	4	nomatch	jade	-1	1	p	0.67026
661.9861	0.0	+	68	verb	list	2	5	nomatch	jade	-1	1	p	0.67026
662.3860999999999	0.2	vp	68	verb	list	2	6	nomatch	jade	-1	1	p	0.67026
662.5861	0.0	+	68	verb	list	2	7	nomatch	jade	-1	1	p	0.67026
662.986	0.2	nouveau	68	verb	list	2	8	nomatch	jade	-1	1	p	0.67026
663.1859999999999	0.0	+	68	verb	list	2	9	nomatch	jade	-1	1	p	0.67026
663.5859999999999	0.2	plonger	68	verb	list	2	10	nomatch	jade	-1	1	p	0.67026
663.786	0.0	+	68	verb	list	2	11	nomatch	jade	-1	1	p	0.67026
664.1859	0.0	+	68	verb	list	2	12	nomatch	jade	-1	1	p	0.67026
666.1858	0.0	JADE	68	verb	list	2	13	nomatch	jade	-1	1	p	0.67026
666.919	0.0	+	68	verb	list	2	14	nomatch	jade	-1	1	p	0.67026
666.856	0.0	[response]	68	verb	list	2	15	nomatch	jade	-1	1	p	0.67026
668.5854999999999	0.0	+	69	noun	phrase	1	1	match	bleu	5	1	y	1.0326
669.1355	0.2	vzhxmsn	69	noun	phrase	1	2	match	bleu	5	1	y	1.0326
669.3354999999999	0.0	+	69	noun	phrase	1	3	match	bleu	5	1	y	1.0326
669.7353999999999	0.2	fnlw	69	noun	phrase	1	4	match	bleu	5	1	y	1.0326
669.9354	0.0	+	69	noun	phrase	1	5	match	bleu	5	1	y	1.0326
670.3353999999999	0.2	blzh	69	noun	phrase	1	6	match	bleu	5	1	y	1.0326
670.5354	0.0	+	69	noun	phrase	1	7	match	bleu	5	1	y	1.0326
670.9353	0.2	qdcrhmz	69	noun	phrase	1	8	match	bleu	5	1	y	1.0326
671.1352999999999	0.0	+	69	noun	phrase	1	9	match	bleu	5	1	y	1.0326
671.5353	0.2	bleu	69	noun	phrase	1	10	match	bleu	5	1	y	1.0326
671.7352999999999	0.0	+	69	noun	phrase	1	11	match	bleu	5	1	y	1.0326
672.1351999999999	0.0	+	69	noun	phrase	1	12	match	bleu	5	1	y	1.0326
674.1351	0.0	BLEU	69	noun	phrase	1	13	match	bleu	5	1	y	1.0326
675.2349999999999	0.0	+	69	noun	phrase	1	14	match	bleu	5	1	y	1.0326
675.1676	0.0	[response]	69	noun	phrase	1	15	match	bleu	5	1	y	1.0326
676.5347999999999	0.0	+	70	verb	list	1	1	nomatch	patiner	-1	1	p	1.2046
677.0849	0.2	cpmj	70	verb	list	1	2	nomatch	patiner	-1	1	p	1.2046
677.2847999999999	0.0	+	70	verb	list	1	3	nomatch	patiner	-1	1	p	1.2046
677.7013999999999	0.2	zmbq	70	verb	list	1	4	nomatch	patiner	-1	1	p	1.2046
677.9014	0.0	+	70	verb	list	1	5	nomatch	patiner	-1	1	p	1.2046
678.3014	0.2	tvw	70	verb	list	1	6	nomatch	patiner	-1	1	p	1.2046
678.5024999999999	0.0	+	70	verb	list	1	7	nomatch	patiner	-1	1	p	1.2046
678.9013	0.2	mths	70	verb	list	1	8	nomatch	patiner	-1	1	p	1.2046
679.1012999999999	0.0	+	70	verb	list	1	9	nomatch	patiner	-1	1	p	1.2046
679.5012999999999	0.2	rouler	70	verb	list	1	10	nomatch	patiner	-1	1	p	1.2046
679.7012	0.0	+	70	verb	list	1	11	nomatch	patiner	-1	1	p	1.2046
680.1012	0.0	+	70	verb	list	1	12	nomatch	patiner	-1	1	p	1.2046
682.101	0.0	PATINER	70	verb	list	1	13	nomatch	patiner	-1	1	p	1.2046
683.3675999999999	0.0	+	70	verb	list	1	14	nomatch	patiner	-1	1	p	1.2046
683.3055999999999	0.0	[response]	70	verb	list	1	15	nomatch	patiner	-1	1	p	1.2046
684.5007999999999	0.0	+	71	verb	phrase	2	1	match	vite	5	1	y	0.57913
685.0508	0.2	lfq	71	verb	phrase	2	2	match	vite	5	1	y	0.57913
685.2507999999999	0.0	+	71	verb	phrase	2	3	match	vite	5	1	y	0.57913
685.6506999999999	0.2	gjfq	71	verb	phrase	2	4	match	vite	5	1	y	0.57913
685.8507	0.0	+	71	verb	phrase	2	5	match	vite	5	1	y	0.57913
686.2506999999999	0.2	smjp	71	verb	phrase	2	6	match	vite	5	1	y	0.57913
686.4507	0.0	+	71	verb	phrase	2	7	match	vite	5	1	y	0.57913
686.8506	0.2	voyager	71	verb	phrase	2	8	match	vite	5	1	y	0.57913
687.0505999999999	0.0	+	71	verb	phrase	2	9	match	vite	5	1	y	0.57913
687.4506	0.2	vite	71	verb	phrase	2	10	match	vite	5	1	y	0.57913
687.6505999999999	0.0	+	71	verb	phrase	2	11	match	vite	5	1	y	0.57913
688.0504999999999	0.0	+	71	verb	phrase	2	12	match	vite	5	1	y	0.57913
690.0503	0.0	VITE	71	verb	phrase	2	13	match	vite	5	1	y	0.57913
690.6836	0.0	+	71	verb	phrase	2	14	match	vite	5	1	y	0.57913
690.6295	0.0	[response]	71	verb	phrase	2	15	match	vite	5	1	y	0.57913
692.4500999999999	0.0	+	72	verb	phrase	3	1	match	va	3	1	y	0.71754
693.0001	0.2	cbvz	72	verb	phrase	3	2	match	va	3	1	y	0.71754
693.2000999999999	0.0	+	72	verb	phrase	3	3	match	va	3	1	y	0.71754
693.5999999999999	0.2	lzfq	72	verb	phrase	3	4	match	va	3	1	y	0.71754
693.8	0.0	+	72	verb	phrase	3	5	match	va	3	1	y	0.71754
694.1999999999999	0.2	va	72	verb	phrase	3	6	match	va	3	1	y	0.71754
694.4	0.0	+	72	verb	phrase	3	7	match	va	3	1	y	0.71754
694.7999	0.2	beaucoup	72	verb	phrase	3	8	match	va	3	1	y	0.71754
694.9998999999999	0.0	+	72	verb	phrase	3	9	match	va	3	1	y	0.71754
695.3999	0.2	galoper	72	verb	phrase	3	10	match	va	3	1	y	0.71754
695.5998999999999	0.0	+	72	verb	phrase	3	11	match	va	3	1	y	0.71754
695.9997999999999	0.0	+	72	verb	phrase	3	12	match	va	3	1	y	0.71754
697.9997	0.0	VA	72	verb	phrase	3	13	match	va	3	1	y	0.71754
698.7828999999999	0.0	+	72	verb	phrase	3	14	match	va	3	1	y	0.71754
698.7171999999999	0.0	[response]	72	verb	phrase	3	15	match	va	3	1	y	0.71754
700.3993999999999	0.0	+	73	verb	list	3	1	match	beau	4	1	y	0.90207
700.9494	0.2	qmfnv	73	verb	list	3	2	match	beau	4	1	y	0.90207
701.1493999999999	0.0	+	73	verb	list	3	3	match	beau	4	1	y	0.90207
701.5494	0.2	zpwn	73	verb	list	3	4	match	beau	4	1	y	0.90207
701.7493	0.0	+	73	verb	list	3	5	match	beau	4	1	y	0.90207
702.1492999999999	0.2	peut	73	verb	list	3	6	match	beau	4	1	y	0.90207
702.3493	0.0	+	73	verb	list	3	7	match	beau	4	1	y	0.90207
702.7492	0.2	beau	73	verb	list	3	8	match	beau	4	1	y	0.90207
702.9491999999999	0.0	+	73	verb	list	3	9	match	beau	4	1	y	0.90207
703.3492	0.2	parader	73	verb	list	3	10	match	beau	4	1	y	0.90207
703.5491999999999	0.0	+	73	verb	list	3	11	match	beau	4	1	y	0.90207
703.9490999999999	0.0	+	73	verb	list	3	12	match	beau	4	1	y	0.90207
705.949	0.0	BEAU	73	verb	list	3	13	match	beau	4	1	y	0.90207
706.9155	0.0	+	73	verb	list	3	14	match	beau	4	1	y	0.90207
706.851	0.0	[response]	73	verb	list	3	15	match	beau	4	1	y	0.90207
708.3488	0.0	+	74	verb	phrase	1	1	match	jongler	5	1	y	0.44233
708.8987	0.2	dfw	74	verb	phrase	1	2	match	jongler	5	1	y	0.44233
709.0987	0.0	+	74	verb	phrase	1	3	match	jongler	5	1	y	0.44233
709.4987	0.2	pnsd	74	verb	phrase	1	4	match	jongler	5	1	y	0.44233
709.6985999999999	0.0	+	74	verb	phrase	1	5	match	jongler	5	1	y	0.44233
710.0985999999999	0.2	vp	74	verb	phrase	1	6	match	jongler	5	1	y	0.44233
710.2986	0.0	+	74	verb	phrase	1	7	match	jongler	5	1	y	0.44233
710.6985999999999	0.2	tlrj	74	verb	phrase	1	8	match	jongler	5	1	y	0.44233
710.8984999999999	0.0	+	74	verb	phrase	1	9	match	jongler	5	1	y	0.44233
711.2985	0.2	jongler	74	verb	phrase	1	10	match	jongler	5	1	y	0.44233
711.4984999999999	0.0	+	74	verb	phrase	1	11	match	jongler	5	1	y	0.44233
711.8984999999999	0.0	+	74	verb	phrase	1	12	match	jongler	5	1	y	0.44233
713.8983	0.0	JONGLER	74	verb	phrase	1	13	match	jongler	5	1	y	0.44233
714.3982	0.0	+	74	verb	phrase	1	14	match	jongler	5	1	y	0.44233
714.3406	0.0	[response]	74	verb	phrase	1	15	match	jongler	5	1	y	0.44233
716.2981	0.0	+	75	verb	phrase	1	1	nomatch	leur	-1	1	p	0.6735
716.848	0.2	nfrzh	75	verb	phrase	1	2	nomatch	leur	-1	1	p	0.6735
717.048	0.0	+	75	verb	phrase	1	3	nomatch	leur	-1	1	p	0.6735
717.448	0.2	xhvf	75	verb	phrase	1	4	nomatch	leur	-1	1	p	0.6735
717.6479999999999	0.0	+	75	verb	phrase	1	5	nomatch	leur	-1	1	p	0.6735
718.0478999999999	0.2	njsf	75	verb	phrase	1	6	nomatch	leur	-1	1	p	0.6735
718.2479	0.0	+	75	verb	phrase	1	7	nomatch	leur	-1	1	p	0.6735
718.6478999999999	0.2	bftwcs	75	verb	phrase	1	8	nomatch	leur	-1	1	p	0.6735
718.8479	0.0	+	75	verb	phrase	1	9	nomatch	leur	-1	1	p	0.6735
719.2478	0.2	plus	75	verb	phrase	1	10	nomatch	leur	-1	1	p	0.6735
719.4477999999999	0.0	+	75	verb	phrase	1	11	nomatch	leur	-1	1	p	0.6735
719.8478	0.0	+	75	verb	phrase	1	12	nomatch	leur	-1	1	p	0.6735
721.8475999999999	0.0	LEUR	75	verb	phrase	1	13	nomatch	leur	-1	1	p	0.6735
722.5808999999999	0.0	+	75	verb	phrase	1	14	nomatch	leur	-1	1	p	0.6735
722.5210999999999	0.0	[response]	75	verb	phrase	1	15	nomatch	leur	-1	1	p	0.6735
724.2474	0.0	+	76	verb	list	3	1	match	peut	3	1	y	0.98557
724.7973	0.2	cvgrf	76	verb	list	3	2	match	peut	3	1	y	0.98557
724.9973	0.0	+	76	verb	list	3	3	match	peut	3	1	y	0.98557
725.3973	0.2	fnlw	76	verb	list	3	4	match	peut	3	1	y	0.98557
725.5972999999999	0.0	+	76	verb	list	3	5	match	peut	3	1	y	0.98557
725.9971999999999	0.2	peut	76	verb	list	3	6	match	peut	3	1	y	0.98557
726.1972	0.0	+	76	verb	list	3	7	match	peut	3	1	y	0.98557
726.5971999999999	0.2	beau	76	verb	list	3	8	match	peut	3	1	y	0.98557
726.7972	0.0	+	76	verb	list	3	9	match	peut	3	1	y	0.98557
727.1971	0.2	plonger	76	verb	list	3	10	match	peut	3	1	y	0.98557
727.3970999999999	0.0	+	76	verb	list	3	11	match	peut	3	1	y	0.98557
727.7971	0.0	+	76	verb	list	3	12	match	peut	3	1	y	0.98557
729.7968999999999	0.0	PEUT	76	verb	list	3	13	match	peut	3	1	y	0.98557
730.8467999999999	0.0	+	76	verb	list	3	14	match	peut	3	1	y	0.98557
730.7824999999999	0.0	[response]	76	verb	list	3	15	match	peut	3	1	y	0.98557
732.1967	0.0	+	77	noun	list	1	1	match	tôt	5	1	y	0.61637
732.7466999999999	0.2	swlzfq	77	noun	list	1	2	match	tôt	5	1	y	0.61637
732.9466	0.0	+	77	noun	list	1	3	match	tôt	5	1	y	0.61637
733.3466	0.2	zpwn	77	noun	list	1	4	match	tôt	5	1	y	0.61637
733.5465999999999	0.0	+	77	noun	list	1	5	match	tôt	5	1	y	0.61637
733.9464999999999	0.2	njsf	77	noun	list	1	6	match	tôt	5	1	y	0.61637
734.1465	0.0	+	77	noun	list	1	7	match	tôt	5	1	y	0.61637
734.5464999999999	0.2	qbxmglz	77	noun	list	1	8	match	tôt	5	1	y	0.61637
734.7465	0.0	+	77	noun	list	1	9	match	tôt	5	1	y	0.61637
735.1464	0.2	tôt	77	noun	list	1	10	match	tôt	5	1	y	0.61637
735.3463999999999	0.0	+	77	noun	list	1	11	match	tôt	5	1	y	0.61637
735.7464	0.0	+	77	noun	list	1	12	match	tôt	5	1	y	0.61637
737.7461999999999	0.0	TÔT	77	noun	list	1	13	match	tôt	5	1	y	0.61637
738.4295	0.0	+	77	noun	list	1	14	match	tôt	5	1	y	0.61637
738.3625999999999	0.0	[response]	77	noun	list	1	15	match	tôt	5	1	y	0.61637
740.146	0.0	+	78	verb	list	3	1	nomatch	tard	-1	1	p	0.80092
740.6959999999999	0.2	rtph	78	verb	list	3	2	nomatch	tard	-1	1	p	0.80092
740.8959	0.0	+	78	verb	list	3	3	nomatch	tard	-1	1	p	0.80092
741.2959	0.2	zmbq	78	verb	list	3	4	nomatch	tard	-1	1	p	0.80092
741.4959	0.0	+	78	verb	list	3	5	nomatch	tard	-1	1	p	0.80092
741.8959	0.2	leur	78	verb	list	3	6	nomatch	tard	-1	1	p	0.80092
742.0957999999999	0.0	+	78	verb	list	3	7	nomatch	tard	-1	1	p	0.80092
742.4957999999999	0.2	patiner	78	verb	list	3	8	nomatch	tard	-1	1	p	0.80092
742.6958	0.0	+	78	verb	list	3	9	nomatch	tard	-1	1	p	0.80092
743.0957999999999	0.2	noir	78	verb	list	3	10	nomatch	tard	-1	1	p	0.80092
743.2956999999999	0.0	+	78	verb	list	3	11	nomatch	tard	-1	1	p	0.80092
743.6957	0.0	+	78	verb	list	3	12	nomatch	tard	-1	1	p	0.80092
745.6954999999999	0.0	TARD	78	verb	list	3	13	nomatch	tard	-1	1	p	0.80092
746.5621	0.0	+	78	verb	list	3	14	nomatch	tard	-1	1	p	0.80092
746.4964	0.0	[response]	78	verb	list	3	15	nomatch	tard	-1	1	p	0.80092
748.0953	0.0	+	79	verb	phrase	3	1	nomatch	va	-1	1	p	0.86703
748.6452999999999	0.2	hdlr	79	verb	phrase	3	2	nomatch	va	-1	1	p	0.86703
748.8453	0.0	+	79	verb	phrase	3	3	nomatch	va	-1	1	p	0.86703
749.2452	0.2	xhvf	79	verb	phrase	3	4	nomatch	va	-1	1	p	0.86703
749.4452	0.0	+	79	verb	phrase	3	5	nomatch	va	-1	1	p	0.86703
749.8452	0.2	peut	79	verb	phrase	3	6	nomatch	va	-1	1	p	0.86703
750.0450999999999	0.0	+	79	verb	phrase	3	7	nomatch	va	-1	1	p	0.86703
750.4450999999999	0.2	plonger	79	verb	phrase	3	8	nomatch	va	-1	1	p	0.86703
750.6451	0.0	+	79	verb	phrase	3	9	nomatch	va	-1	1	p	0.86703
751.0450999999999	0.2	vite	79	verb	phrase	3	10	nomatch	va	-1	1	p	0.86703
751.245	0.0	+	79	verb	phrase	3	11	nomatch	va	-1	1	p	0.86703
751.645	0.0	+	79	verb	phrase	3	12	nomatch	va	-1	1	p	0.86703
753.6447999999999	0.0	VA	79	verb	phrase	3	13	nomatch	va	-1	1	p	0.86703
754.5781	0.0	+	79	verb	phrase	3	14	nomatch	va	-1	1	p	0.86703
754.5119	0.0	[response]	79	verb	phrase	3	15	nomatch	va	-1	1	p	0.86703
756.0446	0.0	+	80	verb	list	1	1	match	galoper	5	1	y	0.57429
756.5945999999999	0.2	hrpksj	80	verb	list	1	2	match	galoper	5	1	y	0.57429
756.7946	0.0	+	80	verb	list	1	3	match	galoper	5	1	y	0.57429
757.1945	0.2	ckl	80	verb	list	1	4	match	galoper	5	1	y	0.57429
757.3945	0.0	+	80	verb	list	1	5	match	galoper	5	1	y	0.57429
757.7945	0.2	smjp	80	verb	list	1	6	match	galoper	5	1	y	0.57429
757.9944999999999	0.0	+	80	verb	list	1	7	match	galoper	5	1	y	0.57429
758.3943999999999	0.2	kmzsl	80	verb	list	1	8	match	galoper	5	1	y	0.57429
758.5944	0.0	+	80	verb	list	1	9	match	galoper	5	1	y	0.57429
758.9943999999999	0.2	galoper	80	verb	list	1	10	match	galoper	5	1	y	0.57429
759.1944	0.0	+	80	verb	list	1	11	match	galoper	5	1	y	0.57429
759.5943	0.0	+	80	verb	list	1	12	match	galoper	5	1	y	0.57429
761.5940999999999	0.0	GALOPER	80	verb	list	1	13	match	galoper	5	1	y	0.57429
762.2274	0.0	+	80	verb	list	1	14	match	galoper	5	1	y	0.57429
763.9938999999999	0.0	+	80	verb	list	1	15	match	galoper	5	1	y	0.57429
765.0105	0.0	+	80	verb	list	1	16	match	galoper	5	1	y	0.57429
765.1105	0.0	+	80	verb	list	1	17	match	galoper	5	1	y	0.57429
766.5104	0.0	+	80	verb	list	1	18	match	galoper	5	1	y	0.57429
766.6103999999999	0.0	+	80	verb	list	1	19	match	galoper	5	1	y	0.57429
768.0102999999999	0.0	+	80	verb	list	1	20	match	galoper	5	1	y	0.57429
768.1102	0.0	+	80	verb	list	1	21	match	galoper	5	1	y	0.57429
769.4934999999999	0.0	+	80	verb	list	1	22	match	galoper	5	1	y	0.57429
769.5935	0.0	+	80	verb	list	1	23	match	galoper	5	1	y	0.57429
771.01	0.0	+	80	verb	list	1	24	match	galoper	5	1	y	0.57429
771.1099999999999	0.0	+	80	verb	list	1	25	match	galoper	5	1	y	0.57429
772.5098999999999	0.0	+	80	verb	list	1	26	match	galoper	5	1	y	0.57429
772.6098999999999	0.0	+	80	verb	list	1	27	match	galoper	5	1	y	0.57429
774.0097	0.0	+	80	verb	list	1	28	match	galoper	5	1	y	0.57429
774.1097	0.0	+	80	verb	list	1	29	match	galoper	5	1	y	0.57429
775.5096	0.0	+	80	verb	list	1	30	match	galoper	5	1	y	0.57429
775.6096	0.0	+	80	verb	list	1	31	match	galoper	5	1	y	0.57429
777.0095	0.0	+	80	verb	list	1	32	match	galoper	5	1	y	0.57429
777.1094999999999	0.0	+	80	verb	list	1	33	match	galoper	5	1	y	0.57429
778.5092999999999	0.0	+	80	verb	list	1	34	match	galoper	5	1	y	0.57429
778.6093	0.0	+	80	verb	list	1	35	match	galoper	5	1	y	0.57429
785.9254	0.0	+	80	verb	list	1	36	match	galoper	5	1	y	0.57429
762.1683999999999	0.0	[response]	80	verb	list	1	37	match	galoper	5	1	y	0.57429
