onset	duration	stim	trial_number	trial_type	trial_structure	trial_length	sequential_position	probe_type	probe	probe_position	response_correct	response_key	response_time
0.06730000000000302	0.0	+	1	verb	phrase	3	1	nomatch	doit	-1	1	p	0.75316
0.5506000000000029	0.2	rph	1	verb	phrase	3	2	nomatch	doit	-1	1	p	0.75316
0.7505999999999986	0.0	+	1	verb	phrase	3	3	nomatch	doit	-1	1	p	0.75316
1.1505999999999972	0.2	brtg	1	verb	phrase	3	4	nomatch	doit	-1	1	p	0.75316
1.3506	0.0	+	1	verb	phrase	3	5	nomatch	doit	-1	1	p	0.75316
1.7505000000000024	0.2	peut	1	verb	phrase	3	6	nomatch	doit	-1	1	p	0.75316
1.9504999999999981	0.0	+	1	verb	phrase	3	7	nomatch	doit	-1	1	p	0.75316
2.3504999999999967	0.2	trop	1	verb	phrase	3	8	nomatch	doit	-1	1	p	0.75316
2.5504999999999995	0.0	+	1	verb	phrase	3	9	nomatch	doit	-1	1	p	0.75316
2.950400000000002	0.2	rouler	1	verb	phrase	3	10	nomatch	doit	-1	1	p	0.75316
3.1503999999999976	0.0	+	1	verb	phrase	3	11	nomatch	doit	-1	1	p	0.75316
3.5503999999999962	0.0	+	1	verb	phrase	3	12	nomatch	doit	-1	1	p	0.75316
5.550199999999997	0.0	DOIT	1	verb	phrase	3	13	nomatch	doit	-1	1	p	0.75316
6.366799999999998	0.0	+	1	verb	phrase	3	14	nomatch	doit	-1	1	p	0.75316
6.303399999999996	0.0	[response]	1	verb	phrase	3	15	nomatch	doit	-1	1	p	0.75316
7.951500000000003	0.0	+	2	noun	list	4	1	nomatch	blanc	-1	1	p	0.65776
8.5	0.2	mtldrh	2	noun	list	4	2	nomatch	blanc	-1	1	p	0.65776
8.6999	0.0	+	2	noun	list	4	3	nomatch	blanc	-1	1	p	0.65776
9.099899999999998	0.2	avec	2	noun	list	4	4	nomatch	blanc	-1	1	p	0.65776
9.299900000000001	0.0	+	2	noun	list	4	5	nomatch	blanc	-1	1	p	0.65776
9.6999	0.2	va	2	noun	list	4	6	nomatch	blanc	-1	1	p	0.65776
9.899799999999999	0.0	+	2	noun	list	4	7	nomatch	blanc	-1	1	p	0.65776
10.299799999999998	0.2	boîtier	2	noun	list	4	8	nomatch	blanc	-1	1	p	0.65776
10.4998	0.0	+	2	noun	list	4	9	nomatch	blanc	-1	1	p	0.65776
10.899799999999999	0.2	ainsi	2	noun	list	4	10	nomatch	blanc	-1	1	p	0.65776
11.099699999999999	0.0	+	2	noun	list	4	11	nomatch	blanc	-1	1	p	0.65776
11.499699999999997	0.0	+	2	noun	list	4	12	nomatch	blanc	-1	1	p	0.65776
13.499499999999998	0.0	BLANC	2	noun	list	4	13	nomatch	blanc	-1	1	p	0.65776
14.216099999999997	0.0	+	2	noun	list	4	14	nomatch	blanc	-1	1	p	0.65776
14.157300000000006	0.0	[response]	2	noun	list	4	15	nomatch	blanc	-1	1	p	0.65776
15.899299999999997	0.0	+	3	verb	list	3	1	match	chasser	4	1	y	0.80134
16.449299999999994	0.2	gcpwm	3	verb	list	3	2	match	chasser	4	1	y	0.80134
16.649299999999997	0.0	+	3	verb	list	3	3	match	chasser	4	1	y	0.80134
17.0492	0.2	pnsd	3	verb	list	3	4	match	chasser	4	1	y	0.80134
17.249200000000002	0.0	+	3	verb	list	3	5	match	chasser	4	1	y	0.80134
17.649199999999993	0.2	leur	3	verb	list	3	6	match	chasser	4	1	y	0.80134
17.849099999999993	0.0	+	3	verb	list	3	7	match	chasser	4	1	y	0.80134
18.2491	0.2	chasser	3	verb	list	3	8	match	chasser	4	1	y	0.80134
18.4491	0.0	+	3	verb	list	3	9	match	chasser	4	1	y	0.80134
18.849099999999993	0.2	rouge	3	verb	list	3	10	match	chasser	4	1	y	0.80134
19.048999999999992	0.0	+	3	verb	list	3	11	match	chasser	4	1	y	0.80134
19.448999999999998	0.0	+	3	verb	list	3	12	match	chasser	4	1	y	0.80134
21.4503	0.0	CHASSER	3	verb	list	3	13	match	chasser	4	1	y	0.80134
22.315399999999997	0.0	+	3	verb	list	3	14	match	chasser	4	1	y	0.80134
22.2517	0.0	[response]	3	verb	list	3	15	match	chasser	4	1	y	0.80134
23.848600000000005	0.0	+	4	noun	list	1	1	nomatch	voilier	-1	1	p	0.8669500000000001
24.398600000000002	0.2	mxj	4	noun	list	1	2	nomatch	voilier	-1	1	p	0.8669500000000001
24.598600000000005	0.0	+	4	noun	list	1	3	nomatch	voilier	-1	1	p	0.8669500000000001
24.998499999999993	0.2	gjfq	4	noun	list	1	4	nomatch	voilier	-1	1	p	0.8669500000000001
25.198499999999996	0.0	+	4	noun	list	1	5	nomatch	voilier	-1	1	p	0.8669500000000001
25.5985	0.2	tvw	4	noun	list	1	6	nomatch	voilier	-1	1	p	0.8669500000000001
25.798500000000004	0.0	+	4	noun	list	1	7	nomatch	voilier	-1	1	p	0.8669500000000001
26.198400000000007	0.2	dcsl	4	noun	list	1	8	nomatch	voilier	-1	1	p	0.8669500000000001
26.398399999999995	0.0	+	4	noun	list	1	9	nomatch	voilier	-1	1	p	0.8669500000000001
26.7984	0.2	sablier	4	noun	list	1	10	nomatch	voilier	-1	1	p	0.8669500000000001
26.998400000000004	0.0	+	4	noun	list	1	11	nomatch	voilier	-1	1	p	0.8669500000000001
27.398300000000006	0.0	+	4	noun	list	1	12	nomatch	voilier	-1	1	p	0.8669500000000001
29.3981	0.0	VOILIER	4	noun	list	1	13	nomatch	voilier	-1	1	p	0.8669500000000001
30.331400000000002	0.0	+	4	noun	list	1	14	nomatch	voilier	-1	1	p	0.8669500000000001
30.265100000000004	0.0	[response]	4	noun	list	1	15	nomatch	voilier	-1	1	p	0.8669500000000001
39.797200000000004	0.0	+	5	noun	phrase	3	1	match	panier	4	1	y	0.67394
40.3472	0.2	jsqznrd	5	noun	phrase	3	2	match	panier	4	1	y	0.67394
40.547200000000004	0.0	+	5	noun	phrase	3	3	match	panier	4	1	y	0.67394
40.947100000000006	0.2	slvm	5	noun	phrase	3	4	match	panier	4	1	y	0.67394
41.147099999999995	0.0	+	5	noun	phrase	3	5	match	panier	4	1	y	0.67394
41.5471	0.2	leur	5	noun	phrase	3	6	match	panier	4	1	y	0.67394
41.7471	0.0	+	5	noun	phrase	3	7	match	panier	4	1	y	0.67394
42.147000000000006	0.2	panier	5	noun	phrase	3	8	match	panier	4	1	y	0.67394
42.346999999999994	0.0	+	5	noun	phrase	3	9	match	panier	4	1	y	0.67394
42.747	0.2	noir	5	noun	phrase	3	10	match	panier	4	1	y	0.67394
42.947	0.0	+	5	noun	phrase	3	11	match	panier	4	1	y	0.67394
43.346900000000005	0.0	+	5	noun	phrase	3	12	match	panier	4	1	y	0.67394
45.3468	0.0	PANIER	5	noun	phrase	3	13	match	panier	4	1	y	0.67394
46.08	0.0	+	5	noun	phrase	3	14	match	panier	4	1	y	0.67394
46.020700000000005	0.0	[response]	5	noun	phrase	3	15	match	panier	4	1	y	0.67394
47.7466	0.0	+	6	noun	phrase	2	1	nomatch	sur	-1	1	p	0.75828
48.296499999999995	0.2	rlqvxhj	6	noun	phrase	2	2	nomatch	sur	-1	1	p	0.75828
48.4965	0.0	+	6	noun	phrase	2	3	nomatch	sur	-1	1	p	0.75828
48.8965	0.2	dthz	6	noun	phrase	2	4	nomatch	sur	-1	1	p	0.75828
49.0964	0.0	+	6	noun	phrase	2	5	nomatch	sur	-1	1	p	0.75828
49.496399999999994	0.2	fml	6	noun	phrase	2	6	nomatch	sur	-1	1	p	0.75828
49.6964	0.0	+	6	noun	phrase	2	7	nomatch	sur	-1	1	p	0.75828
50.0964	0.2	grenier	6	noun	phrase	2	8	nomatch	sur	-1	1	p	0.75828
50.2963	0.0	+	6	noun	phrase	2	9	nomatch	sur	-1	1	p	0.75828
50.6969	0.2	blanc	6	noun	phrase	2	10	nomatch	sur	-1	1	p	0.75828
50.8963	0.0	+	6	noun	phrase	2	11	nomatch	sur	-1	1	p	0.75828
51.2962	0.0	+	6	noun	phrase	2	12	nomatch	sur	-1	1	p	0.75828
53.296099999999996	0.0	SUR	6	noun	phrase	2	13	nomatch	sur	-1	1	p	0.75828
54.112700000000004	0.0	+	6	noun	phrase	2	14	nomatch	sur	-1	1	p	0.75828
54.0544	0.0	[response]	6	noun	phrase	2	15	nomatch	sur	-1	1	p	0.75828
55.695899999999995	0.0	+	7	verb	phrase	2	1	nomatch	galoper	-1	1	p	0.73081
56.2458	0.2	htqr	7	verb	phrase	2	2	nomatch	galoper	-1	1	p	0.73081
56.445800000000006	0.0	+	7	verb	phrase	2	3	nomatch	galoper	-1	1	p	0.73081
56.8458	0.2	zmbq	7	verb	phrase	2	4	nomatch	galoper	-1	1	p	0.73081
57.0457	0.0	+	7	verb	phrase	2	5	nomatch	galoper	-1	1	p	0.73081
57.4457	0.2	smjp	7	verb	phrase	2	6	nomatch	galoper	-1	1	p	0.73081
57.645700000000005	0.0	+	7	verb	phrase	2	7	nomatch	galoper	-1	1	p	0.73081
58.0457	0.2	jongler	7	verb	phrase	2	8	nomatch	galoper	-1	1	p	0.73081
58.245599999999996	0.0	+	7	verb	phrase	2	9	nomatch	galoper	-1	1	p	0.73081
58.6456	0.2	ainsi	7	verb	phrase	2	10	nomatch	galoper	-1	1	p	0.73081
58.845600000000005	0.0	+	7	verb	phrase	2	11	nomatch	galoper	-1	1	p	0.73081
59.245599999999996	0.0	+	7	verb	phrase	2	12	nomatch	galoper	-1	1	p	0.73081
61.245400000000004	0.0	GALOPER	7	verb	phrase	2	13	nomatch	galoper	-1	1	p	0.73081
62.0453	0.0	+	7	verb	phrase	2	14	nomatch	galoper	-1	1	p	0.73081
61.976200000000006	0.0	[response]	7	verb	phrase	2	15	nomatch	galoper	-1	1	p	0.73081
63.6452	0.0	+	8	noun	phrase	3	1	match	vert	5	1	y	0.85927
64.1951	0.2	hnvd	8	noun	phrase	3	2	match	vert	5	1	y	0.85927
64.3951	0.0	+	8	noun	phrase	3	3	match	vert	5	1	y	0.85927
64.7951	0.2	zpwn	8	noun	phrase	3	4	match	vert	5	1	y	0.85927
64.9951	0.0	+	8	noun	phrase	3	5	match	vert	5	1	y	0.85927
65.395	0.2	leur	8	noun	phrase	3	6	match	vert	5	1	y	0.85927
65.595	0.0	+	8	noun	phrase	3	7	match	vert	5	1	y	0.85927
65.995	0.2	grenier	8	noun	phrase	3	8	match	vert	5	1	y	0.85927
66.195	0.0	+	8	noun	phrase	3	9	match	vert	5	1	y	0.85927
66.5949	0.2	vert	8	noun	phrase	3	10	match	vert	5	1	y	0.85927
66.7949	0.0	+	8	noun	phrase	3	11	match	vert	5	1	y	0.85927
67.1949	0.0	+	8	noun	phrase	3	12	match	vert	5	1	y	0.85927
69.1947	0.0	VERT	8	noun	phrase	3	13	match	vert	5	1	y	0.85927
70.1113	0.0	+	8	noun	phrase	3	14	match	vert	5	1	y	0.85927
70.054	0.0	[response]	8	noun	phrase	3	15	match	vert	5	1	y	0.85927
79.5938	0.0	+	9	noun	phrase	1	1	match	boîtier	5	1	y	0.77256
80.14370000000001	0.2	hxmcvb	9	noun	phrase	1	2	match	boîtier	5	1	y	0.77256
80.3437	0.0	+	9	noun	phrase	1	3	match	boîtier	5	1	y	0.77256
80.7437	0.2	slvm	9	noun	phrase	1	4	match	boîtier	5	1	y	0.77256
80.94369999999999	0.0	+	9	noun	phrase	1	5	match	boîtier	5	1	y	0.77256
81.3436	0.2	tvw	9	noun	phrase	1	6	match	boîtier	5	1	y	0.77256
81.54360000000001	0.0	+	9	noun	phrase	1	7	match	boîtier	5	1	y	0.77256
81.94359999999999	0.2	pwrbhks	9	noun	phrase	1	8	match	boîtier	5	1	y	0.77256
82.1436	0.0	+	9	noun	phrase	1	9	match	boîtier	5	1	y	0.77256
82.54350000000001	0.2	boîtier	9	noun	phrase	1	10	match	boîtier	5	1	y	0.77256
82.7435	0.0	+	9	noun	phrase	1	11	match	boîtier	5	1	y	0.77256
83.1435	0.0	+	9	noun	phrase	1	12	match	boîtier	5	1	y	0.77256
85.1433	0.0	BOÎTIER	9	noun	phrase	1	13	match	boîtier	5	1	y	0.77256
85.9766	0.0	+	9	noun	phrase	1	14	match	boîtier	5	1	y	0.77256
85.91590000000001	0.0	[response]	9	noun	phrase	1	15	match	boîtier	5	1	y	0.77256
87.5431	0.0	+	10	noun	list	1	1	match	ainsi	5	1	y	0.77691
88.0931	0.2	cms	10	noun	list	1	2	match	ainsi	5	1	y	0.77691
88.29299999999999	0.0	+	10	noun	list	1	3	match	ainsi	5	1	y	0.77691
88.693	0.2	dthz	10	noun	list	1	4	match	ainsi	5	1	y	0.77691
88.89299999999999	0.0	+	10	noun	list	1	5	match	ainsi	5	1	y	0.77691
89.29299999999999	0.2	njsf	10	noun	list	1	6	match	ainsi	5	1	y	0.77691
89.4929	0.0	+	10	noun	list	1	7	match	ainsi	5	1	y	0.77691
89.89290000000001	0.2	qdcrhmz	10	noun	list	1	8	match	ainsi	5	1	y	0.77691
90.0929	0.0	+	10	noun	list	1	9	match	ainsi	5	1	y	0.77691
90.4928	0.2	ainsi	10	noun	list	1	10	match	ainsi	5	1	y	0.77691
90.69279999999999	0.0	+	10	noun	list	1	11	match	ainsi	5	1	y	0.77691
91.0928	0.0	+	10	noun	list	1	12	match	ainsi	5	1	y	0.77691
93.09259999999999	0.0	AINSI	10	noun	list	1	13	match	ainsi	5	1	y	0.77691
93.9259	0.0	+	10	noun	list	1	14	match	ainsi	5	1	y	0.77691
93.8695	0.0	[response]	10	noun	list	1	15	match	ainsi	5	1	y	0.77691
95.49239999999999	0.0	+	11	noun	phrase	1	1	match	cendrier	5	1	y	0.52761
96.0424	0.2	lzfdngh	11	noun	phrase	1	2	match	cendrier	5	1	y	0.52761
96.24229999999999	0.0	+	11	noun	phrase	1	3	match	cendrier	5	1	y	0.52761
96.64229999999999	0.2	zpwn	11	noun	phrase	1	4	match	cendrier	5	1	y	0.52761
96.84230000000001	0.0	+	11	noun	phrase	1	5	match	cendrier	5	1	y	0.52761
97.24229999999999	0.2	fml	11	noun	phrase	1	6	match	cendrier	5	1	y	0.52761
97.4422	0.0	+	11	noun	phrase	1	7	match	cendrier	5	1	y	0.52761
97.8422	0.2	pzgfx	11	noun	phrase	1	8	match	cendrier	5	1	y	0.52761
98.0422	0.0	+	11	noun	phrase	1	9	match	cendrier	5	1	y	0.52761
98.4422	0.2	cendrier	11	noun	phrase	1	10	match	cendrier	5	1	y	0.52761
98.64210000000001	0.0	+	11	noun	phrase	1	11	match	cendrier	5	1	y	0.52761
99.04209999999999	0.0	+	11	noun	phrase	1	12	match	cendrier	5	1	y	0.52761
101.04190000000001	0.0	CENDRIER	11	noun	phrase	1	13	match	cendrier	5	1	y	0.52761
101.62519999999999	0.0	+	11	noun	phrase	1	14	match	cendrier	5	1	y	0.52761
101.56949999999999	0.0	[response]	11	noun	phrase	1	15	match	cendrier	5	1	y	0.52761
103.44170000000001	0.0	+	12	noun	list	1	1	nomatch	leur	-1	1	p	0.63608
103.9917	0.2	xvp	12	noun	list	1	2	nomatch	leur	-1	1	p	0.63608
104.19170000000001	0.0	+	12	noun	list	1	3	nomatch	leur	-1	1	p	0.63608
104.59159999999999	0.2	dthz	12	noun	list	1	4	nomatch	leur	-1	1	p	0.63608
104.7916	0.0	+	12	noun	list	1	5	nomatch	leur	-1	1	p	0.63608
105.19160000000001	0.2	njsf	12	noun	list	1	6	nomatch	leur	-1	1	p	0.63608
105.3916	0.0	+	12	noun	list	1	7	nomatch	leur	-1	1	p	0.63608
105.7915	0.2	tlrj	12	noun	list	1	8	nomatch	leur	-1	1	p	0.63608
105.99149999999999	0.0	+	12	noun	list	1	9	nomatch	leur	-1	1	p	0.63608
106.3915	0.2	tablier	12	noun	list	1	10	nomatch	leur	-1	1	p	0.63608
106.59140000000001	0.0	+	12	noun	list	1	11	nomatch	leur	-1	1	p	0.63608
106.99140000000001	0.0	+	12	noun	list	1	12	nomatch	leur	-1	1	p	0.63608
108.9912	0.0	LEUR	12	noun	list	1	13	nomatch	leur	-1	1	p	0.63608
109.6912	0.0	+	12	noun	list	1	14	nomatch	leur	-1	1	p	0.63608
109.6273	0.0	[response]	12	noun	list	1	15	nomatch	leur	-1	1	p	0.63608
111.391	0.0	+	13	verb	list	2	1	match	petit	4	1	y	0.81664
111.94099999999999	0.2	wgptr	13	verb	list	2	2	match	petit	4	1	y	0.81664
112.141	0.0	+	13	verb	list	2	3	match	petit	4	1	y	0.81664
112.54090000000001	0.2	klgc	13	verb	list	2	4	match	petit	4	1	y	0.81664
112.7409	0.0	+	13	verb	list	2	5	match	petit	4	1	y	0.81664
113.1409	0.2	smjp	13	verb	list	2	6	match	petit	4	1	y	0.81664
113.34089999999999	0.0	+	13	verb	list	2	7	match	petit	4	1	y	0.81664
113.7408	0.2	petit	13	verb	list	2	8	match	petit	4	1	y	0.81664
113.94080000000001	0.0	+	13	verb	list	2	9	match	petit	4	1	y	0.81664
114.34079999999999	0.2	galoper	13	verb	list	2	10	match	petit	4	1	y	0.81664
114.5408	0.0	+	13	verb	list	2	11	match	petit	4	1	y	0.81664
114.9407	0.0	+	13	verb	list	2	12	match	petit	4	1	y	0.81664
116.9406	0.0	PETIT	13	verb	list	2	13	match	petit	4	1	y	0.81664
117.82379999999999	0.0	+	13	verb	list	2	14	match	petit	4	1	y	0.81664
117.7572	0.0	[response]	13	verb	list	2	15	match	petit	4	1	y	0.81664
119.3403	0.0	+	14	noun	phrase	4	1	match	son	3	1	y	1.0394
119.89030000000001	0.2	gmqpsd	14	noun	phrase	4	2	match	son	3	1	y	1.0394
120.0903	0.0	+	14	noun	phrase	4	3	match	son	3	1	y	1.0394
120.4902	0.2	sans	14	noun	phrase	4	4	match	son	3	1	y	1.0394
120.69019999999999	0.0	+	14	noun	phrase	4	5	match	son	3	1	y	1.0394
121.0902	0.2	son	14	noun	phrase	4	6	match	son	3	1	y	1.0394
121.29020000000001	0.0	+	14	noun	phrase	4	7	match	son	3	1	y	1.0394
121.69009999999999	0.2	vieux	14	noun	phrase	4	8	match	son	3	1	y	1.0394
121.8901	0.0	+	14	noun	phrase	4	9	match	son	3	1	y	1.0394
122.29010000000001	0.2	panier	14	noun	phrase	4	10	match	son	3	1	y	1.0394
122.4901	0.0	+	14	noun	phrase	4	11	match	son	3	1	y	1.0394
122.89	0.0	+	14	noun	phrase	4	12	match	son	3	1	y	1.0394
124.8899	0.0	SON	14	noun	phrase	4	13	match	son	3	1	y	1.0394
125.98979999999999	0.0	+	14	noun	phrase	4	14	match	son	3	1	y	1.0394
125.9293	0.0	[response]	14	noun	phrase	4	15	match	son	3	1	y	1.0394
127.2896	0.0	+	15	noun	list	4	1	match	luc	2	0	p	0.93201
127.8396	0.2	rflkq	15	noun	list	4	2	match	luc	2	0	p	0.93201
128.0396	0.0	+	15	noun	list	4	3	match	luc	2	0	p	0.93201
128.43959999999998	0.2	luc	15	noun	list	4	4	match	luc	2	0	p	0.93201
128.6395	0.0	+	15	noun	list	4	5	match	luc	2	0	p	0.93201
129.03949999999998	0.2	mon	15	noun	list	4	6	match	luc	2	0	p	0.93201
129.23950000000002	0.0	+	15	noun	list	4	7	match	luc	2	0	p	0.93201
129.63940000000002	0.2	beaucoup	15	noun	list	4	8	match	luc	2	0	p	0.93201
129.8394	0.0	+	15	noun	list	4	9	match	luc	2	0	p	0.93201
130.2394	0.2	tablier	15	noun	list	4	10	match	luc	2	0	p	0.93201
130.43939999999998	0.0	+	15	noun	list	4	11	match	luc	2	0	p	0.93201
130.83929999999998	0.0	+	15	noun	list	4	12	match	luc	2	0	p	0.93201
132.8392	0.0	LUC	15	noun	list	4	13	match	luc	2	0	p	0.93201
133.83909999999997	0.0	+	15	noun	list	4	14	match	luc	2	0	p	0.93201
133.77120000000002	0.0	[response]	15	noun	list	4	15	match	luc	2	0	p	0.93201
143.23829999999998	0.0	+	16	verb	phrase	1	1	match	chasser	5	1	y	0.62484
143.78820000000002	0.2	lpmh	16	verb	phrase	1	2	match	chasser	5	1	y	0.62484
143.9882	0.0	+	16	verb	phrase	1	3	match	chasser	5	1	y	0.62484
144.38819999999998	0.2	gjfq	16	verb	phrase	1	4	match	chasser	5	1	y	0.62484
144.58819999999997	0.0	+	16	verb	phrase	1	5	match	chasser	5	1	y	0.62484
144.98809999999997	0.2	vp	16	verb	phrase	1	6	match	chasser	5	1	y	0.62484
145.18810000000002	0.0	+	16	verb	phrase	1	7	match	chasser	5	1	y	0.62484
145.5881	0.2	khrp	16	verb	phrase	1	8	match	chasser	5	1	y	0.62484
145.788	0.0	+	16	verb	phrase	1	9	match	chasser	5	1	y	0.62484
146.188	0.2	chasser	16	verb	phrase	1	10	match	chasser	5	1	y	0.62484
146.38799999999998	0.0	+	16	verb	phrase	1	11	match	chasser	5	1	y	0.62484
146.788	0.0	+	16	verb	phrase	1	12	match	chasser	5	1	y	0.62484
148.7878	0.0	CHASSER	16	verb	phrase	1	13	match	chasser	5	1	y	0.62484
149.47109999999998	0.0	+	16	verb	phrase	1	14	match	chasser	5	1	y	0.62484
149.41260000000005	0.0	[response]	16	verb	phrase	1	15	match	chasser	5	1	y	0.62484
159.18689999999998	0.0	+	17	noun	phrase	1	1	match	vieux	5	1	y	0.67008
159.73680000000002	0.2	znkbwf	17	noun	phrase	1	2	match	vieux	5	1	y	0.67008
159.9368	0.0	+	17	noun	phrase	1	3	match	vieux	5	1	y	0.67008
160.33679999999998	0.2	dthz	17	noun	phrase	1	4	match	vieux	5	1	y	0.67008
160.53679999999997	0.0	+	17	noun	phrase	1	5	match	vieux	5	1	y	0.67008
160.93669999999997	0.2	tvw	17	noun	phrase	1	6	match	vieux	5	1	y	0.67008
161.13670000000002	0.0	+	17	noun	phrase	1	7	match	vieux	5	1	y	0.67008
161.5367	0.2	vmfplhs	17	noun	phrase	1	8	match	vieux	5	1	y	0.67008
161.73669999999998	0.0	+	17	noun	phrase	1	9	match	vieux	5	1	y	0.67008
162.1366	0.2	vieux	17	noun	phrase	1	10	match	vieux	5	1	y	0.67008
162.33659999999998	0.0	+	17	noun	phrase	1	11	match	vieux	5	1	y	0.67008
162.7366	0.0	+	17	noun	phrase	1	12	match	vieux	5	1	y	0.67008
164.7364	0.0	VIEUX	17	noun	phrase	1	13	match	vieux	5	1	y	0.67008
165.4697	0.0	+	17	noun	phrase	1	14	match	vieux	5	1	y	0.67008
165.4065	0.0	[response]	17	noun	phrase	1	15	match	vieux	5	1	y	0.67008
167.13619999999997	0.0	+	18	verb	list	2	1	match	grand	4	1	y	0.60046
167.6861	0.2	vpxlzq	18	verb	list	2	2	match	grand	4	1	y	0.60046
167.8861	0.0	+	18	verb	list	2	3	match	grand	4	1	y	0.60046
168.28609999999998	0.2	fnlw	18	verb	list	2	4	match	grand	4	1	y	0.60046
168.48610000000002	0.0	+	18	verb	list	2	5	match	grand	4	1	y	0.60046
168.88600000000002	0.2	smjp	18	verb	list	2	6	match	grand	4	1	y	0.60046
169.086	0.0	+	18	verb	list	2	7	match	grand	4	1	y	0.60046
169.486	0.2	grand	18	verb	list	2	8	match	grand	4	1	y	0.60046
169.68599999999998	0.0	+	18	verb	list	2	9	match	grand	4	1	y	0.60046
170.08589999999998	0.2	jongler	18	verb	list	2	10	match	grand	4	1	y	0.60046
170.28590000000003	0.0	+	18	verb	list	2	11	match	grand	4	1	y	0.60046
170.6859	0.0	+	18	verb	list	2	12	match	grand	4	1	y	0.60046
172.6857	0.0	GRAND	18	verb	list	2	13	match	grand	4	1	y	0.60046
173.3523	0.0	+	18	verb	list	2	14	match	grand	4	1	y	0.60046
173.2862	0.0	[response]	18	verb	list	2	15	match	grand	4	1	y	0.60046
183.08479999999997	0.0	+	19	noun	list	3	1	nomatch	jean	-1	1	p	0.8854
183.63479999999998	0.2	rgjn	19	noun	list	3	2	nomatch	jean	-1	1	p	0.8854
183.83479999999997	0.0	+	19	noun	list	3	3	nomatch	jean	-1	1	p	0.8854
184.2514	0.2	dthz	19	noun	list	3	4	nomatch	jean	-1	1	p	0.8854
184.45139999999998	0.0	+	19	noun	list	3	5	nomatch	jean	-1	1	p	0.8854
184.85129999999998	0.2	va	19	noun	list	3	6	nomatch	jean	-1	1	p	0.8854
185.05130000000003	0.0	+	19	noun	list	3	7	nomatch	jean	-1	1	p	0.8854
185.4513	0.2	grenier	19	noun	list	3	8	nomatch	jean	-1	1	p	0.8854
185.6513	0.0	+	19	noun	list	3	9	nomatch	jean	-1	1	p	0.8854
186.0512	0.2	ainsi	19	noun	list	3	10	nomatch	jean	-1	1	p	0.8854
186.25119999999998	0.0	+	19	noun	list	3	11	nomatch	jean	-1	1	p	0.8854
186.65120000000002	0.0	+	19	noun	list	3	12	nomatch	jean	-1	1	p	0.8854
188.651	0.0	JEAN	19	noun	list	3	13	nomatch	jean	-1	1	p	0.8854
189.60090000000002	0.0	+	19	noun	list	3	14	nomatch	jean	-1	1	p	0.8854
189.53640000000001	0.0	[response]	19	noun	list	3	15	nomatch	jean	-1	1	p	0.8854
191.05079999999998	0.0	+	20	verb	list	1	1	match	patiner	5	1	y	0.5435
191.60070000000002	0.2	wtqdbg	20	verb	list	1	2	match	patiner	5	1	y	0.5435
191.8007	0.0	+	20	verb	list	1	3	match	patiner	5	1	y	0.5435
192.20069999999998	0.2	gjfq	20	verb	list	1	4	match	patiner	5	1	y	0.5435
192.40069999999997	0.0	+	20	verb	list	1	5	match	patiner	5	1	y	0.5435
192.80059999999997	0.2	fml	20	verb	list	1	6	match	patiner	5	1	y	0.5435
193.00060000000002	0.0	+	20	verb	list	1	7	match	patiner	5	1	y	0.5435
193.4006	0.2	mths	20	verb	list	1	8	match	patiner	5	1	y	0.5435
193.6006	0.0	+	20	verb	list	1	9	match	patiner	5	1	y	0.5435
194.0005	0.2	patiner	20	verb	list	1	10	match	patiner	5	1	y	0.5435
194.20049999999998	0.0	+	20	verb	list	1	11	match	patiner	5	1	y	0.5435
194.6005	0.0	+	20	verb	list	1	12	match	patiner	5	1	y	0.5435
196.6003	0.0	PATINER	20	verb	list	1	13	match	patiner	5	1	y	0.5435
197.2002	0.0	+	20	verb	list	1	14	match	patiner	5	1	y	0.5435
197.1438	0.0	[response]	20	verb	list	1	15	match	patiner	5	1	y	0.5435
199.00009999999997	0.0	+	21	noun	phrase	1	1	nomatch	doit	-1	1	p	0.6922100000000001
199.55	0.2	lhkf	21	noun	phrase	1	2	nomatch	doit	-1	1	p	0.6922100000000001
199.75	0.0	+	21	noun	phrase	1	3	nomatch	doit	-1	1	p	0.6922100000000001
200.14999999999998	0.2	zpwn	21	noun	phrase	1	4	nomatch	doit	-1	1	p	0.6922100000000001
200.35000000000002	0.0	+	21	noun	phrase	1	5	nomatch	doit	-1	1	p	0.6922100000000001
200.74990000000003	0.2	tvw	21	noun	phrase	1	6	nomatch	doit	-1	1	p	0.6922100000000001
200.9499	0.0	+	21	noun	phrase	1	7	nomatch	doit	-1	1	p	0.6922100000000001
201.3499	0.2	pskzcdh	21	noun	phrase	1	8	nomatch	doit	-1	1	p	0.6922100000000001
201.54989999999998	0.0	+	21	noun	phrase	1	9	nomatch	doit	-1	1	p	0.6922100000000001
201.94979999999998	0.2	rouge	21	noun	phrase	1	10	nomatch	doit	-1	1	p	0.6922100000000001
202.14980000000003	0.0	+	21	noun	phrase	1	11	nomatch	doit	-1	1	p	0.6922100000000001
202.5498	0.0	+	21	noun	phrase	1	12	nomatch	doit	-1	1	p	0.6922100000000001
204.5496	0.0	DOIT	21	noun	phrase	1	13	nomatch	doit	-1	1	p	0.6922100000000001
205.29949999999997	0.0	+	21	noun	phrase	1	14	nomatch	doit	-1	1	p	0.6922100000000001
205.2418	0.0	[response]	21	noun	phrase	1	15	nomatch	doit	-1	1	p	0.6922100000000001
214.94869999999997	0.0	+	22	noun	list	4	1	nomatch	sablier	-1	1	p	0.88736
215.49869999999999	0.2	jgqc	22	noun	list	4	2	nomatch	sablier	-1	1	p	0.88736
215.6986	0.0	+	22	noun	list	4	3	nomatch	sablier	-1	1	p	0.88736
216.09859999999998	0.2	adam	22	noun	list	4	4	nomatch	sablier	-1	1	p	0.88736
216.29859999999996	0.0	+	22	noun	list	4	5	nomatch	sablier	-1	1	p	0.88736
216.6986	0.2	son	22	noun	list	4	6	nomatch	sablier	-1	1	p	0.88736
216.8985	0.0	+	22	noun	list	4	7	nomatch	sablier	-1	1	p	0.88736
217.2985	0.2	beaucoup	22	noun	list	4	8	nomatch	sablier	-1	1	p	0.88736
217.49849999999998	0.0	+	22	noun	list	4	9	nomatch	sablier	-1	1	p	0.88736
217.8985	0.2	voilier	22	noun	list	4	10	nomatch	sablier	-1	1	p	0.88736
218.09839999999997	0.0	+	22	noun	list	4	11	nomatch	sablier	-1	1	p	0.88736
218.4984	0.0	+	22	noun	list	4	12	nomatch	sablier	-1	1	p	0.88736
220.4982	0.0	SABLIER	22	noun	list	4	13	nomatch	sablier	-1	1	p	0.88736
221.4481	0.0	+	22	noun	list	4	14	nomatch	sablier	-1	1	p	0.88736
221.3856	0.0	[response]	22	noun	list	4	15	nomatch	sablier	-1	1	p	0.88736
222.89799999999997	0.0	+	23	noun	list	1	1	match	grenier	5	1	y	0.77154
223.44799999999998	0.2	dkxcjmp	23	noun	list	1	2	match	grenier	5	1	y	0.77154
223.64799999999997	0.0	+	23	noun	list	1	3	match	grenier	5	1	y	0.77154
224.04789999999997	0.2	klgc	23	noun	list	1	4	match	grenier	5	1	y	0.77154
224.24789999999996	0.0	+	23	noun	list	1	5	match	grenier	5	1	y	0.77154
224.6479	0.2	smjp	23	noun	list	1	6	match	grenier	5	1	y	0.77154
224.8478	0.0	+	23	noun	list	1	7	match	grenier	5	1	y	0.77154
225.24779999999998	0.2	qkcx	23	noun	list	1	8	match	grenier	5	1	y	0.77154
225.45069999999998	0.0	+	23	noun	list	1	9	match	grenier	5	1	y	0.77154
225.8478	0.2	grenier	23	noun	list	1	10	match	grenier	5	1	y	0.77154
226.04769999999996	0.0	+	23	noun	list	1	11	match	grenier	5	1	y	0.77154
226.4477	0.0	+	23	noun	list	1	12	match	grenier	5	1	y	0.77154
228.4475	0.0	GRENIER	23	noun	list	1	13	match	grenier	5	1	y	0.77154
229.2808	0.0	+	23	noun	list	1	14	match	grenier	5	1	y	0.77154
229.21909999999997	0.0	[response]	23	noun	list	1	15	match	grenier	5	1	y	0.77154
230.84729999999996	0.0	+	24	noun	list	3	1	match	peut	3	1	y	1.0603
231.39729999999997	0.2	dkrx	24	noun	list	3	2	match	peut	3	1	y	1.0603
231.59729999999996	0.0	+	24	noun	list	3	3	match	peut	3	1	y	1.0603
231.99719999999996	0.2	ckl	24	noun	list	3	4	match	peut	3	1	y	1.0603
232.1972	0.0	+	24	noun	list	3	5	match	peut	3	1	y	1.0603
232.5972	0.2	peut	24	noun	list	3	6	match	peut	3	1	y	1.0603
232.79719999999998	0.0	+	24	noun	list	3	7	match	peut	3	1	y	1.0603
233.19709999999998	0.2	voilier	24	noun	list	3	8	match	peut	3	1	y	1.0603
233.39709999999997	0.0	+	24	noun	list	3	9	match	peut	3	1	y	1.0603
233.7971	0.2	tôt	24	noun	list	3	10	match	peut	3	1	y	1.0603
233.9971	0.0	+	24	noun	list	3	11	match	peut	3	1	y	1.0603
234.397	0.0	+	24	noun	list	3	12	match	peut	3	1	y	1.0603
236.39679999999998	0.0	PEUT	24	noun	list	3	13	match	peut	3	1	y	1.0603
237.5134	0.0	+	24	noun	list	3	14	match	peut	3	1	y	1.0603
237.45709999999997	0.0	[response]	24	noun	list	3	15	match	peut	3	1	y	1.0603
238.7966	0.0	+	25	noun	phrase	3	1	match	sablier	4	1	y	0.70483
239.34659999999997	0.2	bwlgv	25	noun	phrase	3	2	match	sablier	4	1	y	0.70483
239.5466	0.0	+	25	noun	phrase	3	3	match	sablier	4	1	y	0.70483
239.94649999999996	0.2	jpqd	25	noun	phrase	3	4	match	sablier	4	1	y	0.70483
240.1465	0.0	+	25	noun	phrase	3	5	match	sablier	4	1	y	0.70483
240.54649999999998	0.2	son	25	noun	phrase	3	6	match	sablier	4	1	y	0.70483
240.74649999999997	0.0	+	25	noun	phrase	3	7	match	sablier	4	1	y	0.70483
241.14639999999997	0.2	sablier	25	noun	phrase	3	8	match	sablier	4	1	y	0.70483
241.34639999999996	0.0	+	25	noun	phrase	3	9	match	sablier	4	1	y	0.70483
241.7464	0.2	bleu	25	noun	phrase	3	10	match	sablier	4	1	y	0.70483
241.94639999999998	0.0	+	25	noun	phrase	3	11	match	sablier	4	1	y	0.70483
242.34629999999999	0.0	+	25	noun	phrase	3	12	match	sablier	4	1	y	0.70483
244.3462	0.0	SABLIER	25	noun	phrase	3	13	match	sablier	4	1	y	0.70483
245.11269999999996	0.0	+	25	noun	phrase	3	14	match	sablier	4	1	y	0.70483
245.051	0.0	[response]	25	noun	phrase	3	15	match	sablier	4	1	y	0.70483
254.7452	0.0	+	26	noun	list	1	1	nomatch	ainsi	-1	1	p	0.55613
255.29519999999997	0.2	cfnvxsg	26	noun	list	1	2	nomatch	ainsi	-1	1	p	0.55613
255.4952	0.0	+	26	noun	list	1	3	nomatch	ainsi	-1	1	p	0.55613
255.8951	0.2	hkr	26	noun	list	1	4	nomatch	ainsi	-1	1	p	0.55613
256.0951	0.0	+	26	noun	list	1	5	nomatch	ainsi	-1	1	p	0.55613
256.4951	0.2	tvw	26	noun	list	1	6	nomatch	ainsi	-1	1	p	0.55613
256.69509999999997	0.0	+	26	noun	list	1	7	nomatch	ainsi	-1	1	p	0.55613
257.09499999999997	0.2	zsdfgc	26	noun	list	1	8	nomatch	ainsi	-1	1	p	0.55613
257.29499999999996	0.0	+	26	noun	list	1	9	nomatch	ainsi	-1	1	p	0.55613
257.695	0.2	plus	26	noun	list	1	10	nomatch	ainsi	-1	1	p	0.55613
257.895	0.0	+	26	noun	list	1	11	nomatch	ainsi	-1	1	p	0.55613
258.2949	0.0	+	26	noun	list	1	12	nomatch	ainsi	-1	1	p	0.55613
260.2948	0.0	AINSI	26	noun	list	1	13	nomatch	ainsi	-1	1	p	0.55613
260.91139999999996	0.0	+	26	noun	list	1	14	nomatch	ainsi	-1	1	p	0.55613
260.85089999999997	0.0	[response]	26	noun	list	1	15	nomatch	ainsi	-1	1	p	0.55613
270.6939	0.0	+	27	verb	phrase	2	1	nomatch	rouler	-1	1	p	0.6854500000000001
271.24379999999996	0.2	fhmtxg	27	verb	phrase	2	2	nomatch	rouler	-1	1	p	0.6854500000000001
271.4438	0.0	+	27	verb	phrase	2	3	nomatch	rouler	-1	1	p	0.6854500000000001
271.8438	0.2	xhvf	27	verb	phrase	2	4	nomatch	rouler	-1	1	p	0.6854500000000001
272.0437	0.0	+	27	verb	phrase	2	5	nomatch	rouler	-1	1	p	0.6854500000000001
272.4437	0.2	smjp	27	verb	phrase	2	6	nomatch	rouler	-1	1	p	0.6854500000000001
272.64369999999997	0.0	+	27	verb	phrase	2	7	nomatch	rouler	-1	1	p	0.6854500000000001
273.0437	0.2	beaucoup	27	verb	phrase	2	8	nomatch	rouler	-1	1	p	0.6854500000000001
273.24359999999996	0.0	+	27	verb	phrase	2	9	nomatch	rouler	-1	1	p	0.6854500000000001
273.6436	0.2	galoper	27	verb	phrase	2	10	nomatch	rouler	-1	1	p	0.6854500000000001
273.8436	0.0	+	27	verb	phrase	2	11	nomatch	rouler	-1	1	p	0.6854500000000001
274.24359999999996	0.0	+	27	verb	phrase	2	12	nomatch	rouler	-1	1	p	0.6854500000000001
276.2434	0.0	ROULER	27	verb	phrase	2	13	nomatch	rouler	-1	1	p	0.6854500000000001
276.9933	0.0	+	27	verb	phrase	2	14	nomatch	rouler	-1	1	p	0.6854500000000001
276.92879999999997	0.0	[response]	27	verb	phrase	2	15	nomatch	rouler	-1	1	p	0.6854500000000001
294.6418	0.0	+	28	noun	phrase	1	1	nomatch	blanc	-1	1	p	0.65528
295.19169999999997	0.2	hszrb	28	noun	phrase	1	2	nomatch	blanc	-1	1	p	0.65528
295.39169999999996	0.0	+	28	noun	phrase	1	3	nomatch	blanc	-1	1	p	0.65528
295.7917	0.2	fnlw	28	noun	phrase	1	4	nomatch	blanc	-1	1	p	0.65528
295.9917	0.0	+	28	noun	phrase	1	5	nomatch	blanc	-1	1	p	0.65528
296.3916	0.2	tvw	28	noun	phrase	1	6	nomatch	blanc	-1	1	p	0.65528
296.59159999999997	0.0	+	28	noun	phrase	1	7	nomatch	blanc	-1	1	p	0.65528
296.9916	0.2	xpnkzqbr	28	noun	phrase	1	8	nomatch	blanc	-1	1	p	0.65528
297.1916	0.0	+	28	noun	phrase	1	9	nomatch	blanc	-1	1	p	0.65528
297.5915	0.2	vert	28	noun	phrase	1	10	nomatch	blanc	-1	1	p	0.65528
297.7915	0.0	+	28	noun	phrase	1	11	nomatch	blanc	-1	1	p	0.65528
298.19149999999996	0.0	+	28	noun	phrase	1	12	nomatch	blanc	-1	1	p	0.65528
300.1913	0.0	BLANC	28	noun	phrase	1	13	nomatch	blanc	-1	1	p	0.65528
300.9079	0.0	+	28	noun	phrase	1	14	nomatch	blanc	-1	1	p	0.65528
300.84659999999997	0.0	[response]	28	noun	phrase	1	15	nomatch	blanc	-1	1	p	0.65528
302.5911	0.0	+	29	verb	phrase	2	1	match	vite	5	1	y	0.87216
303.14099999999996	0.2	fgr	29	verb	phrase	2	2	match	vite	5	1	y	0.87216
303.341	0.0	+	29	verb	phrase	2	3	match	vite	5	1	y	0.87216
303.741	0.2	gjfq	29	verb	phrase	2	4	match	vite	5	1	y	0.87216
303.941	0.0	+	29	verb	phrase	2	5	match	vite	5	1	y	0.87216
304.3409	0.2	njsf	29	verb	phrase	2	6	match	vite	5	1	y	0.87216
304.54089999999997	0.0	+	29	verb	phrase	2	7	match	vite	5	1	y	0.87216
304.9409	0.2	rouler	29	verb	phrase	2	8	match	vite	5	1	y	0.87216
305.1409	0.0	+	29	verb	phrase	2	9	match	vite	5	1	y	0.87216
305.5408	0.2	vite	29	verb	phrase	2	10	match	vite	5	1	y	0.87216
305.7408	0.0	+	29	verb	phrase	2	11	match	vite	5	1	y	0.87216
306.1408	0.0	+	29	verb	phrase	2	12	match	vite	5	1	y	0.87216
308.1406	0.0	VITE	29	verb	phrase	2	13	match	vite	5	1	y	0.87216
309.0739	0.0	+	29	verb	phrase	2	14	match	vite	5	1	y	0.87216
309.01279999999997	0.0	[response]	29	verb	phrase	2	15	match	vite	5	1	y	0.87216
310.5404	0.0	+	30	noun	list	2	1	nomatch	va	-1	1	p	0.85959
311.0904	0.2	vcftgph	30	noun	list	2	2	nomatch	va	-1	1	p	0.85959
311.2903	0.0	+	30	noun	list	2	3	nomatch	va	-1	1	p	0.85959
311.6903	0.2	hkr	30	noun	list	2	4	nomatch	va	-1	1	p	0.85959
311.89029999999997	0.0	+	30	noun	list	2	5	nomatch	va	-1	1	p	0.85959
312.2903	0.2	blzh	30	noun	list	2	6	nomatch	va	-1	1	p	0.85959
312.49019999999996	0.0	+	30	noun	list	2	7	nomatch	va	-1	1	p	0.85959
312.8902	0.2	trop	30	noun	list	2	8	nomatch	va	-1	1	p	0.85959
313.0902	0.0	+	30	noun	list	2	9	nomatch	va	-1	1	p	0.85959
313.4901	0.2	sablier	30	noun	list	2	10	nomatch	va	-1	1	p	0.85959
313.6901	0.0	+	30	noun	list	2	11	nomatch	va	-1	1	p	0.85959
314.0901	0.0	+	30	noun	list	2	12	nomatch	va	-1	1	p	0.85959
316.0899	0.0	VA	30	noun	list	2	13	nomatch	va	-1	1	p	0.85959
317.00649999999996	0.0	+	30	noun	list	2	14	nomatch	va	-1	1	p	0.85959
316.9495	0.0	[response]	30	noun	list	2	15	nomatch	va	-1	1	p	0.85959
318.48969999999997	0.0	+	31	verb	phrase	1	1	match	ainsi	5	1	y	0.87429
319.0397	0.2	snrz	31	verb	phrase	1	2	match	ainsi	5	1	y	0.87429
319.2396	0.0	+	31	verb	phrase	1	3	match	ainsi	5	1	y	0.87429
319.6396	0.2	zmbq	31	verb	phrase	1	4	match	ainsi	5	1	y	0.87429
319.83959999999996	0.0	+	31	verb	phrase	1	5	match	ainsi	5	1	y	0.87429
320.2396	0.2	vp	31	verb	phrase	1	6	match	ainsi	5	1	y	0.87429
320.4395	0.0	+	31	verb	phrase	1	7	match	ainsi	5	1	y	0.87429
320.8395	0.2	lhqmnzv	31	verb	phrase	1	8	match	ainsi	5	1	y	0.87429
321.0395	0.0	+	31	verb	phrase	1	9	match	ainsi	5	1	y	0.87429
321.4395	0.2	ainsi	31	verb	phrase	1	10	match	ainsi	5	1	y	0.87429
321.63939999999997	0.0	+	31	verb	phrase	1	11	match	ainsi	5	1	y	0.87429
322.0394	0.0	+	31	verb	phrase	1	12	match	ainsi	5	1	y	0.87429
324.0392	0.0	AINSI	31	verb	phrase	1	13	match	ainsi	5	1	y	0.87429
324.97249999999997	0.0	+	31	verb	phrase	1	14	match	ainsi	5	1	y	0.87429
324.9135	0.0	[response]	31	verb	phrase	1	15	match	ainsi	5	1	y	0.87429
334.43829999999997	0.0	+	32	noun	list	2	1	nomatch	cendrier	-1	1	p	0.77522
334.9883	0.2	khcwqg	32	noun	list	2	2	nomatch	cendrier	-1	1	p	0.77522
335.18829999999997	0.0	+	32	noun	list	2	3	nomatch	cendrier	-1	1	p	0.77522
335.5882	0.2	brtg	32	noun	list	2	4	nomatch	cendrier	-1	1	p	0.77522
335.78819999999996	0.0	+	32	noun	list	2	5	nomatch	cendrier	-1	1	p	0.77522
336.1882	0.2	tvw	32	noun	list	2	6	nomatch	cendrier	-1	1	p	0.77522
336.3882	0.0	+	32	noun	list	2	7	nomatch	cendrier	-1	1	p	0.77522
336.7881	0.2	plus	32	noun	list	2	8	nomatch	cendrier	-1	1	p	0.77522
336.9881	0.0	+	32	noun	list	2	9	nomatch	cendrier	-1	1	p	0.77522
337.3881	0.2	tablier	32	noun	list	2	10	nomatch	cendrier	-1	1	p	0.77522
337.5881	0.0	+	32	noun	list	2	11	nomatch	cendrier	-1	1	p	0.77522
337.988	0.0	+	32	noun	list	2	12	nomatch	cendrier	-1	1	p	0.77522
339.9878	0.0	CENDRIER	32	noun	list	2	13	nomatch	cendrier	-1	1	p	0.77522
340.8211	0.0	+	32	noun	list	2	14	nomatch	cendrier	-1	1	p	0.77522
340.7631	0.0	[response]	32	noun	list	2	15	nomatch	cendrier	-1	1	p	0.77522
342.38759999999996	0.0	+	33	noun	list	3	1	match	boîtier	4	1	y	0.97597
342.9376	0.2	cvsfbqk	33	noun	list	3	2	match	boîtier	4	1	y	0.97597
343.13759999999996	0.0	+	33	noun	list	3	3	match	boîtier	4	1	y	0.97597
343.53749999999997	0.2	zpwn	33	noun	list	3	4	match	boîtier	4	1	y	0.97597
343.7375	0.0	+	33	noun	list	3	5	match	boîtier	4	1	y	0.97597
344.1375	0.2	doit	33	noun	list	3	6	match	boîtier	4	1	y	0.97597
344.3375	0.0	+	33	noun	list	3	7	match	boîtier	4	1	y	0.97597
344.7374	0.2	boîtier	33	noun	list	3	8	match	boîtier	4	1	y	0.97597
344.93739999999997	0.0	+	33	noun	list	3	9	match	boîtier	4	1	y	0.97597
345.3374	0.2	tard	33	noun	list	3	10	match	boîtier	4	1	y	0.97597
345.5374	0.0	+	33	noun	list	3	11	match	boîtier	4	1	y	0.97597
345.9373	0.0	+	33	noun	list	3	12	match	boîtier	4	1	y	0.97597
347.93719999999996	0.0	BOÎTIER	33	noun	list	3	13	match	boîtier	4	1	y	0.97597
348.9704	0.0	+	33	noun	list	3	14	match	boîtier	4	1	y	0.97597
348.91310000000004	0.0	[response]	33	noun	list	3	15	match	boîtier	4	1	y	0.97597
358.33619999999996	0.0	+	34	verb	list	1	1	match	chasser	5	1	y	0.67073
358.8862	0.2	whbv	34	verb	list	1	2	match	chasser	5	1	y	0.67073
359.08619999999996	0.0	+	34	verb	list	1	3	match	chasser	5	1	y	0.67073
359.48609999999996	0.2	xhvf	34	verb	list	1	4	match	chasser	5	1	y	0.67073
359.6861	0.0	+	34	verb	list	1	5	match	chasser	5	1	y	0.67073
360.0861	0.2	tvw	34	verb	list	1	6	match	chasser	5	1	y	0.67073
360.2861	0.0	+	34	verb	list	1	7	match	chasser	5	1	y	0.67073
360.686	0.2	nldp	34	verb	list	1	8	match	chasser	5	1	y	0.67073
360.88599999999997	0.0	+	34	verb	list	1	9	match	chasser	5	1	y	0.67073
361.286	0.2	chasser	34	verb	list	1	10	match	chasser	5	1	y	0.67073
361.486	0.0	+	34	verb	list	1	11	match	chasser	5	1	y	0.67073
361.8859	0.0	+	34	verb	list	1	12	match	chasser	5	1	y	0.67073
363.88579999999996	0.0	CHASSER	34	verb	list	1	13	match	chasser	5	1	y	0.67073
364.61899999999997	0.0	+	34	verb	list	1	14	match	chasser	5	1	y	0.67073
364.55649999999997	0.0	[response]	34	verb	list	1	15	match	chasser	5	1	y	0.67073
366.2855	0.0	+	35	noun	list	4	1	match	moins	4	1	y	0.90555
366.83549999999997	0.2	jvgkmcw	35	noun	list	4	2	match	moins	4	1	y	0.90555
367.0355	0.0	+	35	noun	list	4	3	match	moins	4	1	y	0.90555
367.4355	0.2	jade	35	noun	list	4	4	match	moins	4	1	y	0.90555
367.6354	0.0	+	35	noun	list	4	5	match	moins	4	1	y	0.90555
368.0354	0.2	leur	35	noun	list	4	6	match	moins	4	1	y	0.90555
368.23539999999997	0.0	+	35	noun	list	4	7	match	moins	4	1	y	0.90555
368.6354	0.2	moins	35	noun	list	4	8	match	moins	4	1	y	0.90555
368.83529999999996	0.0	+	35	noun	list	4	9	match	moins	4	1	y	0.90555
369.2353	0.2	sablier	35	noun	list	4	10	match	moins	4	1	y	0.90555
369.4353	0.0	+	35	noun	list	4	11	match	moins	4	1	y	0.90555
369.8352	0.0	+	35	noun	list	4	12	match	moins	4	1	y	0.90555
371.8351	0.0	MOINS	35	noun	list	4	13	match	moins	4	1	y	0.90555
372.8016	0.0	+	35	noun	list	4	14	match	moins	4	1	y	0.90555
372.7406	0.0	[response]	35	noun	list	4	15	match	moins	4	1	y	0.90555
374.2349	0.0	+	36	verb	list	2	1	nomatch	jongler	-1	1	p	0.87784
374.78479999999996	0.2	mghzk	36	verb	list	2	2	nomatch	jongler	-1	1	p	0.87784
374.9848	0.0	+	36	verb	list	2	3	nomatch	jongler	-1	1	p	0.87784
375.3848	0.2	jpqd	36	verb	list	2	4	nomatch	jongler	-1	1	p	0.87784
375.5848	0.0	+	36	verb	list	2	5	nomatch	jongler	-1	1	p	0.87784
375.9848	0.2	vp	36	verb	list	2	6	nomatch	jongler	-1	1	p	0.87784
376.2014	0.0	+	36	verb	list	2	7	nomatch	jongler	-1	1	p	0.87784
376.6013	0.2	vieux	36	verb	list	2	8	nomatch	jongler	-1	1	p	0.87784
376.80129999999997	0.0	+	36	verb	list	2	9	nomatch	jongler	-1	1	p	0.87784
377.2013	0.2	rouler	36	verb	list	2	10	nomatch	jongler	-1	1	p	0.87784
377.4013	0.0	+	36	verb	list	2	11	nomatch	jongler	-1	1	p	0.87784
377.8012	0.0	+	36	verb	list	2	12	nomatch	jongler	-1	1	p	0.87784
379.801	0.0	JONGLER	36	verb	list	2	13	nomatch	jongler	-1	1	p	0.87784
380.73429999999996	0.0	+	36	verb	list	2	14	nomatch	jongler	-1	1	p	0.87784
380.6789	0.0	[response]	36	verb	list	2	15	nomatch	jongler	-1	1	p	0.87784
382.20079999999996	0.0	+	37	verb	phrase	3	1	match	voyager	4	1	y	0.76291
382.75079999999997	0.2	xbqpdfc	37	verb	phrase	3	2	match	voyager	4	1	y	0.76291
382.95079999999996	0.0	+	37	verb	phrase	3	3	match	voyager	4	1	y	0.76291
383.35069999999996	0.2	pnsd	37	verb	phrase	3	4	match	voyager	4	1	y	0.76291
383.5507	0.0	+	37	verb	phrase	3	5	match	voyager	4	1	y	0.76291
383.9507	0.2	doit	37	verb	phrase	3	6	match	voyager	4	1	y	0.76291
384.1507	0.0	+	37	verb	phrase	3	7	match	voyager	4	1	y	0.76291
384.5506	0.2	voyager	37	verb	phrase	3	8	match	voyager	4	1	y	0.76291
384.75059999999996	0.0	+	37	verb	phrase	3	9	match	voyager	4	1	y	0.76291
385.1506	0.2	ainsi	37	verb	phrase	3	10	match	voyager	4	1	y	0.76291
385.3506	0.0	+	37	verb	phrase	3	11	match	voyager	4	1	y	0.76291
385.7505	0.0	+	37	verb	phrase	3	12	match	voyager	4	1	y	0.76291
387.7504	0.0	VOYAGER	37	verb	phrase	3	13	match	voyager	4	1	y	0.76291
388.5836	0.0	+	37	verb	phrase	3	14	match	voyager	4	1	y	0.76291
388.51329999999996	0.0	[response]	37	verb	phrase	3	15	match	voyager	4	1	y	0.76291
390.1501	0.0	+	38	verb	list	1	1	match	petit	5	1	y	0.70017
390.70009999999996	0.2	gphjc	38	verb	list	1	2	match	petit	5	1	y	0.70017
390.9001	0.0	+	38	verb	list	1	3	match	petit	5	1	y	0.70017
391.3	0.2	zpwn	38	verb	list	1	4	match	petit	5	1	y	0.70017
391.5	0.0	+	38	verb	list	1	5	match	petit	5	1	y	0.70017
391.9	0.2	smjp	38	verb	list	1	6	match	petit	5	1	y	0.70017
392.09999999999997	0.0	+	38	verb	list	1	7	match	petit	5	1	y	0.70017
392.49989999999997	0.2	vqrhldg	38	verb	list	1	8	match	petit	5	1	y	0.70017
392.69989999999996	0.0	+	38	verb	list	1	9	match	petit	5	1	y	0.70017
393.0999	0.2	petit	38	verb	list	1	10	match	petit	5	1	y	0.70017
393.2999	0.0	+	38	verb	list	1	11	match	petit	5	1	y	0.70017
393.6998	0.0	+	38	verb	list	1	12	match	petit	5	1	y	0.70017
395.6997	0.0	PETIT	38	verb	list	1	13	match	petit	5	1	y	0.70017
396.4663	0.0	+	38	verb	list	1	14	match	petit	5	1	y	0.70017
396.39979999999997	0.0	[response]	38	verb	list	1	15	match	petit	5	1	y	0.70017
398.0995	0.0	+	39	noun	phrase	4	1	nomatch	grand	-1	1	p	1.0557
398.64939999999996	0.2	pdx	39	noun	phrase	4	2	nomatch	grand	-1	1	p	1.0557
398.8494	0.0	+	39	noun	phrase	4	3	nomatch	grand	-1	1	p	1.0557
399.2494	0.2	avec	39	noun	phrase	4	4	nomatch	grand	-1	1	p	1.0557
399.4493	0.0	+	39	noun	phrase	4	5	nomatch	grand	-1	1	p	1.0557
399.84929999999997	0.2	son	39	noun	phrase	4	6	nomatch	grand	-1	1	p	1.0557
400.04929999999996	0.0	+	39	noun	phrase	4	7	nomatch	grand	-1	1	p	1.0557
400.4493	0.2	beau	39	noun	phrase	4	8	nomatch	grand	-1	1	p	1.0557
400.6492	0.0	+	39	noun	phrase	4	9	nomatch	grand	-1	1	p	1.0557
401.0492	0.2	casier	39	noun	phrase	4	10	nomatch	grand	-1	1	p	1.0557
401.2492	0.0	+	39	noun	phrase	4	11	nomatch	grand	-1	1	p	1.0557
401.6491	0.0	+	39	noun	phrase	4	12	nomatch	grand	-1	1	p	1.0557
403.649	0.0	GRAND	39	noun	phrase	4	13	nomatch	grand	-1	1	p	1.0557
404.7655	0.0	+	39	noun	phrase	4	14	nomatch	grand	-1	1	p	1.0557
404.7047	0.0	[response]	39	noun	phrase	4	15	nomatch	grand	-1	1	p	1.0557
406.04879999999997	0.0	+	40	noun	list	2	1	nomatch	cendrier	-1	1	p	0.67794
406.5987	0.2	vmkcnb	40	noun	list	2	2	nomatch	cendrier	-1	1	p	0.67794
406.7987	0.0	+	40	noun	list	2	3	nomatch	cendrier	-1	1	p	0.67794
407.1987	0.2	dthz	40	noun	list	2	4	nomatch	cendrier	-1	1	p	0.67794
407.39869999999996	0.0	+	40	noun	list	2	5	nomatch	cendrier	-1	1	p	0.67794
407.79859999999996	0.2	vp	40	noun	list	2	6	nomatch	cendrier	-1	1	p	0.67794
407.9986	0.0	+	40	noun	list	2	7	nomatch	cendrier	-1	1	p	0.67794
408.3986	0.2	tablier	40	noun	list	2	8	nomatch	cendrier	-1	1	p	0.67794
408.5985	0.0	+	40	noun	list	2	9	nomatch	cendrier	-1	1	p	0.67794
408.9985	0.2	ainsi	40	noun	list	2	10	nomatch	cendrier	-1	1	p	0.67794
409.19849999999997	0.0	+	40	noun	list	2	11	nomatch	cendrier	-1	1	p	0.67794
409.5985	0.0	+	40	noun	list	2	12	nomatch	cendrier	-1	1	p	0.67794
411.5983	0.0	CENDRIER	40	noun	list	2	13	nomatch	cendrier	-1	1	p	0.67794
412.3315	0.0	+	40	noun	list	2	14	nomatch	cendrier	-1	1	p	0.67794
412.2762	0.0	[response]	40	noun	list	2	15	nomatch	cendrier	-1	1	p	0.67794
413.99809999999997	0.0	+	41	verb	list	2	1	nomatch	rouler	-1	1	p	0.64407
414.548	0.2	xvwtzfn	41	verb	list	2	2	nomatch	rouler	-1	1	p	0.64407
414.748	0.0	+	41	verb	list	2	3	nomatch	rouler	-1	1	p	0.64407
415.14799999999997	0.2	zmbq	41	verb	list	2	4	nomatch	rouler	-1	1	p	0.64407
415.348	0.0	+	41	verb	list	2	5	nomatch	rouler	-1	1	p	0.64407
415.74789999999996	0.2	tvw	41	verb	list	2	6	nomatch	rouler	-1	1	p	0.64407
415.9479	0.0	+	41	verb	list	2	7	nomatch	rouler	-1	1	p	0.64407
416.3479	0.2	plonger	41	verb	list	2	8	nomatch	rouler	-1	1	p	0.64407
416.54789999999997	0.0	+	41	verb	list	2	9	nomatch	rouler	-1	1	p	0.64407
416.9478	0.2	rouge	41	verb	list	2	10	nomatch	rouler	-1	1	p	0.64407
417.14779999999996	0.0	+	41	verb	list	2	11	nomatch	rouler	-1	1	p	0.64407
417.5478	0.0	+	41	verb	list	2	12	nomatch	rouler	-1	1	p	0.64407
419.5476	0.0	ROULER	41	verb	list	2	13	nomatch	rouler	-1	1	p	0.64407
420.2475	0.0	+	41	verb	list	2	14	nomatch	rouler	-1	1	p	0.64407
420.19169999999997	0.0	[response]	41	verb	list	2	15	nomatch	rouler	-1	1	p	0.64407
421.94739999999996	0.0	+	42	noun	phrase	2	1	match	boîtier	4	1	y	0.91255
422.4973	0.2	fdcm	42	noun	phrase	2	2	match	boîtier	4	1	y	0.91255
422.6973	0.0	+	42	noun	phrase	2	3	match	boîtier	4	1	y	0.91255
423.09729999999996	0.2	slvm	42	noun	phrase	2	4	match	boîtier	4	1	y	0.91255
423.2973	0.0	+	42	noun	phrase	2	5	match	boîtier	4	1	y	0.91255
423.6972	0.2	fml	42	noun	phrase	2	6	match	boîtier	4	1	y	0.91255
423.8972	0.0	+	42	noun	phrase	2	7	match	boîtier	4	1	y	0.91255
424.2972	0.2	boîtier	42	noun	phrase	2	8	match	boîtier	4	1	y	0.91255
424.49719999999996	0.0	+	42	noun	phrase	2	9	match	boîtier	4	1	y	0.91255
424.8983	0.2	vert	42	noun	phrase	2	10	match	boîtier	4	1	y	0.91255
425.0971	0.0	+	42	noun	phrase	2	11	match	boîtier	4	1	y	0.91255
425.4971	0.0	+	42	noun	phrase	2	12	match	boîtier	4	1	y	0.91255
427.4969	0.0	BOÎTIER	42	noun	phrase	2	13	match	boîtier	4	1	y	0.91255
428.4635	0.0	+	42	noun	phrase	2	14	match	boîtier	4	1	y	0.91255
428.4095	0.0	[response]	42	noun	phrase	2	15	match	boîtier	4	1	y	0.91255
429.8967	0.0	+	43	noun	phrase	1	1	nomatch	casier	-1	1	p	0.74142
430.4466	0.2	mdfk	43	noun	phrase	1	2	nomatch	casier	-1	1	p	0.74142
430.6466	0.0	+	43	noun	phrase	1	3	nomatch	casier	-1	1	p	0.74142
431.0466	0.2	klgc	43	noun	phrase	1	4	nomatch	casier	-1	1	p	0.74142
431.2466	0.0	+	43	noun	phrase	1	5	nomatch	casier	-1	1	p	0.74142
431.6465	0.2	tvw	43	noun	phrase	1	6	nomatch	casier	-1	1	p	0.74142
431.8465	0.0	+	43	noun	phrase	1	7	nomatch	casier	-1	1	p	0.74142
432.24649999999997	0.2	wdbr	43	noun	phrase	1	8	nomatch	casier	-1	1	p	0.74142
432.44649999999996	0.0	+	43	noun	phrase	1	9	nomatch	casier	-1	1	p	0.74142
432.84639999999996	0.2	grenier	43	noun	phrase	1	10	nomatch	casier	-1	1	p	0.74142
433.0464	0.0	+	43	noun	phrase	1	11	nomatch	casier	-1	1	p	0.74142
433.4464	0.0	+	43	noun	phrase	1	12	nomatch	casier	-1	1	p	0.74142
435.4462	0.0	CASIER	43	noun	phrase	1	13	nomatch	casier	-1	1	p	0.74142
436.2464	0.0	+	43	noun	phrase	1	14	nomatch	casier	-1	1	p	0.74142
436.1876	0.0	[response]	43	noun	phrase	1	15	nomatch	casier	-1	1	p	0.74142
437.846	0.0	+	44	noun	list	1	1	nomatch	peut	-1	1	p	0.83611
438.39599999999996	0.2	zrmdt	44	noun	list	1	2	nomatch	peut	-1	1	p	0.83611
438.5959	0.0	+	44	noun	list	1	3	nomatch	peut	-1	1	p	0.83611
438.9959	0.2	jpqd	44	noun	list	1	4	nomatch	peut	-1	1	p	0.83611
439.1959	0.0	+	44	noun	list	1	5	nomatch	peut	-1	1	p	0.83611
439.5959	0.2	vp	44	noun	list	1	6	nomatch	peut	-1	1	p	0.83611
439.7958	0.0	+	44	noun	list	1	7	nomatch	peut	-1	1	p	0.83611
440.19579999999996	0.2	tlrj	44	noun	list	1	8	nomatch	peut	-1	1	p	0.83611
440.3958	0.0	+	44	noun	list	1	9	nomatch	peut	-1	1	p	0.83611
440.7957	0.2	cendrier	44	noun	list	1	10	nomatch	peut	-1	1	p	0.83611
440.9957	0.0	+	44	noun	list	1	11	nomatch	peut	-1	1	p	0.83611
441.3957	0.0	+	44	noun	list	1	12	nomatch	peut	-1	1	p	0.83611
443.39549999999997	0.0	PEUT	44	noun	list	1	13	nomatch	peut	-1	1	p	0.83611
444.2954	0.0	+	44	noun	list	1	14	nomatch	peut	-1	1	p	0.83611
444.23159999999996	0.0	[response]	44	noun	list	1	15	nomatch	peut	-1	1	p	0.83611
445.7953	0.0	+	45	noun	list	1	1	nomatch	tôt	-1	1	p	0.78246
446.3453	0.2	bcxnvr	45	noun	list	1	2	nomatch	tôt	-1	1	p	0.78246
446.54519999999997	0.0	+	45	noun	list	1	3	nomatch	tôt	-1	1	p	0.78246
446.9452	0.2	slvm	45	noun	list	1	4	nomatch	tôt	-1	1	p	0.78246
447.1452	0.0	+	45	noun	list	1	5	nomatch	tôt	-1	1	p	0.78246
447.54519999999997	0.2	smjp	45	noun	list	1	6	nomatch	tôt	-1	1	p	0.78246
447.7451	0.0	+	45	noun	list	1	7	nomatch	tôt	-1	1	p	0.78246
448.1451	0.2	pskzcdh	45	noun	list	1	8	nomatch	tôt	-1	1	p	0.78246
448.3451	0.0	+	45	noun	list	1	9	nomatch	tôt	-1	1	p	0.78246
448.7451	0.2	ainsi	45	noun	list	1	10	nomatch	tôt	-1	1	p	0.78246
448.945	0.0	+	45	noun	list	1	11	nomatch	tôt	-1	1	p	0.78246
449.34499999999997	0.0	+	45	noun	list	1	12	nomatch	tôt	-1	1	p	0.78246
451.34479999999996	0.0	TÔT	45	noun	list	1	13	nomatch	tôt	-1	1	p	0.78246
452.1947	0.0	+	45	noun	list	1	14	nomatch	tôt	-1	1	p	0.78246
452.1273	0.0	[response]	45	noun	list	1	15	nomatch	tôt	-1	1	p	0.78246
453.7446	0.0	+	46	noun	list	1	1	nomatch	tard	-1	1	p	0.94332
454.2946	0.2	wdtjn	46	noun	list	1	2	nomatch	tard	-1	1	p	0.94332
454.4946	0.0	+	46	noun	list	1	3	nomatch	tard	-1	1	p	0.94332
454.8945	0.2	ckl	46	noun	list	1	4	nomatch	tard	-1	1	p	0.94332
455.0945	0.0	+	46	noun	list	1	5	nomatch	tard	-1	1	p	0.94332
455.49449999999996	0.2	vp	46	noun	list	1	6	nomatch	tard	-1	1	p	0.94332
455.6945	0.0	+	46	noun	list	1	7	nomatch	tard	-1	1	p	0.94332
456.0944	0.2	jrnfgk	46	noun	list	1	8	nomatch	tard	-1	1	p	0.94332
456.2944	0.0	+	46	noun	list	1	9	nomatch	tard	-1	1	p	0.94332
456.6944	0.2	loin	46	noun	list	1	10	nomatch	tard	-1	1	p	0.94332
456.8943	0.0	+	46	noun	list	1	11	nomatch	tard	-1	1	p	0.94332
457.29429999999996	0.0	+	46	noun	list	1	12	nomatch	tard	-1	1	p	0.94332
459.29409999999996	0.0	TARD	46	noun	list	1	13	nomatch	tard	-1	1	p	0.94332
460.294	0.0	+	46	noun	list	1	14	nomatch	tard	-1	1	p	0.94332
460.23750000000007	0.0	[response]	46	noun	list	1	15	nomatch	tard	-1	1	p	0.94332
461.6939	0.0	+	47	noun	phrase	1	1	nomatch	pour	-1	1	p	0.61955
462.24389999999994	0.2	zfgtb	47	noun	phrase	1	2	nomatch	pour	-1	1	p	0.61955
462.4439	0.0	+	47	noun	phrase	1	3	nomatch	pour	-1	1	p	0.61955
462.8438	0.2	jpqd	47	noun	phrase	1	4	nomatch	pour	-1	1	p	0.61955
463.04380000000003	0.0	+	47	noun	phrase	1	5	nomatch	pour	-1	1	p	0.61955
463.4438	0.2	tvw	47	noun	phrase	1	6	nomatch	pour	-1	1	p	0.61955
463.64379999999994	0.0	+	47	noun	phrase	1	7	nomatch	pour	-1	1	p	0.61955
464.04369999999994	0.2	mths	47	noun	phrase	1	8	nomatch	pour	-1	1	p	0.61955
464.2437	0.0	+	47	noun	phrase	1	9	nomatch	pour	-1	1	p	0.61955
464.64369999999997	0.2	voilier	47	noun	phrase	1	10	nomatch	pour	-1	1	p	0.61955
464.8437	0.0	+	47	noun	phrase	1	11	nomatch	pour	-1	1	p	0.61955
465.2436	0.0	+	47	noun	phrase	1	12	nomatch	pour	-1	1	p	0.61955
467.24339999999995	0.0	POUR	47	noun	phrase	1	13	nomatch	pour	-1	1	p	0.61955
467.9267	0.0	+	47	noun	phrase	1	14	nomatch	pour	-1	1	p	0.61955
467.86299999999994	0.0	[response]	47	noun	phrase	1	15	nomatch	pour	-1	1	p	0.61955
469.6432	0.0	+	48	verb	phrase	1	1	nomatch	patiner	-1	1	p	0.6617800000000001
470.19319999999993	0.2	mgvq	48	verb	phrase	1	2	nomatch	patiner	-1	1	p	0.6617800000000001
470.3932	0.0	+	48	verb	phrase	1	3	nomatch	patiner	-1	1	p	0.6617800000000001
470.7931	0.2	xhvf	48	verb	phrase	1	4	nomatch	patiner	-1	1	p	0.6617800000000001
470.9931	0.0	+	48	verb	phrase	1	5	nomatch	patiner	-1	1	p	0.6617800000000001
471.3931	0.2	njsf	48	verb	phrase	1	6	nomatch	patiner	-1	1	p	0.6617800000000001
471.59309999999994	0.0	+	48	verb	phrase	1	7	nomatch	patiner	-1	1	p	0.6617800000000001
471.99299999999994	0.2	rjfwc	48	verb	phrase	1	8	nomatch	patiner	-1	1	p	0.6617800000000001
472.193	0.0	+	48	verb	phrase	1	9	nomatch	patiner	-1	1	p	0.6617800000000001
472.59299999999996	0.2	chasser	48	verb	phrase	1	10	nomatch	patiner	-1	1	p	0.6617800000000001
472.793	0.0	+	48	verb	phrase	1	11	nomatch	patiner	-1	1	p	0.6617800000000001
473.1929	0.0	+	48	verb	phrase	1	12	nomatch	patiner	-1	1	p	0.6617800000000001
475.19280000000003	0.0	PATINER	48	verb	phrase	1	13	nomatch	patiner	-1	1	p	0.6617800000000001
475.9094	0.0	+	48	verb	phrase	1	14	nomatch	patiner	-1	1	p	0.6617800000000001
475.85450000000003	0.0	[response]	48	verb	phrase	1	15	nomatch	patiner	-1	1	p	0.6617800000000001
477.5925	0.0	+	49	noun	phrase	1	1	nomatch	boîtier	-1	1	p	0.55861
478.14250000000004	0.2	fmb	49	noun	phrase	1	2	nomatch	boîtier	-1	1	p	0.55861
478.3425	0.0	+	49	noun	phrase	1	3	nomatch	boîtier	-1	1	p	0.55861
478.7424	0.2	zpwn	49	noun	phrase	1	4	nomatch	boîtier	-1	1	p	0.55861
478.9424	0.0	+	49	noun	phrase	1	5	nomatch	boîtier	-1	1	p	0.55861
479.3424	0.2	fml	49	noun	phrase	1	6	nomatch	boîtier	-1	1	p	0.55861
479.54239999999993	0.0	+	49	noun	phrase	1	7	nomatch	boîtier	-1	1	p	0.55861
479.94229999999993	0.2	nldp	49	noun	phrase	1	8	nomatch	boîtier	-1	1	p	0.55861
480.1423	0.0	+	49	noun	phrase	1	9	nomatch	boîtier	-1	1	p	0.55861
480.54229999999995	0.2	panier	49	noun	phrase	1	10	nomatch	boîtier	-1	1	p	0.55861
480.7423	0.0	+	49	noun	phrase	1	11	nomatch	boîtier	-1	1	p	0.55861
481.1422	0.0	+	49	noun	phrase	1	12	nomatch	boîtier	-1	1	p	0.55861
483.1421	0.0	BOÎTIER	49	noun	phrase	1	13	nomatch	boîtier	-1	1	p	0.55861
483.7587	0.0	+	49	noun	phrase	1	14	nomatch	boîtier	-1	1	p	0.55861
483.7007	0.0	[response]	49	noun	phrase	1	15	nomatch	boîtier	-1	1	p	0.55861
485.54179999999997	0.0	+	50	verb	phrase	2	1	nomatch	petit	-1	1	p	0.66918
486.09180000000003	0.2	dcbnvf	50	verb	phrase	2	2	nomatch	petit	-1	1	p	0.66918
486.29179999999997	0.0	+	50	verb	phrase	2	3	nomatch	petit	-1	1	p	0.66918
486.69179999999994	0.2	pnsd	50	verb	phrase	2	4	nomatch	petit	-1	1	p	0.66918
486.8917	0.0	+	50	verb	phrase	2	5	nomatch	petit	-1	1	p	0.66918
487.2917	0.2	smjp	50	verb	phrase	2	6	nomatch	petit	-1	1	p	0.66918
487.49170000000004	0.0	+	50	verb	phrase	2	7	nomatch	petit	-1	1	p	0.66918
487.8917	0.2	trop	50	verb	phrase	2	8	nomatch	petit	-1	1	p	0.66918
488.09159999999997	0.0	+	50	verb	phrase	2	9	nomatch	petit	-1	1	p	0.66918
488.49159999999995	0.2	parader	50	verb	phrase	2	10	nomatch	petit	-1	1	p	0.66918
488.6916	0.0	+	50	verb	phrase	2	11	nomatch	petit	-1	1	p	0.66918
489.0915	0.0	+	50	verb	phrase	2	12	nomatch	petit	-1	1	p	0.66918
491.0914	0.0	PETIT	50	verb	phrase	2	13	nomatch	petit	-1	1	p	0.66918
491.82460000000003	0.0	+	50	verb	phrase	2	14	nomatch	petit	-1	1	p	0.66918
491.76060000000007	0.0	[response]	50	verb	phrase	2	15	nomatch	petit	-1	1	p	0.66918
493.49119999999994	0.0	+	51	verb	list	3	1	match	nouveau	4	1	y	0.90971
494.04110000000003	0.2	ptx	51	verb	list	3	2	match	nouveau	4	1	y	0.90971
494.24109999999996	0.0	+	51	verb	list	3	3	match	nouveau	4	1	y	0.90971
494.64109999999994	0.2	fnlw	51	verb	list	3	4	match	nouveau	4	1	y	0.90971
494.841	0.0	+	51	verb	list	3	5	match	nouveau	4	1	y	0.90971
495.241	0.2	doit	51	verb	list	3	6	match	nouveau	4	1	y	0.90971
495.44100000000003	0.0	+	51	verb	list	3	7	match	nouveau	4	1	y	0.90971
495.841	0.2	nouveau	51	verb	list	3	8	match	nouveau	4	1	y	0.90971
496.04089999999997	0.0	+	51	verb	list	3	9	match	nouveau	4	1	y	0.90971
496.44089999999994	0.2	patiner	51	verb	list	3	10	match	nouveau	4	1	y	0.90971
496.6409	0.0	+	51	verb	list	3	11	match	nouveau	4	1	y	0.90971
497.04089999999997	0.0	+	51	verb	list	3	12	match	nouveau	4	1	y	0.90971
499.0407	0.0	NOUVEAU	51	verb	list	3	13	match	nouveau	4	1	y	0.90971
500.0073	0.0	+	51	verb	list	3	14	match	nouveau	4	1	y	0.90971
499.95039999999995	0.0	[response]	51	verb	list	3	15	match	nouveau	4	1	y	0.90971
509.4398	0.0	+	52	verb	phrase	3	1	nomatch	voyager	-1	1	p	0.7768
509.98969999999997	0.2	fjv	52	verb	phrase	3	2	nomatch	voyager	-1	1	p	0.7768
510.1897	0.0	+	52	verb	phrase	3	3	nomatch	voyager	-1	1	p	0.7768
510.5897	0.2	zmbq	52	verb	phrase	3	4	nomatch	voyager	-1	1	p	0.7768
510.78970000000004	0.0	+	52	verb	phrase	3	5	nomatch	voyager	-1	1	p	0.7768
511.18960000000004	0.2	va	52	verb	phrase	3	6	nomatch	voyager	-1	1	p	0.7768
511.3896	0.0	+	52	verb	phrase	3	7	nomatch	voyager	-1	1	p	0.7768
511.78959999999995	0.2	rouler	52	verb	phrase	3	8	nomatch	voyager	-1	1	p	0.7768
511.9896	0.0	+	52	verb	phrase	3	9	nomatch	voyager	-1	1	p	0.7768
512.3895	0.2	ainsi	52	verb	phrase	3	10	nomatch	voyager	-1	1	p	0.7768
512.5894999999999	0.0	+	52	verb	phrase	3	11	nomatch	voyager	-1	1	p	0.7768
512.9895	0.0	+	52	verb	phrase	3	12	nomatch	voyager	-1	1	p	0.7768
514.9893	0.0	VOYAGER	52	verb	phrase	3	13	nomatch	voyager	-1	1	p	0.7768
515.8226	0.0	+	52	verb	phrase	3	14	nomatch	voyager	-1	1	p	0.7768
515.7660999999999	0.0	[response]	52	verb	phrase	3	15	nomatch	voyager	-1	1	p	0.7768
517.3891	0.0	+	53	noun	phrase	4	1	match	sur	2	1	y	1.0813
517.939	0.2	dhkzpl	53	noun	phrase	4	2	match	sur	2	1	y	1.0813
518.139	0.0	+	53	noun	phrase	4	3	match	sur	2	1	y	1.0813
518.539	0.2	sur	53	noun	phrase	4	4	match	sur	2	1	y	1.0813
518.739	0.0	+	53	noun	phrase	4	5	match	sur	2	1	y	1.0813
519.1389	0.2	leur	53	noun	phrase	4	6	match	sur	2	1	y	1.0813
519.3389	0.0	+	53	noun	phrase	4	7	match	sur	2	1	y	1.0813
519.7389	0.2	grenier	53	noun	phrase	4	8	match	sur	2	1	y	1.0813
519.9389	0.0	+	53	noun	phrase	4	9	match	sur	2	1	y	1.0813
520.3388	0.2	noir	53	noun	phrase	4	10	match	sur	2	1	y	1.0813
520.5388	0.0	+	53	noun	phrase	4	11	match	sur	2	1	y	1.0813
520.9388	0.0	+	53	noun	phrase	4	12	match	sur	2	1	y	1.0813
522.9386	0.0	SUR	53	noun	phrase	4	13	match	sur	2	1	y	1.0813
524.0885	0.0	+	53	noun	phrase	4	14	match	sur	2	1	y	1.0813
524.0199000000001	0.0	[response]	53	noun	phrase	4	15	match	sur	2	1	y	1.0813
525.3384	0.0	+	54	verb	list	3	1	match	son	3	1	y	0.55577
525.8883	0.2	flpj	54	verb	list	3	2	match	son	3	1	y	0.55577
526.0883	0.0	+	54	verb	list	3	3	match	son	3	1	y	0.55577
526.4883	0.2	xhvf	54	verb	list	3	4	match	son	3	1	y	0.55577
526.6883	0.0	+	54	verb	list	3	5	match	son	3	1	y	0.55577
527.0882	0.2	son	54	verb	list	3	6	match	son	3	1	y	0.55577
527.2882	0.0	+	54	verb	list	3	7	match	son	3	1	y	0.55577
527.6881999999999	0.2	voyager	54	verb	list	3	8	match	son	3	1	y	0.55577
527.8882	0.0	+	54	verb	list	3	9	match	son	3	1	y	0.55577
528.2881	0.2	bleu	54	verb	list	3	10	match	son	3	1	y	0.55577
528.4881	0.0	+	54	verb	list	3	11	match	son	3	1	y	0.55577
528.8881	0.0	+	54	verb	list	3	12	match	son	3	1	y	0.55577
530.8879	0.0	SON	54	verb	list	3	13	match	son	3	1	y	0.55577
531.5045	0.0	+	54	verb	list	3	14	match	son	3	1	y	0.55577
531.4437	0.0	[response]	54	verb	list	3	15	match	son	3	1	y	0.55577
533.2877	0.0	+	55	noun	phrase	4	1	nomatch	doit	-1	1	p	0.78069
533.8377	0.2	hpdv	55	noun	phrase	4	2	nomatch	doit	-1	1	p	0.78069
534.0376	0.0	+	55	noun	phrase	4	3	nomatch	doit	-1	1	p	0.78069
534.4376	0.2	sur	55	noun	phrase	4	4	nomatch	doit	-1	1	p	0.78069
534.6376	0.0	+	55	noun	phrase	4	5	nomatch	doit	-1	1	p	0.78069
535.0376	0.2	mon	55	noun	phrase	4	6	nomatch	doit	-1	1	p	0.78069
535.2375	0.0	+	55	noun	phrase	4	7	nomatch	doit	-1	1	p	0.78069
535.6374999999999	0.2	casier	55	noun	phrase	4	8	nomatch	doit	-1	1	p	0.78069
535.8375	0.0	+	55	noun	phrase	4	9	nomatch	doit	-1	1	p	0.78069
536.2375	0.2	rouge	55	noun	phrase	4	10	nomatch	doit	-1	1	p	0.78069
536.4374	0.0	+	55	noun	phrase	4	11	nomatch	doit	-1	1	p	0.78069
536.8374	0.0	+	55	noun	phrase	4	12	nomatch	doit	-1	1	p	0.78069
538.8371999999999	0.0	DOIT	55	noun	phrase	4	13	nomatch	doit	-1	1	p	0.78069
539.6871	0.0	+	55	noun	phrase	4	14	nomatch	doit	-1	1	p	0.78069
539.6179	0.0	[response]	55	noun	phrase	4	15	nomatch	doit	-1	1	p	0.78069
541.237	0.0	+	56	verb	list	1	1	match	chasser	5	1	y	0.55278
541.787	0.2	cfw	56	verb	list	1	2	match	chasser	5	1	y	0.55278
541.987	0.0	+	56	verb	list	1	3	match	chasser	5	1	y	0.55278
542.3869	0.2	zpwn	56	verb	list	1	4	match	chasser	5	1	y	0.55278
542.5869	0.0	+	56	verb	list	1	5	match	chasser	5	1	y	0.55278
542.9869	0.2	njsf	56	verb	list	1	6	match	chasser	5	1	y	0.55278
543.1868	0.0	+	56	verb	list	1	7	match	chasser	5	1	y	0.55278
543.5868	0.2	gnkf	56	verb	list	1	8	match	chasser	5	1	y	0.55278
543.7868	0.0	+	56	verb	list	1	9	match	chasser	5	1	y	0.55278
544.1868	0.2	chasser	56	verb	list	1	10	match	chasser	5	1	y	0.55278
544.3867	0.0	+	56	verb	list	1	11	match	chasser	5	1	y	0.55278
544.7867	0.0	+	56	verb	list	1	12	match	chasser	5	1	y	0.55278
546.7864999999999	0.0	CHASSER	56	verb	list	1	13	match	chasser	5	1	y	0.55278
547.4031	0.0	+	56	verb	list	1	14	match	chasser	5	1	y	0.55278
547.3393	0.0	[response]	56	verb	list	1	15	match	chasser	5	1	y	0.55278
549.1863	0.0	+	57	noun	phrase	2	1	match	petit	4	1	y	0.77136
549.7363	0.2	knt	57	noun	phrase	2	2	match	petit	4	1	y	0.77136
549.9363	0.0	+	57	noun	phrase	2	3	match	petit	4	1	y	0.77136
550.3362	0.2	ckl	57	noun	phrase	2	4	match	petit	4	1	y	0.77136
550.5362	0.0	+	57	noun	phrase	2	5	match	petit	4	1	y	0.77136
550.9362	0.2	tvw	57	noun	phrase	2	6	match	petit	4	1	y	0.77136
551.1362	0.0	+	57	noun	phrase	2	7	match	petit	4	1	y	0.77136
551.5361	0.2	petit	57	noun	phrase	2	8	match	petit	4	1	y	0.77136
551.7361	0.0	+	57	noun	phrase	2	9	match	petit	4	1	y	0.77136
552.1360999999999	0.2	casier	57	noun	phrase	2	10	match	petit	4	1	y	0.77136
552.336	0.0	+	57	noun	phrase	2	11	match	petit	4	1	y	0.77136
552.736	0.0	+	57	noun	phrase	2	12	match	petit	4	1	y	0.77136
554.7358	0.0	PETIT	57	noun	phrase	2	13	match	petit	4	1	y	0.77136
555.5690999999999	0.0	+	57	noun	phrase	2	14	match	petit	4	1	y	0.77136
555.5072	0.0	[response]	57	noun	phrase	2	15	match	petit	4	1	y	0.77136
557.1356	0.0	+	58	verb	list	4	1	match	yves	2	0	p	0.8559500000000001
557.6856	0.2	kwmc	58	verb	list	4	2	match	yves	2	0	p	0.8559500000000001
557.8856	0.0	+	58	verb	list	4	3	match	yves	2	0	p	0.8559500000000001
558.2855	0.2	yves	58	verb	list	4	4	match	yves	2	0	p	0.8559500000000001
558.4855	0.0	+	58	verb	list	4	5	match	yves	2	0	p	0.8559500000000001
558.8855	0.2	mon	58	verb	list	4	6	match	yves	2	0	p	0.8559500000000001
559.0855	0.0	+	58	verb	list	4	7	match	yves	2	0	p	0.8559500000000001
559.4854	0.2	chasser	58	verb	list	4	8	match	yves	2	0	p	0.8559500000000001
559.6854	0.0	+	58	verb	list	4	9	match	yves	2	0	p	0.8559500000000001
560.0853999999999	0.2	blanc	58	verb	list	4	10	match	yves	2	0	p	0.8559500000000001
560.2854	0.0	+	58	verb	list	4	11	match	yves	2	0	p	0.8559500000000001
560.6853	0.0	+	58	verb	list	4	12	match	yves	2	0	p	0.8559500000000001
562.6851	0.0	YVES	58	verb	list	4	13	match	yves	2	0	p	0.8559500000000001
563.6016999999999	0.0	+	58	verb	list	4	14	match	yves	2	0	p	0.8559500000000001
563.5411	0.0	[response]	58	verb	list	4	15	match	yves	2	0	p	0.8559500000000001
565.0849	0.0	+	59	verb	phrase	4	1	match	plonger	5	1	y	0.68181
565.6349	0.2	pnbt	59	verb	phrase	4	2	match	plonger	5	1	y	0.68181
565.8349	0.0	+	59	verb	phrase	4	3	match	plonger	5	1	y	0.68181
566.2348	0.2	paul	59	verb	phrase	4	4	match	plonger	5	1	y	0.68181
566.4348	0.0	+	59	verb	phrase	4	5	match	plonger	5	1	y	0.68181
566.8348	0.2	peut	59	verb	phrase	4	6	match	plonger	5	1	y	0.68181
567.0348	0.0	+	59	verb	phrase	4	7	match	plonger	5	1	y	0.68181
567.4348	0.2	beaucoup	59	verb	phrase	4	8	match	plonger	5	1	y	0.68181
567.6348	0.0	+	59	verb	phrase	4	9	match	plonger	5	1	y	0.68181
568.0514	0.2	plonger	59	verb	phrase	4	10	match	plonger	5	1	y	0.68181
568.2513	0.0	+	59	verb	phrase	4	11	match	plonger	5	1	y	0.68181
568.6513	0.0	+	59	verb	phrase	4	12	match	plonger	5	1	y	0.68181
570.6510999999999	0.0	PLONGER	59	verb	phrase	4	13	match	plonger	5	1	y	0.68181
571.4010999999999	0.0	+	59	verb	phrase	4	14	match	plonger	5	1	y	0.68181
571.3329	0.0	[response]	59	verb	phrase	4	15	match	plonger	5	1	y	0.68181
581.0502	0.0	+	60	verb	list	1	1	nomatch	bleu	-1	1	p	1.2869
581.6002	0.2	whrjk	60	verb	list	1	2	nomatch	bleu	-1	1	p	1.2869
581.8002	0.0	+	60	verb	list	1	3	nomatch	bleu	-1	1	p	1.2869
582.2001	0.2	xhvf	60	verb	list	1	4	nomatch	bleu	-1	1	p	1.2869
582.4001	0.0	+	60	verb	list	1	5	nomatch	bleu	-1	1	p	1.2869
582.8000999999999	0.2	tvw	60	verb	list	1	6	nomatch	bleu	-1	1	p	1.2869
583.0001	0.0	+	60	verb	list	1	7	nomatch	bleu	-1	1	p	1.2869
583.4	0.2	tpdzsgn	60	verb	list	1	8	nomatch	bleu	-1	1	p	1.2869
583.6	0.0	+	60	verb	list	1	9	nomatch	bleu	-1	1	p	1.2869
584.0	0.2	rouge	60	verb	list	1	10	nomatch	bleu	-1	1	p	1.2869
584.1999	0.0	+	60	verb	list	1	11	nomatch	bleu	-1	1	p	1.2869
584.5998999999999	0.0	+	60	verb	list	1	12	nomatch	bleu	-1	1	p	1.2869
586.5997	0.0	BLEU	60	verb	list	1	13	nomatch	bleu	-1	1	p	1.2869
587.9496	0.0	+	60	verb	list	1	14	nomatch	bleu	-1	1	p	1.2869
587.8867	0.0	[response]	60	verb	list	1	15	nomatch	bleu	-1	1	p	1.2869
588.9995	0.0	+	61	verb	phrase	4	1	match	jade	2	1	y	0.96495
589.5495	0.2	xbvfdml	61	verb	phrase	4	2	match	jade	2	1	y	0.96495
589.7495	0.0	+	61	verb	phrase	4	3	match	jade	2	1	y	0.96495
590.1494	0.2	jade	61	verb	phrase	4	4	match	jade	2	1	y	0.96495
590.3494	0.0	+	61	verb	phrase	4	5	match	jade	2	1	y	0.96495
590.7494	0.2	peut	61	verb	phrase	4	6	match	jade	2	1	y	0.96495
590.9494	0.0	+	61	verb	phrase	4	7	match	jade	2	1	y	0.96495
591.3493	0.2	plus	61	verb	phrase	4	8	match	jade	2	1	y	0.96495
591.5493	0.0	+	61	verb	phrase	4	9	match	jade	2	1	y	0.96495
591.9493	0.2	chasser	61	verb	phrase	4	10	match	jade	2	1	y	0.96495
592.1493	0.0	+	61	verb	phrase	4	11	match	jade	2	1	y	0.96495
592.5492	0.0	+	61	verb	phrase	4	12	match	jade	2	1	y	0.96495
594.549	0.0	JADE	61	verb	phrase	4	13	match	jade	2	1	y	0.96495
595.5823	0.0	+	61	verb	phrase	4	14	match	jade	2	1	y	0.96495
595.514	0.0	[response]	61	verb	phrase	4	15	match	jade	2	1	y	0.96495
596.9488	0.0	+	62	verb	phrase	1	1	nomatch	noir	-1	1	p	1.2546
597.4988	0.2	gnk	62	verb	phrase	1	2	nomatch	noir	-1	1	p	1.2546
597.6988	0.0	+	62	verb	phrase	1	3	nomatch	noir	-1	1	p	1.2546
598.0987	0.2	pnsd	62	verb	phrase	1	4	nomatch	noir	-1	1	p	1.2546
598.2986999999999	0.0	+	62	verb	phrase	1	5	nomatch	noir	-1	1	p	1.2546
598.6987	0.2	vp	62	verb	phrase	1	6	nomatch	noir	-1	1	p	1.2546
598.8987	0.0	+	62	verb	phrase	1	7	nomatch	noir	-1	1	p	1.2546
599.2986	0.2	xgmdrft	62	verb	phrase	1	8	nomatch	noir	-1	1	p	1.2546
599.4986	0.0	+	62	verb	phrase	1	9	nomatch	noir	-1	1	p	1.2546
599.8998	0.2	vite	62	verb	phrase	1	10	nomatch	noir	-1	1	p	1.2546
600.0986	0.0	+	62	verb	phrase	1	11	nomatch	noir	-1	1	p	1.2546
600.4985	0.0	+	62	verb	phrase	1	12	nomatch	noir	-1	1	p	1.2546
602.4984	0.0	NOIR	62	verb	phrase	1	13	nomatch	noir	-1	1	p	1.2546
603.8149	0.0	+	62	verb	phrase	1	14	nomatch	noir	-1	1	p	1.2546
603.7529999999999	0.0	[response]	62	verb	phrase	1	15	nomatch	noir	-1	1	p	1.2546
604.8981	0.0	+	63	verb	phrase	3	1	match	tard	5	1	y	0.7466800000000001
605.4481	0.2	cnjlfph	63	verb	phrase	3	2	match	tard	5	1	y	0.7466800000000001
605.6481	0.0	+	63	verb	phrase	3	3	match	tard	5	1	y	0.7466800000000001
606.0481	0.2	brtg	63	verb	phrase	3	4	match	tard	5	1	y	0.7466800000000001
606.2479999999999	0.0	+	63	verb	phrase	3	5	match	tard	5	1	y	0.7466800000000001
606.648	0.2	doit	63	verb	phrase	3	6	match	tard	5	1	y	0.7466800000000001
606.848	0.0	+	63	verb	phrase	3	7	match	tard	5	1	y	0.7466800000000001
607.2479	0.2	chasser	63	verb	phrase	3	8	match	tard	5	1	y	0.7466800000000001
607.4479	0.0	+	63	verb	phrase	3	9	match	tard	5	1	y	0.7466800000000001
607.8479	0.2	tard	63	verb	phrase	3	10	match	tard	5	1	y	0.7466800000000001
608.0479	0.0	+	63	verb	phrase	3	11	match	tard	5	1	y	0.7466800000000001
608.4478	0.0	+	63	verb	phrase	3	12	match	tard	5	1	y	0.7466800000000001
610.4476999999999	0.0	TARD	63	verb	phrase	3	13	match	tard	5	1	y	0.7466800000000001
611.2642999999999	0.0	+	63	verb	phrase	3	14	match	tard	5	1	y	0.7466800000000001
611.1943	0.0	[response]	63	verb	phrase	3	15	match	tard	5	1	y	0.7466800000000001
612.8475	0.0	+	64	noun	phrase	3	1	match	grand	4	1	y	0.69107
613.3974	0.2	zsrlfm	64	noun	phrase	3	2	match	grand	4	1	y	0.69107
613.5974	0.0	+	64	noun	phrase	3	3	match	grand	4	1	y	0.69107
613.9974	0.2	slvm	64	noun	phrase	3	4	match	grand	4	1	y	0.69107
614.1973	0.0	+	64	noun	phrase	3	5	match	grand	4	1	y	0.69107
614.5973	0.2	leur	64	noun	phrase	3	6	match	grand	4	1	y	0.69107
614.7973	0.0	+	64	noun	phrase	3	7	match	grand	4	1	y	0.69107
615.1973	0.2	grand	64	noun	phrase	3	8	match	grand	4	1	y	0.69107
615.3972	0.0	+	64	noun	phrase	3	9	match	grand	4	1	y	0.69107
615.7972	0.2	casier	64	noun	phrase	3	10	match	grand	4	1	y	0.69107
615.9972	0.0	+	64	noun	phrase	3	11	match	grand	4	1	y	0.69107
616.3972	0.0	+	64	noun	phrase	3	12	match	grand	4	1	y	0.69107
618.3969999999999	0.0	GRAND	64	noun	phrase	3	13	match	grand	4	1	y	0.69107
619.1469	0.0	+	64	noun	phrase	3	14	match	grand	4	1	y	0.69107
619.088	0.0	[response]	64	noun	phrase	3	15	match	grand	4	1	y	0.69107
620.7968	0.0	+	65	verb	list	1	1	match	voyager	5	1	y	0.55976
621.3466999999999	0.2	lhgx	65	verb	list	1	2	match	voyager	5	1	y	0.55976
621.5467	0.0	+	65	verb	list	1	3	match	voyager	5	1	y	0.55976
621.9467	0.2	jpqd	65	verb	list	1	4	match	voyager	5	1	y	0.55976
622.1466	0.0	+	65	verb	list	1	5	match	voyager	5	1	y	0.55976
622.5466	0.2	njsf	65	verb	list	1	6	match	voyager	5	1	y	0.55976
622.7466	0.0	+	65	verb	list	1	7	match	voyager	5	1	y	0.55976
623.1466	0.2	pwrbhks	65	verb	list	1	8	match	voyager	5	1	y	0.55976
623.3465	0.0	+	65	verb	list	1	9	match	voyager	5	1	y	0.55976
623.7465	0.2	voyager	65	verb	list	1	10	match	voyager	5	1	y	0.55976
623.9465	0.0	+	65	verb	list	1	11	match	voyager	5	1	y	0.55976
624.3465	0.0	+	65	verb	list	1	12	match	voyager	5	1	y	0.55976
626.3463	0.0	VOYAGER	65	verb	list	1	13	match	voyager	5	1	y	0.55976
626.9629	0.0	+	65	verb	list	1	14	match	voyager	5	1	y	0.55976
626.906	0.0	[response]	65	verb	list	1	15	match	voyager	5	1	y	0.55976
628.7461	0.0	+	66	noun	list	2	1	nomatch	sous	-1	1	p	0.9121100000000001
629.2959999999999	0.2	tjk	66	noun	list	2	2	nomatch	sous	-1	1	p	0.9121100000000001
629.496	0.0	+	66	noun	list	2	3	nomatch	sous	-1	1	p	0.9121100000000001
629.896	0.2	gjfq	66	noun	list	2	4	nomatch	sous	-1	1	p	0.9121100000000001
630.096	0.0	+	66	noun	list	2	5	nomatch	sous	-1	1	p	0.9121100000000001
630.4959	0.2	fml	66	noun	list	2	6	nomatch	sous	-1	1	p	0.9121100000000001
630.6958999999999	0.0	+	66	noun	list	2	7	nomatch	sous	-1	1	p	0.9121100000000001
631.0959	0.2	beaucoup	66	noun	list	2	8	nomatch	sous	-1	1	p	0.9121100000000001
631.2959	0.0	+	66	noun	list	2	9	nomatch	sous	-1	1	p	0.9121100000000001
631.6958	0.2	grenier	66	noun	list	2	10	nomatch	sous	-1	1	p	0.9121100000000001
631.8958	0.0	+	66	noun	list	2	11	nomatch	sous	-1	1	p	0.9121100000000001
632.2958	0.0	+	66	noun	list	2	12	nomatch	sous	-1	1	p	0.9121100000000001
634.2956	0.0	SOUS	66	noun	list	2	13	nomatch	sous	-1	1	p	0.9121100000000001
635.2622	0.0	+	66	noun	list	2	14	nomatch	sous	-1	1	p	0.9121100000000001
635.2077	0.0	[response]	66	noun	list	2	15	nomatch	sous	-1	1	p	0.9121100000000001
636.6954	0.0	+	67	verb	list	1	1	nomatch	bleu	-1	1	p	0.98911
637.2452999999999	0.2	kxhfm	67	verb	list	1	2	nomatch	bleu	-1	1	p	0.98911
637.4453	0.0	+	67	verb	list	1	3	nomatch	bleu	-1	1	p	0.98911
637.8453	0.2	ckl	67	verb	list	1	4	nomatch	bleu	-1	1	p	0.98911
638.0453	0.0	+	67	verb	list	1	5	nomatch	bleu	-1	1	p	0.98911
638.4452	0.2	njsf	67	verb	list	1	6	nomatch	bleu	-1	1	p	0.98911
638.6451999999999	0.0	+	67	verb	list	1	7	nomatch	bleu	-1	1	p	0.98911
639.0452	0.2	lhqmnzv	67	verb	list	1	8	nomatch	bleu	-1	1	p	0.98911
639.2452	0.0	+	67	verb	list	1	9	nomatch	bleu	-1	1	p	0.98911
639.6451	0.2	petit	67	verb	list	1	10	nomatch	bleu	-1	1	p	0.98911
639.8451	0.0	+	67	verb	list	1	11	nomatch	bleu	-1	1	p	0.98911
640.2451	0.0	+	67	verb	list	1	12	nomatch	bleu	-1	1	p	0.98911
642.2449	0.0	BLEU	67	verb	list	1	13	nomatch	bleu	-1	1	p	0.98911
643.2948	0.0	+	67	verb	list	1	14	nomatch	bleu	-1	1	p	0.98911
643.234	0.0	[response]	67	verb	list	1	15	nomatch	bleu	-1	1	p	0.98911
652.644	0.0	+	68	verb	phrase	4	1	match	mieux	4	1	y	0.83774
653.194	0.2	cjfgqb	68	verb	phrase	4	2	match	mieux	4	1	y	0.83774
653.3939	0.0	+	68	verb	phrase	4	3	match	mieux	4	1	y	0.83774
653.7939	0.2	jade	68	verb	phrase	4	4	match	mieux	4	1	y	0.83774
653.9938999999999	0.0	+	68	verb	phrase	4	5	match	mieux	4	1	y	0.83774
654.3937999999999	0.2	va	68	verb	phrase	4	6	match	mieux	4	1	y	0.83774
654.5938	0.0	+	68	verb	phrase	4	7	match	mieux	4	1	y	0.83774
654.9938	0.2	mieux	68	verb	phrase	4	8	match	mieux	4	1	y	0.83774
655.1938	0.0	+	68	verb	phrase	4	9	match	mieux	4	1	y	0.83774
655.5937	0.2	parader	68	verb	phrase	4	10	match	mieux	4	1	y	0.83774
655.7937	0.0	+	68	verb	phrase	4	11	match	mieux	4	1	y	0.83774
656.1937	0.0	+	68	verb	phrase	4	12	match	mieux	4	1	y	0.83774
658.1935	0.0	MIEUX	68	verb	phrase	4	13	match	mieux	4	1	y	0.83774
659.0934	0.0	+	68	verb	phrase	4	14	match	mieux	4	1	y	0.83774
659.0313	0.0	[response]	68	verb	phrase	4	15	match	mieux	4	1	y	0.83774
660.5933	0.0	+	69	verb	phrase	1	1	nomatch	grand	-1	1	p	1.0027
661.1433	0.2	gkrwdsp	69	verb	phrase	1	2	nomatch	grand	-1	1	p	1.0027
661.3432	0.0	+	69	verb	phrase	1	3	nomatch	grand	-1	1	p	1.0027
661.7432	0.2	zmbq	69	verb	phrase	1	4	nomatch	grand	-1	1	p	1.0027
661.9431999999999	0.0	+	69	verb	phrase	1	5	nomatch	grand	-1	1	p	1.0027
662.3432	0.2	njsf	69	verb	phrase	1	6	nomatch	grand	-1	1	p	1.0027
662.5431	0.0	+	69	verb	phrase	1	7	nomatch	grand	-1	1	p	1.0027
662.9431	0.2	kgvfblm	69	verb	phrase	1	8	nomatch	grand	-1	1	p	1.0027
663.1431	0.0	+	69	verb	phrase	1	9	nomatch	grand	-1	1	p	1.0027
663.5431	0.2	plus	69	verb	phrase	1	10	nomatch	grand	-1	1	p	1.0027
663.7429999999999	0.0	+	69	verb	phrase	1	11	nomatch	grand	-1	1	p	1.0027
664.143	0.0	+	69	verb	phrase	1	12	nomatch	grand	-1	1	p	1.0027
666.1428	0.0	GRAND	69	verb	phrase	1	13	nomatch	grand	-1	1	p	1.0027
667.2094	0.0	+	69	verb	phrase	1	14	nomatch	grand	-1	1	p	1.0027
667.1456	0.0	[response]	69	verb	phrase	1	15	nomatch	grand	-1	1	p	1.0027
668.5426	0.0	+	70	verb	phrase	4	1	nomatch	paul	-1	1	p	1.1191
669.0926	0.2	hzrdslm	70	verb	phrase	4	2	nomatch	paul	-1	1	p	1.1191
669.2925	0.0	+	70	verb	phrase	4	3	nomatch	paul	-1	1	p	1.1191
669.6925	0.2	jade	70	verb	phrase	4	4	nomatch	paul	-1	1	p	1.1191
669.8925	0.0	+	70	verb	phrase	4	5	nomatch	paul	-1	1	p	1.1191
670.2925	0.2	va	70	verb	phrase	4	6	nomatch	paul	-1	1	p	1.1191
670.4924	0.0	+	70	verb	phrase	4	7	nomatch	paul	-1	1	p	1.1191
670.8924	0.2	galoper	70	verb	phrase	4	8	nomatch	paul	-1	1	p	1.1191
671.0924	0.0	+	70	verb	phrase	4	9	nomatch	paul	-1	1	p	1.1191
671.4924	0.2	loin	70	verb	phrase	4	10	nomatch	paul	-1	1	p	1.1191
671.6922999999999	0.0	+	70	verb	phrase	4	11	nomatch	paul	-1	1	p	1.1191
672.0923	0.0	+	70	verb	phrase	4	12	nomatch	paul	-1	1	p	1.1191
674.0921	0.0	PAUL	70	verb	phrase	4	13	nomatch	paul	-1	1	p	1.1191
675.2754	0.0	+	70	verb	phrase	4	14	nomatch	paul	-1	1	p	1.1191
675.2112	0.0	[response]	70	verb	phrase	4	15	nomatch	paul	-1	1	p	1.1191
676.4919	0.0	+	71	noun	phrase	2	1	nomatch	trop	-1	1	p	0.82358
677.0418999999999	0.2	sftn	71	noun	phrase	2	2	nomatch	trop	-1	1	p	0.82358
677.2419	0.0	+	71	noun	phrase	2	3	nomatch	trop	-1	1	p	0.82358
677.6418	0.2	slvm	71	noun	phrase	2	4	nomatch	trop	-1	1	p	0.82358
677.8418	0.0	+	71	noun	phrase	2	5	nomatch	trop	-1	1	p	0.82358
678.2418	0.2	blzh	71	noun	phrase	2	6	nomatch	trop	-1	1	p	0.82358
678.4418	0.0	+	71	noun	phrase	2	7	nomatch	trop	-1	1	p	0.82358
678.8417	0.2	beau	71	noun	phrase	2	8	nomatch	trop	-1	1	p	0.82358
679.0417	0.0	+	71	noun	phrase	2	9	nomatch	trop	-1	1	p	0.82358
679.4417	0.2	panier	71	noun	phrase	2	10	nomatch	trop	-1	1	p	0.82358
679.6417	0.0	+	71	noun	phrase	2	11	nomatch	trop	-1	1	p	0.82358
680.0416	0.0	+	71	noun	phrase	2	12	nomatch	trop	-1	1	p	0.82358
682.0414	0.0	TROP	71	noun	phrase	2	13	nomatch	trop	-1	1	p	0.82358
682.9247	0.0	+	71	noun	phrase	2	14	nomatch	trop	-1	1	p	0.82358
682.865	0.0	[response]	71	noun	phrase	2	15	nomatch	trop	-1	1	p	0.82358
684.4412	0.0	+	72	verb	list	1	1	match	bleu	5	1	y	0.81202
684.9911999999999	0.2	pgnx	72	verb	list	1	2	match	bleu	5	1	y	0.81202
685.1912	0.0	+	72	verb	list	1	3	match	bleu	5	1	y	0.81202
685.5911	0.2	zmbq	72	verb	list	1	4	match	bleu	5	1	y	0.81202
685.7911	0.0	+	72	verb	list	1	5	match	bleu	5	1	y	0.81202
686.1911	0.2	fml	72	verb	list	1	6	match	bleu	5	1	y	0.81202
686.3910999999999	0.0	+	72	verb	list	1	7	match	bleu	5	1	y	0.81202
686.7909999999999	0.2	vqrhldg	72	verb	list	1	8	match	bleu	5	1	y	0.81202
686.991	0.0	+	72	verb	list	1	9	match	bleu	5	1	y	0.81202
687.391	0.2	bleu	72	verb	list	1	10	match	bleu	5	1	y	0.81202
687.591	0.0	+	72	verb	list	1	11	match	bleu	5	1	y	0.81202
687.9909	0.0	+	72	verb	list	1	12	match	bleu	5	1	y	0.81202
689.9908	0.0	BLEU	72	verb	list	1	13	match	bleu	5	1	y	0.81202
690.8573	0.0	+	72	verb	list	1	14	match	bleu	5	1	y	0.81202
690.8027999999999	0.0	[response]	72	verb	list	1	15	match	bleu	5	1	y	0.81202
692.3905	0.0	+	73	verb	list	4	1	match	dans	2	1	y	0.99627
692.9404999999999	0.2	tfbnzjl	73	verb	list	4	2	match	dans	2	1	y	0.99627
693.1405	0.0	+	73	verb	list	4	3	match	dans	2	1	y	0.99627
693.5404	0.2	dans	73	verb	list	4	4	match	dans	2	1	y	0.99627
693.7404	0.0	+	73	verb	list	4	5	match	dans	2	1	y	0.99627
694.1404	0.2	va	73	verb	list	4	6	match	dans	2	1	y	0.99627
694.3403999999999	0.0	+	73	verb	list	4	7	match	dans	2	1	y	0.99627
694.7402999999999	0.2	petit	73	verb	list	4	8	match	dans	2	1	y	0.99627
694.9403	0.0	+	73	verb	list	4	9	match	dans	2	1	y	0.99627
695.3403	0.2	galoper	73	verb	list	4	10	match	dans	2	1	y	0.99627
695.5403	0.0	+	73	verb	list	4	11	match	dans	2	1	y	0.99627
695.9402	0.0	+	73	verb	list	4	12	match	dans	2	1	y	0.99627
697.9401	0.0	DANS	73	verb	list	4	13	match	dans	2	1	y	0.99627
699.0065999999999	0.0	+	73	verb	list	4	14	match	dans	2	1	y	0.99627
698.9363	0.0	[response]	73	verb	list	4	15	match	dans	2	1	y	0.99627
700.3398	0.0	+	74	verb	phrase	1	1	match	voyager	5	1	y	0.79908
700.8898	0.2	zxlt	74	verb	phrase	1	2	match	voyager	5	1	y	0.79908
701.0898	0.0	+	74	verb	phrase	1	3	match	voyager	5	1	y	0.79908
701.4897	0.2	pnsd	74	verb	phrase	1	4	match	voyager	5	1	y	0.79908
701.6897	0.0	+	74	verb	phrase	1	5	match	voyager	5	1	y	0.79908
702.0897	0.2	njsf	74	verb	phrase	1	6	match	voyager	5	1	y	0.79908
702.2897	0.0	+	74	verb	phrase	1	7	match	voyager	5	1	y	0.79908
702.6896	0.2	tbjvknlh	74	verb	phrase	1	8	match	voyager	5	1	y	0.79908
702.8896	0.0	+	74	verb	phrase	1	9	match	voyager	5	1	y	0.79908
703.2896	0.2	voyager	74	verb	phrase	1	10	match	voyager	5	1	y	0.79908
703.4896	0.0	+	74	verb	phrase	1	11	match	voyager	5	1	y	0.79908
703.8895	0.0	+	74	verb	phrase	1	12	match	voyager	5	1	y	0.79908
705.8894	0.0	VOYAGER	74	verb	phrase	1	13	match	voyager	5	1	y	0.79908
706.7559	0.0	+	74	verb	phrase	1	14	match	voyager	5	1	y	0.79908
706.6885000000001	0.0	[response]	74	verb	phrase	1	15	match	voyager	5	1	y	0.79908
708.2891999999999	0.0	+	75	verb	list	3	1	nomatch	parader	-1	1	p	0.7458600000000001
708.8391	0.2	gsmbj	75	verb	list	3	2	nomatch	parader	-1	1	p	0.7458600000000001
709.0391	0.0	+	75	verb	list	3	3	nomatch	parader	-1	1	p	0.7458600000000001
709.4390999999999	0.2	zmbq	75	verb	list	3	4	nomatch	parader	-1	1	p	0.7458600000000001
709.639	0.0	+	75	verb	list	3	5	nomatch	parader	-1	1	p	0.7458600000000001
710.039	0.2	mon	75	verb	list	3	6	nomatch	parader	-1	1	p	0.7458600000000001
710.239	0.0	+	75	verb	list	3	7	nomatch	parader	-1	1	p	0.7458600000000001
710.639	0.2	plonger	75	verb	list	3	8	nomatch	parader	-1	1	p	0.7458600000000001
710.8389	0.0	+	75	verb	list	3	9	nomatch	parader	-1	1	p	0.7458600000000001
711.2389	0.2	blanc	75	verb	list	3	10	nomatch	parader	-1	1	p	0.7458600000000001
711.4389	0.0	+	75	verb	list	3	11	nomatch	parader	-1	1	p	0.7458600000000001
711.8388	0.0	+	75	verb	list	3	12	nomatch	parader	-1	1	p	0.7458600000000001
713.8387	0.0	PARADER	75	verb	list	3	13	nomatch	parader	-1	1	p	0.7458600000000001
714.6386	0.0	+	75	verb	list	3	14	nomatch	parader	-1	1	p	0.7458600000000001
714.5844999999999	0.0	[response]	75	verb	list	3	15	nomatch	parader	-1	1	p	0.7458600000000001
716.2384999999999	0.0	+	76	verb	phrase	1	1	nomatch	tablier	-1	1	p	0.93044
716.7884	0.2	dvg	76	verb	phrase	1	2	nomatch	tablier	-1	1	p	0.93044
716.9884	0.0	+	76	verb	phrase	1	3	nomatch	tablier	-1	1	p	0.93044
717.3883999999999	0.2	xhvf	76	verb	phrase	1	4	nomatch	tablier	-1	1	p	0.93044
717.5883	0.0	+	76	verb	phrase	1	5	nomatch	tablier	-1	1	p	0.93044
717.9883	0.2	smjp	76	verb	phrase	1	6	nomatch	tablier	-1	1	p	0.93044
718.1883	0.0	+	76	verb	phrase	1	7	nomatch	tablier	-1	1	p	0.93044
718.5883	0.2	tlrj	76	verb	phrase	1	8	nomatch	tablier	-1	1	p	0.93044
718.7882	0.0	+	76	verb	phrase	1	9	nomatch	tablier	-1	1	p	0.93044
719.1881999999999	0.2	voyager	76	verb	phrase	1	10	nomatch	tablier	-1	1	p	0.93044
719.3882	0.0	+	76	verb	phrase	1	11	nomatch	tablier	-1	1	p	0.93044
719.7882	0.0	+	76	verb	phrase	1	12	nomatch	tablier	-1	1	p	0.93044
721.788	0.0	TABLIER	76	verb	phrase	1	13	nomatch	tablier	-1	1	p	0.93044
722.7879	0.0	+	76	verb	phrase	1	14	nomatch	tablier	-1	1	p	0.93044
722.7184	0.0	[response]	76	verb	phrase	1	15	nomatch	tablier	-1	1	p	0.93044
732.1871	0.0	+	77	noun	list	3	1	match	loin	5	1	y	0.68516
732.737	0.2	wqkfc	77	noun	list	3	2	match	loin	5	1	y	0.68516
732.937	0.0	+	77	noun	list	3	3	match	loin	5	1	y	0.68516
733.337	0.2	klgc	77	noun	list	3	4	match	loin	5	1	y	0.68516
733.537	0.0	+	77	noun	list	3	5	match	loin	5	1	y	0.68516
733.9369	0.2	peut	77	noun	list	3	6	match	loin	5	1	y	0.68516
734.1369	0.0	+	77	noun	list	3	7	match	loin	5	1	y	0.68516
734.5369	0.2	casier	77	noun	list	3	8	match	loin	5	1	y	0.68516
734.7369	0.0	+	77	noun	list	3	9	match	loin	5	1	y	0.68516
735.1368	0.2	loin	77	noun	list	3	10	match	loin	5	1	y	0.68516
735.3368	0.0	+	77	noun	list	3	11	match	loin	5	1	y	0.68516
735.7368	0.0	+	77	noun	list	3	12	match	loin	5	1	y	0.68516
737.7366	0.0	LOIN	77	noun	list	3	13	match	loin	5	1	y	0.68516
738.4865	0.0	+	77	noun	list	3	14	match	loin	5	1	y	0.68516
738.4218	0.0	[response]	77	noun	list	3	15	match	loin	5	1	y	0.68516
740.1364	0.0	+	78	verb	list	4	1	match	bleu	5	1	y	0.57593
740.6863	0.2	txsgk	78	verb	list	4	2	match	bleu	5	1	y	0.57593
740.8863	0.0	+	78	verb	list	4	3	match	bleu	5	1	y	0.57593
741.2863	0.2	jade	78	verb	list	4	4	match	bleu	5	1	y	0.57593
741.4863	0.0	+	78	verb	list	4	5	match	bleu	5	1	y	0.57593
741.8862	0.2	leur	78	verb	list	4	6	match	bleu	5	1	y	0.57593
742.0862	0.0	+	78	verb	list	4	7	match	bleu	5	1	y	0.57593
742.4861999999999	0.2	jongler	78	verb	list	4	8	match	bleu	5	1	y	0.57593
742.6862	0.0	+	78	verb	list	4	9	match	bleu	5	1	y	0.57593
743.0861	0.2	bleu	78	verb	list	4	10	match	bleu	5	1	y	0.57593
743.2861	0.0	+	78	verb	list	4	11	match	bleu	5	1	y	0.57593
743.6861	0.0	+	78	verb	list	4	12	match	bleu	5	1	y	0.57593
745.6859	0.0	BLEU	78	verb	list	4	13	match	bleu	5	1	y	0.57593
746.3192	0.0	+	78	verb	list	4	14	match	bleu	5	1	y	0.57593
746.2618	0.0	[response]	78	verb	list	4	15	match	bleu	5	1	y	0.57593
748.0857	0.0	+	79	verb	list	4	1	match	parader	5	1	y	1.1645
748.6356	0.2	mln	79	verb	list	4	2	match	parader	5	1	y	1.1645
748.8356	0.0	+	79	verb	list	4	3	match	parader	5	1	y	1.1645
749.2356	0.2	vers	79	verb	list	4	4	match	parader	5	1	y	1.1645
749.4356	0.0	+	79	verb	list	4	5	match	parader	5	1	y	1.1645
749.8355	0.2	doit	79	verb	list	4	6	match	parader	5	1	y	1.1645
750.0355	0.0	+	79	verb	list	4	7	match	parader	5	1	y	1.1645
750.4354999999999	0.2	beau	79	verb	list	4	8	match	parader	5	1	y	1.1645
750.6355	0.0	+	79	verb	list	4	9	match	parader	5	1	y	1.1645
751.0354	0.2	parader	79	verb	list	4	10	match	parader	5	1	y	1.1645
751.2354	0.0	+	79	verb	list	4	11	match	parader	5	1	y	1.1645
751.6354	0.0	+	79	verb	list	4	12	match	parader	5	1	y	1.1645
753.6351999999999	0.0	PARADER	79	verb	list	4	13	match	parader	5	1	y	1.1645
754.8684	0.0	+	79	verb	list	4	14	match	parader	5	1	y	1.1645
754.7997	0.0	[response]	79	verb	list	4	15	match	parader	5	1	y	1.1645
756.035	0.0	+	80	verb	phrase	1	1	match	plonger	5	1	y	0.53412
756.585	0.2	wmb	80	verb	phrase	1	2	match	plonger	5	1	y	0.53412
756.7849	0.0	+	80	verb	phrase	1	3	match	plonger	5	1	y	0.53412
757.1849	0.2	brtg	80	verb	phrase	1	4	match	plonger	5	1	y	0.53412
757.3849	0.0	+	80	verb	phrase	1	5	match	plonger	5	1	y	0.53412
757.7849	0.2	vp	80	verb	phrase	1	6	match	plonger	5	1	y	0.53412
757.9848	0.0	+	80	verb	phrase	1	7	match	plonger	5	1	y	0.53412
758.3848	0.2	qkcx	80	verb	phrase	1	8	match	plonger	5	1	y	0.53412
758.5848	0.0	+	80	verb	phrase	1	9	match	plonger	5	1	y	0.53412
758.9848	0.2	plonger	80	verb	phrase	1	10	match	plonger	5	1	y	0.53412
759.1848	0.0	+	80	verb	phrase	1	11	match	plonger	5	1	y	0.53412
759.6014	0.0	+	80	verb	phrase	1	12	match	plonger	5	1	y	0.53412
761.6012	0.0	PLONGER	80	verb	phrase	1	13	match	plonger	5	1	y	0.53412
762.2011	0.0	+	80	verb	phrase	1	14	match	plonger	5	1	y	0.53412
764.001	0.0	+	80	verb	phrase	1	15	match	plonger	5	1	y	0.53412
765.0175	0.0	+	80	verb	phrase	1	16	match	plonger	5	1	y	0.53412
765.1175	0.0	+	80	verb	phrase	1	17	match	plonger	5	1	y	0.53412
766.5174	0.0	+	80	verb	phrase	1	18	match	plonger	5	1	y	0.53412
766.6174	0.0	+	80	verb	phrase	1	19	match	plonger	5	1	y	0.53412
768.0173	0.0	+	80	verb	phrase	1	20	match	plonger	5	1	y	0.53412
768.1173	0.0	+	80	verb	phrase	1	21	match	plonger	5	1	y	0.53412
769.5172	0.0	+	80	verb	phrase	1	22	match	plonger	5	1	y	0.53412
769.6172	0.0	+	80	verb	phrase	1	23	match	plonger	5	1	y	0.53412
771.0169999999999	0.0	+	80	verb	phrase	1	24	match	plonger	5	1	y	0.53412
771.117	0.0	+	80	verb	phrase	1	25	match	plonger	5	1	y	0.53412
772.5169	0.0	+	80	verb	phrase	1	26	match	plonger	5	1	y	0.53412
772.6169	0.0	+	80	verb	phrase	1	27	match	plonger	5	1	y	0.53412
774.0168	0.0	+	80	verb	phrase	1	28	match	plonger	5	1	y	0.53412
774.1168	0.0	+	80	verb	phrase	1	29	match	plonger	5	1	y	0.53412
775.5166	0.0	+	80	verb	phrase	1	30	match	plonger	5	1	y	0.53412
775.6166	0.0	+	80	verb	phrase	1	31	match	plonger	5	1	y	0.53412
777.0165	0.0	+	80	verb	phrase	1	32	match	plonger	5	1	y	0.53412
777.1165	0.0	+	80	verb	phrase	1	33	match	plonger	5	1	y	0.53412
778.5164	0.0	+	80	verb	phrase	1	34	match	plonger	5	1	y	0.53412
778.6164	0.0	+	80	verb	phrase	1	35	match	plonger	5	1	y	0.53412
787.2989	0.0	+	80	verb	phrase	1	36	match	plonger	5	1	y	0.53412
762.1353000000001	0.0	[response]	80	verb	phrase	1	37	match	plonger	5	1	y	0.53412
