onset	duration	stim	trial_number	trial_type	trial_structure	trial_length	sequential_position	probe_type	probe	probe_position	response_correct	response_key	response_time
0.06519999999999015	0.0	+	1	noun	phrase	4	1	nomatch	yves	-1	1	p	0.91974
0.54849999999999	0.2	mskzc	1	noun	phrase	4	2	nomatch	yves	-1	1	p	0.91974
0.7484999999999928	0.0	+	1	noun	phrase	4	3	nomatch	yves	-1	1	p	0.91974
1.1483999999999952	0.2	dans	1	noun	phrase	4	4	nomatch	yves	-1	1	p	0.91974
1.348399999999998	0.0	+	1	noun	phrase	4	5	nomatch	yves	-1	1	p	0.91974
1.7483999999999895	0.2	son	1	noun	phrase	4	6	nomatch	yves	-1	1	p	0.91974
1.948299999999989	0.0	+	1	noun	phrase	4	7	nomatch	yves	-1	1	p	0.91974
2.3482999999999947	0.2	boîtier	1	noun	phrase	4	8	nomatch	yves	-1	1	p	0.91974
2.5482999999999976	0.0	+	1	noun	phrase	4	9	nomatch	yves	-1	1	p	0.91974
2.948299999999989	0.2	vert	1	noun	phrase	4	10	nomatch	yves	-1	1	p	0.91974
3.1481999999999886	0.0	+	1	noun	phrase	4	11	nomatch	yves	-1	1	p	0.91974
3.5481999999999942	0.0	+	1	noun	phrase	4	12	nomatch	yves	-1	1	p	0.91974
5.548000000000002	0.0	YVES	1	noun	phrase	4	13	nomatch	yves	-1	1	p	0.91974
6.531300000000002	0.0	+	1	noun	phrase	4	14	nomatch	yves	-1	1	p	0.91974
6.467800000000011	0.0	[response]	1	noun	phrase	4	15	nomatch	yves	-1	1	p	0.91974
7.947800000000001	0.0	+	2	noun	list	1	1	match	tard	5	1	y	0.5463
8.497799999999998	0.2	lszcqpt	2	noun	list	1	2	match	tard	5	1	y	0.5463
8.6978	0.0	+	2	noun	list	1	3	match	tard	5	1	y	0.5463
9.097699999999989	0.2	klgc	2	noun	list	1	4	match	tard	5	1	y	0.5463
9.297699999999992	0.0	+	2	noun	list	1	5	match	tard	5	1	y	0.5463
9.697699999999998	0.2	smjp	2	noun	list	1	6	match	tard	5	1	y	0.5463
9.8977	0.0	+	2	noun	list	1	7	match	tard	5	1	y	0.5463
10.297599999999989	0.2	vmfplhs	2	noun	list	1	8	match	tard	5	1	y	0.5463
10.497599999999991	0.0	+	2	noun	list	1	9	match	tard	5	1	y	0.5463
10.897599999999997	0.2	tard	2	noun	list	1	10	match	tard	5	1	y	0.5463
11.0976	0.0	+	2	noun	list	1	11	match	tard	5	1	y	0.5463
11.497499999999988	0.0	+	2	noun	list	1	12	match	tard	5	1	y	0.5463
13.497299999999996	0.0	TARD	2	noun	list	1	13	match	tard	5	1	y	0.5463
14.113900000000001	0.0	+	2	noun	list	1	14	match	tard	5	1	y	0.5463
14.043599999999998	0.0	[response]	2	noun	list	1	15	match	tard	5	1	y	0.5463
15.897099999999995	0.0	+	3	verb	list	3	1	nomatch	adam	-1	1	p	0.80891
16.447100000000006	0.2	nvfbwcl	3	verb	list	3	2	nomatch	adam	-1	1	p	0.80891
16.647099999999995	0.0	+	3	verb	list	3	3	nomatch	adam	-1	1	p	0.80891
17.046999999999997	0.2	pnsd	3	verb	list	3	4	nomatch	adam	-1	1	p	0.80891
17.246999999999986	0.0	+	3	verb	list	3	5	nomatch	adam	-1	1	p	0.80891
17.64699999999999	0.2	leur	3	verb	list	3	6	nomatch	adam	-1	1	p	0.80891
17.84700000000001	0.0	+	3	verb	list	3	7	nomatch	adam	-1	1	p	0.80891
18.246899999999982	0.2	galoper	3	verb	list	3	8	nomatch	adam	-1	1	p	0.80891
18.4469	0.0	+	3	verb	list	3	9	nomatch	adam	-1	1	p	0.80891
18.846900000000005	0.2	noir	3	verb	list	3	10	nomatch	adam	-1	1	p	0.80891
19.046899999999994	0.0	+	3	verb	list	3	11	nomatch	adam	-1	1	p	0.80891
19.446799999999996	0.0	+	3	verb	list	3	12	nomatch	adam	-1	1	p	0.80891
21.44659999999999	0.0	ADAM	3	verb	list	3	13	nomatch	adam	-1	1	p	0.80891
22.313199999999995	0.0	+	3	verb	list	3	14	nomatch	adam	-1	1	p	0.80891
22.255599999999987	0.0	[response]	3	verb	list	3	15	nomatch	adam	-1	1	p	0.80891
23.84639999999999	0.0	+	4	noun	list	1	1	nomatch	grenier	-1	1	p	0.7653200000000001
24.3964	0.2	mxfvq	4	noun	list	1	2	nomatch	grenier	-1	1	p	0.7653200000000001
24.59639999999999	0.0	+	4	noun	list	1	3	nomatch	grenier	-1	1	p	0.7653200000000001
24.99629999999999	0.2	slvm	4	noun	list	1	4	nomatch	grenier	-1	1	p	0.7653200000000001
25.196300000000008	0.0	+	4	noun	list	1	5	nomatch	grenier	-1	1	p	0.7653200000000001
25.596299999999985	0.2	vp	4	noun	list	1	6	nomatch	grenier	-1	1	p	0.7653200000000001
25.796300000000002	0.0	+	4	noun	list	1	7	nomatch	grenier	-1	1	p	0.7653200000000001
26.196200000000005	0.2	qkcx	4	noun	list	1	8	nomatch	grenier	-1	1	p	0.7653200000000001
26.396199999999993	0.0	+	4	noun	list	1	9	nomatch	grenier	-1	1	p	0.7653200000000001
26.7962	0.2	voilier	4	noun	list	1	10	nomatch	grenier	-1	1	p	0.7653200000000001
26.996199999999988	0.0	+	4	noun	list	1	11	nomatch	grenier	-1	1	p	0.7653200000000001
27.39609999999999	0.0	+	4	noun	list	1	12	nomatch	grenier	-1	1	p	0.7653200000000001
29.395999999999987	0.0	GRENIER	4	noun	list	1	13	nomatch	grenier	-1	1	p	0.7653200000000001
30.22919999999999	0.0	+	4	noun	list	1	14	nomatch	grenier	-1	1	p	0.7653200000000001
30.161299999999983	0.0	[response]	4	noun	list	1	15	nomatch	grenier	-1	1	p	0.7653200000000001
31.795799999999986	0.0	+	5	noun	phrase	1	1	nomatch	beau	-1	1	p	0.67598
32.345699999999994	0.2	zqhxrd	5	noun	phrase	1	2	nomatch	beau	-1	1	p	0.67598
32.54569999999998	0.0	+	5	noun	phrase	1	3	nomatch	beau	-1	1	p	0.67598
32.94569999999999	0.2	ckl	5	noun	phrase	1	4	nomatch	beau	-1	1	p	0.67598
33.1456	0.0	+	5	noun	phrase	1	5	nomatch	beau	-1	1	p	0.67598
33.54560000000001	0.2	fml	5	noun	phrase	1	6	nomatch	beau	-1	1	p	0.67598
33.745599999999996	0.0	+	5	noun	phrase	1	7	nomatch	beau	-1	1	p	0.67598
34.1455	0.2	rwmkscb	5	noun	phrase	1	8	nomatch	beau	-1	1	p	0.67598
34.34549999999999	0.0	+	5	noun	phrase	1	9	nomatch	beau	-1	1	p	0.67598
34.74549999999999	0.2	noir	5	noun	phrase	1	10	nomatch	beau	-1	1	p	0.67598
34.94549999999998	0.0	+	5	noun	phrase	1	11	nomatch	beau	-1	1	p	0.67598
35.345399999999984	0.0	+	5	noun	phrase	1	12	nomatch	beau	-1	1	p	0.67598
37.34530000000001	0.0	BEAU	5	noun	phrase	1	13	nomatch	beau	-1	1	p	0.67598
38.07849999999999	0.0	+	5	noun	phrase	1	14	nomatch	beau	-1	1	p	0.67598
38.02119999999999	0.0	[response]	5	noun	phrase	1	15	nomatch	beau	-1	1	p	0.67598
39.74510000000001	0.0	+	6	verb	list	1	1	nomatch	rouge	-1	1	p	0.72656
40.29499999999999	0.2	vkbj	6	verb	list	1	2	nomatch	rouge	-1	1	p	0.72656
40.495000000000005	0.0	+	6	verb	list	1	3	nomatch	rouge	-1	1	p	0.72656
40.89499999999998	0.2	gjfq	6	verb	list	1	4	nomatch	rouge	-1	1	p	0.72656
41.094899999999996	0.0	+	6	verb	list	1	5	nomatch	rouge	-1	1	p	0.72656
41.4949	0.2	tvw	6	verb	list	1	6	nomatch	rouge	-1	1	p	0.72656
41.69489999999999	0.0	+	6	verb	list	1	7	nomatch	rouge	-1	1	p	0.72656
42.094899999999996	0.2	pvhtxrz	6	verb	list	1	8	nomatch	rouge	-1	1	p	0.72656
42.2954	0.0	+	6	verb	list	1	9	nomatch	rouge	-1	1	p	0.72656
42.69479999999999	0.2	blanc	6	verb	list	1	10	nomatch	rouge	-1	1	p	0.72656
42.894800000000004	0.0	+	6	verb	list	1	11	nomatch	rouge	-1	1	p	0.72656
43.29479999999998	0.0	+	6	verb	list	1	12	nomatch	rouge	-1	1	p	0.72656
45.2946	0.0	ROUGE	6	verb	list	1	13	nomatch	rouge	-1	1	p	0.72656
46.077799999999996	0.0	+	6	verb	list	1	14	nomatch	rouge	-1	1	p	0.72656
46.02109999999999	0.0	[response]	6	verb	list	1	15	nomatch	rouge	-1	1	p	0.72656
47.6944	0.0	+	7	noun	phrase	3	1	match	mon	3	1	y	0.8427900000000002
48.24429999999998	0.2	hpwb	7	noun	phrase	3	2	match	mon	3	1	y	0.8427900000000002
48.4443	0.0	+	7	noun	phrase	3	3	match	mon	3	1	y	0.8427900000000002
48.844300000000004	0.2	fnlw	7	noun	phrase	3	4	match	mon	3	1	y	0.8427900000000002
49.04429999999999	0.0	+	7	noun	phrase	3	5	match	mon	3	1	y	0.8427900000000002
49.444199999999995	0.2	mon	7	noun	phrase	3	6	match	mon	3	1	y	0.8427900000000002
49.644199999999984	0.0	+	7	noun	phrase	3	7	match	mon	3	1	y	0.8427900000000002
50.04419999999999	0.2	casier	7	noun	phrase	3	8	match	mon	3	1	y	0.8427900000000002
50.2441	0.0	+	7	noun	phrase	3	9	match	mon	3	1	y	0.8427900000000002
50.64410000000001	0.2	noir	7	noun	phrase	3	10	match	mon	3	1	y	0.8427900000000002
50.8441	0.0	+	7	noun	phrase	3	11	match	mon	3	1	y	0.8427900000000002
51.2441	0.0	+	7	noun	phrase	3	12	match	mon	3	1	y	0.8427900000000002
53.2439	0.0	MON	7	noun	phrase	3	13	match	mon	3	1	y	0.8427900000000002
54.1438	0.0	+	7	noun	phrase	3	14	match	mon	3	1	y	0.8427900000000002
54.08670000000001	0.0	[response]	7	noun	phrase	3	15	match	mon	3	1	y	0.8427900000000002
55.643699999999995	0.0	+	8	verb	phrase	4	1	nomatch	petit	-1	1	p	0.72573
56.1936	0.2	ncfjvmz	8	verb	phrase	4	2	nomatch	petit	-1	1	p	0.72573
56.39359999999999	0.0	+	8	verb	phrase	4	3	nomatch	petit	-1	1	p	0.72573
56.7936	0.2	yves	8	verb	phrase	4	4	nomatch	petit	-1	1	p	0.72573
56.99359999999999	0.0	+	8	verb	phrase	4	5	nomatch	petit	-1	1	p	0.72573
57.39349999999999	0.2	va	8	verb	phrase	4	6	nomatch	petit	-1	1	p	0.72573
57.593500000000006	0.0	+	8	verb	phrase	4	7	nomatch	petit	-1	1	p	0.72573
57.99349999999998	0.2	moins	8	verb	phrase	4	8	nomatch	petit	-1	1	p	0.72573
58.1935	0.0	+	8	verb	phrase	4	9	nomatch	petit	-1	1	p	0.72573
58.5934	0.2	rouler	8	verb	phrase	4	10	nomatch	petit	-1	1	p	0.72573
58.79339999999999	0.0	+	8	verb	phrase	4	11	nomatch	petit	-1	1	p	0.72573
59.1934	0.0	+	8	verb	phrase	4	12	nomatch	petit	-1	1	p	0.72573
61.19319999999999	0.0	PETIT	8	verb	phrase	4	13	nomatch	petit	-1	1	p	0.72573
61.97649999999999	0.0	+	8	verb	phrase	4	14	nomatch	petit	-1	1	p	0.72573
61.91890000000001	0.0	[response]	8	verb	phrase	4	15	nomatch	petit	-1	1	p	0.72573
63.59299999999999	0.0	+	9	noun	phrase	1	1	nomatch	plus	-1	1	p	0.83624
64.1429	0.2	bls	9	noun	phrase	1	2	nomatch	plus	-1	1	p	0.83624
64.34289999999999	0.0	+	9	noun	phrase	1	3	nomatch	plus	-1	1	p	0.83624
64.74289999999999	0.2	ckl	9	noun	phrase	1	4	nomatch	plus	-1	1	p	0.83624
64.94290000000001	0.0	+	9	noun	phrase	1	5	nomatch	plus	-1	1	p	0.83624
65.34279999999998	0.2	blzh	9	noun	phrase	1	6	nomatch	plus	-1	1	p	0.83624
65.5428	0.0	+	9	noun	phrase	1	7	nomatch	plus	-1	1	p	0.83624
65.9428	0.2	pskzcdh	9	noun	phrase	1	8	nomatch	plus	-1	1	p	0.83624
66.1428	0.0	+	9	noun	phrase	1	9	nomatch	plus	-1	1	p	0.83624
66.5427	0.2	grand	9	noun	phrase	1	10	nomatch	plus	-1	1	p	0.83624
66.74269999999999	0.0	+	9	noun	phrase	1	11	nomatch	plus	-1	1	p	0.83624
67.14269999999999	0.0	+	9	noun	phrase	1	12	nomatch	plus	-1	1	p	0.83624
69.14249999999998	0.0	PLUS	9	noun	phrase	1	13	nomatch	plus	-1	1	p	0.83624
70.04239999999999	0.0	+	9	noun	phrase	1	14	nomatch	plus	-1	1	p	0.83624
69.9787	0.0	[response]	9	noun	phrase	1	15	nomatch	plus	-1	1	p	0.83624
79.54159999999999	0.0	+	10	noun	phrase	4	1	match	rouge	5	1	y	0.7030000000000001
80.0916	0.2	cwt	10	noun	phrase	4	2	match	rouge	5	1	y	0.7030000000000001
80.29149999999998	0.0	+	10	noun	phrase	4	3	match	rouge	5	1	y	0.7030000000000001
80.69149999999999	0.2	sans	10	noun	phrase	4	4	match	rouge	5	1	y	0.7030000000000001
80.89150000000001	0.0	+	10	noun	phrase	4	5	match	rouge	5	1	y	0.7030000000000001
81.29149999999998	0.2	leur	10	noun	phrase	4	6	match	rouge	5	1	y	0.7030000000000001
81.4914	0.0	+	10	noun	phrase	4	7	match	rouge	5	1	y	0.7030000000000001
81.8914	0.2	voilier	10	noun	phrase	4	8	match	rouge	5	1	y	0.7030000000000001
82.0914	0.0	+	10	noun	phrase	4	9	match	rouge	5	1	y	0.7030000000000001
82.4913	0.2	rouge	10	noun	phrase	4	10	match	rouge	5	1	y	0.7030000000000001
82.69129999999998	0.0	+	10	noun	phrase	4	11	match	rouge	5	1	y	0.7030000000000001
83.09129999999999	0.0	+	10	noun	phrase	4	12	match	rouge	5	1	y	0.7030000000000001
85.09109999999998	0.0	ROUGE	10	noun	phrase	4	13	match	rouge	5	1	y	0.7030000000000001
85.8577	0.0	+	10	noun	phrase	4	14	match	rouge	5	1	y	0.7030000000000001
85.79409999999999	0.0	[response]	10	noun	phrase	4	15	match	rouge	5	1	y	0.7030000000000001
87.49089999999998	0.0	+	11	noun	list	3	1	match	vite	5	1	y	0.86539
88.0409	0.2	mhq	11	noun	list	3	2	match	vite	5	1	y	0.86539
88.24080000000001	0.0	+	11	noun	list	3	3	match	vite	5	1	y	0.86539
88.64079999999998	0.2	jpqd	11	noun	list	3	4	match	vite	5	1	y	0.86539
88.8408	0.0	+	11	noun	list	3	5	match	vite	5	1	y	0.86539
89.24080000000001	0.2	va	11	noun	list	3	6	match	vite	5	1	y	0.86539
89.44069999999999	0.0	+	11	noun	list	3	7	match	vite	5	1	y	0.86539
89.8407	0.2	tablier	11	noun	list	3	8	match	vite	5	1	y	0.86539
90.04069999999999	0.0	+	11	noun	list	3	9	match	vite	5	1	y	0.86539
90.44069999999999	0.2	vite	11	noun	list	3	10	match	vite	5	1	y	0.86539
90.6406	0.0	+	11	noun	list	3	11	match	vite	5	1	y	0.86539
91.04059999999998	0.0	+	11	noun	list	3	12	match	vite	5	1	y	0.86539
93.0404	0.0	VITE	11	noun	list	3	13	match	vite	5	1	y	0.86539
93.97370000000001	0.0	+	11	noun	list	3	14	match	vite	5	1	y	0.86539
93.9058	0.0	[response]	11	noun	list	3	15	match	vite	5	1	y	0.86539
95.4402	0.0	+	12	noun	phrase	2	1	match	grenier	5	1	y	0.7360400000000001
95.99019999999999	0.2	nlfrmx	12	noun	phrase	2	2	match	grenier	5	1	y	0.7360400000000001
96.1902	0.0	+	12	noun	phrase	2	3	match	grenier	5	1	y	0.7360400000000001
96.5901	0.2	zpwn	12	noun	phrase	2	4	match	grenier	5	1	y	0.7360400000000001
96.7901	0.0	+	12	noun	phrase	2	5	match	grenier	5	1	y	0.7360400000000001
97.1901	0.2	fml	12	noun	phrase	2	6	match	grenier	5	1	y	0.7360400000000001
97.39009999999999	0.0	+	12	noun	phrase	2	7	match	grenier	5	1	y	0.7360400000000001
97.78999999999999	0.2	vieux	12	noun	phrase	2	8	match	grenier	5	1	y	0.7360400000000001
97.98999999999998	0.0	+	12	noun	phrase	2	9	match	grenier	5	1	y	0.7360400000000001
98.38999999999999	0.2	grenier	12	noun	phrase	2	10	match	grenier	5	1	y	0.7360400000000001
98.59	0.0	+	12	noun	phrase	2	11	match	grenier	5	1	y	0.7360400000000001
98.9899	0.0	+	12	noun	phrase	2	12	match	grenier	5	1	y	0.7360400000000001
100.9897	0.0	GRENIER	12	noun	phrase	2	13	match	grenier	5	1	y	0.7360400000000001
101.78969999999998	0.0	+	12	noun	phrase	2	14	match	grenier	5	1	y	0.7360400000000001
101.72579999999999	0.0	[response]	12	noun	phrase	2	15	match	grenier	5	1	y	0.7360400000000001
103.3895	0.0	+	13	verb	phrase	1	1	match	rouler	5	1	y	0.6067
103.93949999999998	0.2	pxrdcsj	13	verb	phrase	1	2	match	rouler	5	1	y	0.6067
104.1395	0.0	+	13	verb	phrase	1	3	match	rouler	5	1	y	0.6067
104.5394	0.2	gjfq	13	verb	phrase	1	4	match	rouler	5	1	y	0.6067
104.73939999999999	0.0	+	13	verb	phrase	1	5	match	rouler	5	1	y	0.6067
105.1394	0.2	smjp	13	verb	phrase	1	6	match	rouler	5	1	y	0.6067
105.33939999999998	0.0	+	13	verb	phrase	1	7	match	rouler	5	1	y	0.6067
105.73929999999999	0.2	sdfbk	13	verb	phrase	1	8	match	rouler	5	1	y	0.6067
105.9393	0.0	+	13	verb	phrase	1	9	match	rouler	5	1	y	0.6067
106.33930000000001	0.2	rouler	13	verb	phrase	1	10	match	rouler	5	1	y	0.6067
106.5393	0.0	+	13	verb	phrase	1	11	match	rouler	5	1	y	0.6067
106.9392	0.0	+	13	verb	phrase	1	12	match	rouler	5	1	y	0.6067
108.939	0.0	ROULER	13	verb	phrase	1	13	match	rouler	5	1	y	0.6067
109.60569999999998	0.0	+	13	verb	phrase	1	14	match	rouler	5	1	y	0.6067
109.54569999999998	0.0	[response]	13	verb	phrase	1	15	match	rouler	5	1	y	0.6067
111.33879999999999	0.0	+	14	noun	list	2	1	match	trop	4	1	y	0.82539
111.8888	0.2	jnrmkbx	14	noun	list	2	2	match	trop	4	1	y	0.82539
112.08879999999999	0.0	+	14	noun	list	2	3	match	trop	4	1	y	0.82539
112.4887	0.2	lzfq	14	noun	list	2	4	match	trop	4	1	y	0.82539
112.68869999999998	0.0	+	14	noun	list	2	5	match	trop	4	1	y	0.82539
113.08869999999999	0.2	fml	14	noun	list	2	6	match	trop	4	1	y	0.82539
113.2887	0.0	+	14	noun	list	2	7	match	trop	4	1	y	0.82539
113.68860000000001	0.2	trop	14	noun	list	2	8	match	trop	4	1	y	0.82539
113.8886	0.0	+	14	noun	list	2	9	match	trop	4	1	y	0.82539
114.2886	0.2	panier	14	noun	list	2	10	match	trop	4	1	y	0.82539
114.48859999999999	0.0	+	14	noun	list	2	11	match	trop	4	1	y	0.82539
114.8885	0.0	+	14	noun	list	2	12	match	trop	4	1	y	0.82539
116.88839999999999	0.0	TROP	14	noun	list	2	13	match	trop	4	1	y	0.82539
117.7716	0.0	+	14	noun	list	2	14	match	trop	4	1	y	0.82539
117.71369999999999	0.0	[response]	14	noun	list	2	15	match	trop	4	1	y	0.82539
119.28809999999999	0.0	+	15	noun	list	2	1	nomatch	jongler	-1	1	p	0.8220900000000001
119.8381	0.2	spdn	15	noun	list	2	2	nomatch	jongler	-1	1	p	0.8220900000000001
120.03809999999999	0.0	+	15	noun	list	2	3	nomatch	jongler	-1	1	p	0.8220900000000001
120.43809999999999	0.2	jpqd	15	noun	list	2	4	nomatch	jongler	-1	1	p	0.8220900000000001
120.638	0.0	+	15	noun	list	2	5	nomatch	jongler	-1	1	p	0.8220900000000001
121.03799999999998	0.2	smjp	15	noun	list	2	6	nomatch	jongler	-1	1	p	0.8220900000000001
121.238	0.0	+	15	noun	list	2	7	nomatch	jongler	-1	1	p	0.8220900000000001
121.6379	0.2	casier	15	noun	list	2	8	nomatch	jongler	-1	1	p	0.8220900000000001
121.83789999999999	0.0	+	15	noun	list	2	9	nomatch	jongler	-1	1	p	0.8220900000000001
122.2379	0.2	tard	15	noun	list	2	10	nomatch	jongler	-1	1	p	0.8220900000000001
122.43789999999998	0.0	+	15	noun	list	2	11	nomatch	jongler	-1	1	p	0.8220900000000001
122.83779999999999	0.0	+	15	noun	list	2	12	nomatch	jongler	-1	1	p	0.8220900000000001
124.83769999999998	0.0	JONGLER	15	noun	list	2	13	nomatch	jongler	-1	1	p	0.8220900000000001
125.7209	0.0	+	15	noun	list	2	14	nomatch	jongler	-1	1	p	0.8220900000000001
125.65979999999999	0.0	[response]	15	noun	list	2	15	nomatch	jongler	-1	1	p	0.8220900000000001
135.2368	0.0	+	16	noun	list	4	1	nomatch	chasser	-1	1	p	0.73288
135.7867	0.2	rmhfs	16	noun	list	4	2	nomatch	chasser	-1	1	p	0.73288
135.98669999999998	0.0	+	16	noun	list	4	3	nomatch	chasser	-1	1	p	0.73288
136.3867	0.2	marc	16	noun	list	4	4	nomatch	chasser	-1	1	p	0.73288
136.5866	0.0	+	16	noun	list	4	5	nomatch	chasser	-1	1	p	0.73288
136.98659999999998	0.2	mon	16	noun	list	4	6	nomatch	chasser	-1	1	p	0.73288
137.1866	0.0	+	16	noun	list	4	7	nomatch	chasser	-1	1	p	0.73288
137.5866	0.2	trop	16	noun	list	4	8	nomatch	chasser	-1	1	p	0.73288
137.7865	0.0	+	16	noun	list	4	9	nomatch	chasser	-1	1	p	0.73288
138.1865	0.2	boîtier	16	noun	list	4	10	nomatch	chasser	-1	1	p	0.73288
138.38649999999998	0.0	+	16	noun	list	4	11	nomatch	chasser	-1	1	p	0.73288
138.7865	0.0	+	16	noun	list	4	12	nomatch	chasser	-1	1	p	0.73288
140.78629999999998	0.0	CHASSER	16	noun	list	4	13	nomatch	chasser	-1	1	p	0.73288
141.5862	0.0	+	16	noun	list	4	14	nomatch	chasser	-1	1	p	0.73288
141.51919999999998	0.0	[response]	16	noun	list	4	15	nomatch	chasser	-1	1	p	0.73288
143.18609999999998	0.0	+	17	verb	phrase	3	1	nomatch	beau	-1	1	p	0.75773
143.73600000000002	0.2	rshnpcb	17	verb	phrase	3	2	nomatch	beau	-1	1	p	0.75773
143.936	0.0	+	17	verb	phrase	3	3	nomatch	beau	-1	1	p	0.75773
144.33599999999998	0.2	gjfq	17	verb	phrase	3	4	nomatch	beau	-1	1	p	0.75773
144.53599999999997	0.0	+	17	verb	phrase	3	5	nomatch	beau	-1	1	p	0.75773
144.93589999999998	0.2	doit	17	verb	phrase	3	6	nomatch	beau	-1	1	p	0.75773
145.13590000000002	0.0	+	17	verb	phrase	3	7	nomatch	beau	-1	1	p	0.75773
145.5359	0.2	galoper	17	verb	phrase	3	8	nomatch	beau	-1	1	p	0.75773
145.7358	0.0	+	17	verb	phrase	3	9	nomatch	beau	-1	1	p	0.75773
146.1358	0.2	vite	17	verb	phrase	3	10	nomatch	beau	-1	1	p	0.75773
146.33579999999998	0.0	+	17	verb	phrase	3	11	nomatch	beau	-1	1	p	0.75773
146.7358	0.0	+	17	verb	phrase	3	12	nomatch	beau	-1	1	p	0.75773
148.7356	0.0	BEAU	17	verb	phrase	3	13	nomatch	beau	-1	1	p	0.75773
149.5522	0.0	+	17	verb	phrase	3	14	nomatch	beau	-1	1	p	0.75773
149.4933	0.0	[response]	17	verb	phrase	3	15	nomatch	beau	-1	1	p	0.75773
151.13539999999998	0.0	+	18	noun	list	1	1	nomatch	panier	-1	1	p	0.69225
151.6853	0.2	kzr	18	noun	list	1	2	nomatch	panier	-1	1	p	0.69225
151.8853	0.0	+	18	noun	list	1	3	nomatch	panier	-1	1	p	0.69225
152.28529999999998	0.2	lzfq	18	noun	list	1	4	nomatch	panier	-1	1	p	0.69225
152.48529999999997	0.0	+	18	noun	list	1	5	nomatch	panier	-1	1	p	0.69225
152.88519999999997	0.2	fml	18	noun	list	1	6	nomatch	panier	-1	1	p	0.69225
153.08520000000001	0.0	+	18	noun	list	1	7	nomatch	panier	-1	1	p	0.69225
153.4852	0.2	zplmj	18	noun	list	1	8	nomatch	panier	-1	1	p	0.69225
153.68519999999998	0.0	+	18	noun	list	1	9	nomatch	panier	-1	1	p	0.69225
154.08509999999998	0.2	cendrier	18	noun	list	1	10	nomatch	panier	-1	1	p	0.69225
154.28509999999997	0.0	+	18	noun	list	1	11	nomatch	panier	-1	1	p	0.69225
154.6851	0.0	+	18	noun	list	1	12	nomatch	panier	-1	1	p	0.69225
156.6849	0.0	PANIER	18	noun	list	1	13	nomatch	panier	-1	1	p	0.69225
157.43479999999997	0.0	+	18	noun	list	1	14	nomatch	panier	-1	1	p	0.69225
157.3772	0.0	[response]	18	noun	list	1	15	nomatch	panier	-1	1	p	0.69225
159.1013	0.0	+	19	verb	list	2	1	match	jongler	4	1	y	0.85783
159.65130000000002	0.2	dfzgmqx	19	verb	list	2	2	match	jongler	4	1	y	0.85783
159.8513	0.0	+	19	verb	list	2	3	match	jongler	4	1	y	0.85783
160.2513	0.2	pnsd	19	verb	list	2	4	match	jongler	4	1	y	0.85783
160.4512	0.0	+	19	verb	list	2	5	match	jongler	4	1	y	0.85783
160.85119999999998	0.2	blzh	19	verb	list	2	6	match	jongler	4	1	y	0.85783
161.05120000000002	0.0	+	19	verb	list	2	7	match	jongler	4	1	y	0.85783
161.4512	0.2	jongler	19	verb	list	2	8	match	jongler	4	1	y	0.85783
161.6511	0.0	+	19	verb	list	2	9	match	jongler	4	1	y	0.85783
162.0511	0.2	rouge	19	verb	list	2	10	match	jongler	4	1	y	0.85783
162.25109999999998	0.0	+	19	verb	list	2	11	match	jongler	4	1	y	0.85783
162.65099999999998	0.0	+	19	verb	list	2	12	match	jongler	4	1	y	0.85783
164.6509	0.0	JONGLER	19	verb	list	2	13	match	jongler	4	1	y	0.85783
165.56749999999997	0.0	+	19	verb	list	2	14	match	jongler	4	1	y	0.85783
165.5087	0.0	[response]	19	verb	list	2	15	match	jongler	4	1	y	0.85783
167.05069999999998	0.0	+	20	noun	phrase	2	1	nomatch	beau	-1	1	p	0.77252
167.60060000000001	0.2	slvfpg	20	noun	phrase	2	2	nomatch	beau	-1	1	p	0.77252
167.8006	0.0	+	20	noun	phrase	2	3	nomatch	beau	-1	1	p	0.77252
168.20059999999998	0.2	klgc	20	noun	phrase	2	4	nomatch	beau	-1	1	p	0.77252
168.4005	0.0	+	20	noun	phrase	2	5	nomatch	beau	-1	1	p	0.77252
168.80049999999997	0.2	tvw	20	noun	phrase	2	6	nomatch	beau	-1	1	p	0.77252
169.00050000000002	0.0	+	20	noun	phrase	2	7	nomatch	beau	-1	1	p	0.77252
169.4005	0.2	grand	20	noun	phrase	2	8	nomatch	beau	-1	1	p	0.77252
169.6004	0.0	+	20	noun	phrase	2	9	nomatch	beau	-1	1	p	0.77252
170.00039999999998	0.2	voilier	20	noun	phrase	2	10	nomatch	beau	-1	1	p	0.77252
170.20039999999997	0.0	+	20	noun	phrase	2	11	nomatch	beau	-1	1	p	0.77252
170.6004	0.0	+	20	noun	phrase	2	12	nomatch	beau	-1	1	p	0.77252
172.6002	0.0	BEAU	20	noun	phrase	2	13	nomatch	beau	-1	1	p	0.77252
173.43339999999998	0.0	+	20	noun	phrase	2	14	nomatch	beau	-1	1	p	0.77252
173.37269999999998	0.0	[response]	20	noun	phrase	2	15	nomatch	beau	-1	1	p	0.77252
174.99999999999997	0.0	+	21	verb	list	2	1	match	vert	5	1	y	0.85523
175.5499	0.2	vrnft	21	verb	list	2	2	match	vert	5	1	y	0.85523
175.7499	0.0	+	21	verb	list	2	3	match	vert	5	1	y	0.85523
176.14989999999997	0.2	zmbq	21	verb	list	2	4	match	vert	5	1	y	0.85523
176.34990000000002	0.0	+	21	verb	list	2	5	match	vert	5	1	y	0.85523
176.74980000000002	0.2	fml	21	verb	list	2	6	match	vert	5	1	y	0.85523
176.9498	0.0	+	21	verb	list	2	7	match	vert	5	1	y	0.85523
177.3498	0.2	voyager	21	verb	list	2	8	match	vert	5	1	y	0.85523
177.54979999999998	0.0	+	21	verb	list	2	9	match	vert	5	1	y	0.85523
177.94969999999998	0.2	vert	21	verb	list	2	10	match	vert	5	1	y	0.85523
178.14969999999997	0.0	+	21	verb	list	2	11	match	vert	5	1	y	0.85523
178.5497	0.0	+	21	verb	list	2	12	match	vert	5	1	y	0.85523
180.5495	0.0	VERT	21	verb	list	2	13	match	vert	5	1	y	0.85523
181.4661	0.0	+	21	verb	list	2	14	match	vert	5	1	y	0.85523
181.40470000000002	0.0	[response]	21	verb	list	2	15	match	vert	5	1	y	0.85523
182.94930000000002	0.0	+	22	noun	list	1	1	nomatch	mon	-1	1	p	1.0095
183.4992	0.2	dhcm	22	noun	list	1	2	nomatch	mon	-1	1	p	1.0095
183.6992	0.0	+	22	noun	list	1	3	nomatch	mon	-1	1	p	1.0095
184.09919999999997	0.2	xhvf	22	noun	list	1	4	nomatch	mon	-1	1	p	1.0095
184.2992	0.0	+	22	noun	list	1	5	nomatch	mon	-1	1	p	1.0095
184.69910000000002	0.2	blzh	22	noun	list	1	6	nomatch	mon	-1	1	p	1.0095
184.8991	0.0	+	22	noun	list	1	7	nomatch	mon	-1	1	p	1.0095
185.29909999999998	0.2	dcsl	22	noun	list	1	8	nomatch	mon	-1	1	p	1.0095
185.49909999999997	0.0	+	22	noun	list	1	9	nomatch	mon	-1	1	p	1.0095
185.89899999999997	0.2	panier	22	noun	list	1	10	nomatch	mon	-1	1	p	1.0095
186.09900000000002	0.0	+	22	noun	list	1	11	nomatch	mon	-1	1	p	1.0095
186.499	0.0	+	22	noun	list	1	12	nomatch	mon	-1	1	p	1.0095
188.4988	0.0	MON	22	noun	list	1	13	nomatch	mon	-1	1	p	1.0095
189.56539999999998	0.0	+	22	noun	list	1	14	nomatch	mon	-1	1	p	1.0095
189.50830000000005	0.0	[response]	22	noun	list	1	15	nomatch	mon	-1	1	p	1.0095
190.89860000000002	0.0	+	23	verb	phrase	1	1	nomatch	ainsi	-1	1	p	0.8620100000000002
191.44859999999997	0.2	hcjsxdn	23	verb	phrase	1	2	nomatch	ainsi	-1	1	p	0.8620100000000002
191.64849999999998	0.0	+	23	verb	phrase	1	3	nomatch	ainsi	-1	1	p	0.8620100000000002
192.04850000000002	0.2	gjfq	23	verb	phrase	1	4	nomatch	ainsi	-1	1	p	0.8620100000000002
192.2485	0.0	+	23	verb	phrase	1	5	nomatch	ainsi	-1	1	p	0.8620100000000002
192.6484	0.2	njsf	23	verb	phrase	1	6	nomatch	ainsi	-1	1	p	0.8620100000000002
192.8484	0.0	+	23	verb	phrase	1	7	nomatch	ainsi	-1	1	p	0.8620100000000002
193.24839999999998	0.2	vqrhldg	23	verb	phrase	1	8	nomatch	ainsi	-1	1	p	0.8620100000000002
193.44840000000002	0.0	+	23	verb	phrase	1	9	nomatch	ainsi	-1	1	p	0.8620100000000002
193.84830000000002	0.2	tard	23	verb	phrase	1	10	nomatch	ainsi	-1	1	p	0.8620100000000002
194.0483	0.0	+	23	verb	phrase	1	11	nomatch	ainsi	-1	1	p	0.8620100000000002
194.4483	0.0	+	23	verb	phrase	1	12	nomatch	ainsi	-1	1	p	0.8620100000000002
196.44809999999998	0.0	AINSI	23	verb	phrase	1	13	nomatch	ainsi	-1	1	p	0.8620100000000002
197.3647	0.0	+	23	verb	phrase	1	14	nomatch	ainsi	-1	1	p	0.8620100000000002
197.3101	0.0	[response]	23	verb	phrase	1	15	nomatch	ainsi	-1	1	p	0.8620100000000002
198.8479	0.0	+	24	noun	phrase	1	1	nomatch	noir	-1	1	p	0.72259
199.39790000000002	0.2	xcnqd	24	noun	phrase	1	2	nomatch	noir	-1	1	p	0.72259
199.59779999999998	0.0	+	24	noun	phrase	1	3	nomatch	noir	-1	1	p	0.72259
199.9978	0.2	dthz	24	noun	phrase	1	4	nomatch	noir	-1	1	p	0.72259
200.1978	0.0	+	24	noun	phrase	1	5	nomatch	noir	-1	1	p	0.72259
200.5977	0.2	tvw	24	noun	phrase	1	6	nomatch	noir	-1	1	p	0.72259
200.7977	0.0	+	24	noun	phrase	1	7	nomatch	noir	-1	1	p	0.72259
201.19769999999997	0.2	vmfplhs	24	noun	phrase	1	8	nomatch	noir	-1	1	p	0.72259
201.39770000000001	0.0	+	24	noun	phrase	1	9	nomatch	noir	-1	1	p	0.72259
201.79760000000002	0.2	rouge	24	noun	phrase	1	10	nomatch	noir	-1	1	p	0.72259
201.9976	0.0	+	24	noun	phrase	1	11	nomatch	noir	-1	1	p	0.72259
202.39759999999998	0.0	+	24	noun	phrase	1	12	nomatch	noir	-1	1	p	0.72259
204.39739999999998	0.0	NOIR	24	noun	phrase	1	13	nomatch	noir	-1	1	p	0.72259
205.18069999999997	0.0	+	24	noun	phrase	1	14	nomatch	noir	-1	1	p	0.72259
205.11999999999998	0.0	[response]	24	noun	phrase	1	15	nomatch	noir	-1	1	p	0.72259
206.7972	0.0	+	25	verb	phrase	2	1	match	moins	4	1	y	1.0071
207.34720000000002	0.2	lbxrc	25	verb	phrase	2	2	match	moins	4	1	y	1.0071
207.54709999999997	0.0	+	25	verb	phrase	2	3	match	moins	4	1	y	1.0071
207.9471	0.2	zmbq	25	verb	phrase	2	4	match	moins	4	1	y	1.0071
208.1471	0.0	+	25	verb	phrase	2	5	match	moins	4	1	y	1.0071
208.54709999999997	0.2	vp	25	verb	phrase	2	6	match	moins	4	1	y	1.0071
208.74699999999999	0.0	+	25	verb	phrase	2	7	match	moins	4	1	y	1.0071
209.14700000000002	0.2	moins	25	verb	phrase	2	8	match	moins	4	1	y	1.0071
209.347	0.0	+	25	verb	phrase	2	9	match	moins	4	1	y	1.0071
209.74699999999999	0.2	chasser	25	verb	phrase	2	10	match	moins	4	1	y	1.0071
209.9469	0.0	+	25	verb	phrase	2	11	match	moins	4	1	y	1.0071
210.34689999999998	0.0	+	25	verb	phrase	2	12	match	moins	4	1	y	1.0071
212.34669999999997	0.0	MOINS	25	verb	phrase	2	13	match	moins	4	1	y	1.0071
213.41330000000002	0.0	+	25	verb	phrase	2	14	match	moins	4	1	y	1.0071
213.3538	0.0	[response]	25	verb	phrase	2	15	match	moins	4	1	y	1.0071
214.7465	0.0	+	26	noun	list	4	1	nomatch	peut	-1	1	p	0.69586
215.2965	0.2	tkcnjl	26	noun	list	4	2	nomatch	peut	-1	1	p	0.69586
215.4965	0.0	+	26	noun	list	4	3	nomatch	peut	-1	1	p	0.69586
215.8964	0.2	vers	26	noun	list	4	4	nomatch	peut	-1	1	p	0.69586
216.0964	0.0	+	26	noun	list	4	5	nomatch	peut	-1	1	p	0.69586
216.49640000000002	0.2	doit	26	noun	list	4	6	nomatch	peut	-1	1	p	0.69586
216.69629999999998	0.0	+	26	noun	list	4	7	nomatch	peut	-1	1	p	0.69586
217.0963	0.2	cendrier	26	noun	list	4	8	nomatch	peut	-1	1	p	0.69586
217.2963	0.0	+	26	noun	list	4	9	nomatch	peut	-1	1	p	0.69586
217.69629999999998	0.2	loin	26	noun	list	4	10	nomatch	peut	-1	1	p	0.69586
217.8962	0.0	+	26	noun	list	4	11	nomatch	peut	-1	1	p	0.69586
218.29619999999997	0.0	+	26	noun	list	4	12	nomatch	peut	-1	1	p	0.69586
220.29600000000002	0.0	PEUT	26	noun	list	4	13	nomatch	peut	-1	1	p	0.69586
221.04600000000002	0.0	+	26	noun	list	4	14	nomatch	peut	-1	1	p	0.69586
220.99190000000002	0.0	[response]	26	noun	list	4	15	nomatch	peut	-1	1	p	0.69586
222.6958	0.0	+	27	noun	list	1	1	nomatch	yves	-1	1	p	0.6002200000000001
223.2458	0.2	bvpsg	27	noun	list	1	2	nomatch	yves	-1	1	p	0.6002200000000001
223.4458	0.0	+	27	noun	list	1	3	nomatch	yves	-1	1	p	0.6002200000000001
223.8457	0.2	dthz	27	noun	list	1	4	nomatch	yves	-1	1	p	0.6002200000000001
224.04569999999998	0.0	+	27	noun	list	1	5	nomatch	yves	-1	1	p	0.6002200000000001
224.44570000000002	0.2	smjp	27	noun	list	1	6	nomatch	yves	-1	1	p	0.6002200000000001
224.6457	0.0	+	27	noun	list	1	7	nomatch	yves	-1	1	p	0.6002200000000001
225.0456	0.2	rwmkscb	27	noun	list	1	8	nomatch	yves	-1	1	p	0.6002200000000001
225.2456	0.0	+	27	noun	list	1	9	nomatch	yves	-1	1	p	0.6002200000000001
225.64559999999997	0.2	tard	27	noun	list	1	10	nomatch	yves	-1	1	p	0.6002200000000001
225.84560000000002	0.0	+	27	noun	list	1	11	nomatch	yves	-1	1	p	0.6002200000000001
226.24550000000002	0.0	+	27	noun	list	1	12	nomatch	yves	-1	1	p	0.6002200000000001
228.24530000000001	0.0	YVES	27	noun	list	1	13	nomatch	yves	-1	1	p	0.6002200000000001
228.91189999999997	0.0	+	27	noun	list	1	14	nomatch	yves	-1	1	p	0.6002200000000001
228.84560000000002	0.0	[response]	27	noun	list	1	15	nomatch	yves	-1	1	p	0.6002200000000001
230.64509999999999	0.0	+	28	noun	phrase	2	1	match	noir	5	1	y	0.79098
231.1951	0.2	qstw	28	noun	phrase	2	2	match	noir	5	1	y	0.79098
231.39509999999999	0.0	+	28	noun	phrase	2	3	match	noir	5	1	y	0.79098
231.795	0.2	jpqd	28	noun	phrase	2	4	match	noir	5	1	y	0.79098
231.99499999999998	0.0	+	28	noun	phrase	2	5	match	noir	5	1	y	0.79098
232.395	0.2	blzh	28	noun	phrase	2	6	match	noir	5	1	y	0.79098
232.595	0.0	+	28	noun	phrase	2	7	match	noir	5	1	y	0.79098
232.9949	0.2	voilier	28	noun	phrase	2	8	match	noir	5	1	y	0.79098
233.1949	0.0	+	28	noun	phrase	2	9	match	noir	5	1	y	0.79098
233.59489999999997	0.2	noir	28	noun	phrase	2	10	match	noir	5	1	y	0.79098
233.7949	0.0	+	28	noun	phrase	2	11	match	noir	5	1	y	0.79098
234.19480000000001	0.0	+	28	noun	phrase	2	12	match	noir	5	1	y	0.79098
236.19469999999998	0.0	NOIR	28	noun	phrase	2	13	match	noir	5	1	y	0.79098
237.04459999999997	0.0	+	28	noun	phrase	2	14	match	noir	5	1	y	0.79098
236.9856	0.0	[response]	28	noun	phrase	2	15	match	noir	5	1	y	0.79098
238.59439999999998	0.0	+	29	noun	list	3	1	nomatch	nouveau	-1	1	p	0.82155
239.1444	0.2	kqln	29	noun	list	3	2	nomatch	nouveau	-1	1	p	0.82155
239.34439999999998	0.0	+	29	noun	list	3	3	nomatch	nouveau	-1	1	p	0.82155
239.74429999999998	0.2	xhvf	29	noun	list	3	4	nomatch	nouveau	-1	1	p	0.82155
239.94429999999997	0.0	+	29	noun	list	3	5	nomatch	nouveau	-1	1	p	0.82155
240.3443	0.2	mon	29	noun	list	3	6	nomatch	nouveau	-1	1	p	0.82155
240.5443	0.0	+	29	noun	list	3	7	nomatch	nouveau	-1	1	p	0.82155
240.9442	0.2	beaucoup	29	noun	list	3	8	nomatch	nouveau	-1	1	p	0.82155
241.14419999999998	0.0	+	29	noun	list	3	9	nomatch	nouveau	-1	1	p	0.82155
241.54420000000002	0.2	cendrier	29	noun	list	3	10	nomatch	nouveau	-1	1	p	0.82155
241.7442	0.0	+	29	noun	list	3	11	nomatch	nouveau	-1	1	p	0.82155
242.1441	0.0	+	29	noun	list	3	12	nomatch	nouveau	-1	1	p	0.82155
244.14399999999998	0.0	NOUVEAU	29	noun	list	3	13	nomatch	nouveau	-1	1	p	0.82155
245.02720000000002	0.0	+	29	noun	list	3	14	nomatch	nouveau	-1	1	p	0.82155
244.9655	0.0	[response]	29	noun	list	3	15	nomatch	nouveau	-1	1	p	0.82155
254.5431	0.0	+	30	verb	list	1	1	match	plonger	5	1	y	0.74485
255.093	0.2	hztqcvx	30	verb	list	1	2	match	plonger	5	1	y	0.74485
255.29299999999998	0.0	+	30	verb	list	1	3	match	plonger	5	1	y	0.74485
255.693	0.2	fnlw	30	verb	list	1	4	match	plonger	5	1	y	0.74485
255.89289999999997	0.0	+	30	verb	list	1	5	match	plonger	5	1	y	0.74485
256.29290000000003	0.2	smjp	30	verb	list	1	6	match	plonger	5	1	y	0.74485
256.49289999999996	0.0	+	30	verb	list	1	7	match	plonger	5	1	y	0.74485
256.89289999999994	0.2	qsjbt	30	verb	list	1	8	match	plonger	5	1	y	0.74485
257.0928	0.0	+	30	verb	list	1	9	match	plonger	5	1	y	0.74485
257.4928	0.2	plonger	30	verb	list	1	10	match	plonger	5	1	y	0.74485
257.69280000000003	0.0	+	30	verb	list	1	11	match	plonger	5	1	y	0.74485
258.09270000000004	0.0	+	30	verb	list	1	12	match	plonger	5	1	y	0.74485
260.09259999999995	0.0	PLONGER	30	verb	list	1	13	match	plonger	5	1	y	0.74485
260.89250000000004	0.0	+	30	verb	list	1	14	match	plonger	5	1	y	0.74485
260.8374	0.0	[response]	30	verb	list	1	15	match	plonger	5	1	y	0.74485
262.4924	0.0	+	31	verb	list	4	1	nomatch	noir	-1	1	p	1.5034
263.04229999999995	0.2	cqnpw	31	verb	list	4	2	nomatch	noir	-1	1	p	1.5034
263.2423	0.0	+	31	verb	list	4	3	nomatch	noir	-1	1	p	1.5034
263.6423	0.2	vers	31	verb	list	4	4	nomatch	noir	-1	1	p	1.5034
263.8423	0.0	+	31	verb	list	4	5	nomatch	noir	-1	1	p	1.5034
264.2422	0.2	peut	31	verb	list	4	6	nomatch	noir	-1	1	p	1.5034
264.44219999999996	0.0	+	31	verb	list	4	7	nomatch	noir	-1	1	p	1.5034
264.84220000000005	0.2	beau	31	verb	list	4	8	nomatch	noir	-1	1	p	1.5034
265.0421	0.0	+	31	verb	list	4	9	nomatch	noir	-1	1	p	1.5034
265.4421	0.2	chasser	31	verb	list	4	10	nomatch	noir	-1	1	p	1.5034
265.6421	0.0	+	31	verb	list	4	11	nomatch	noir	-1	1	p	1.5034
266.0421	0.0	+	31	verb	list	4	12	nomatch	noir	-1	1	p	1.5034
268.04189999999994	0.0	NOIR	31	verb	list	4	13	nomatch	noir	-1	1	p	1.5034
269.60839999999996	0.0	+	31	verb	list	4	14	nomatch	noir	-1	1	p	1.5034
269.5453	0.0	[response]	31	verb	list	4	15	nomatch	noir	-1	1	p	1.5034
270.44169999999997	0.0	+	32	noun	phrase	1	1	match	nouveau	5	1	y	0.6496
270.99159999999995	0.2	mdc	32	noun	phrase	1	2	match	nouveau	5	1	y	0.6496
271.1916	0.0	+	32	noun	phrase	1	3	match	nouveau	5	1	y	0.6496
271.59159999999997	0.2	fnlw	32	noun	phrase	1	4	match	nouveau	5	1	y	0.6496
271.7916	0.0	+	32	noun	phrase	1	5	match	nouveau	5	1	y	0.6496
272.1915	0.2	fml	32	noun	phrase	1	6	match	nouveau	5	1	y	0.6496
272.39149999999995	0.0	+	32	noun	phrase	1	7	match	nouveau	5	1	y	0.6496
272.79150000000004	0.2	qbxmglz	32	noun	phrase	1	8	match	nouveau	5	1	y	0.6496
272.9915	0.0	+	32	noun	phrase	1	9	match	nouveau	5	1	y	0.6496
273.3914	0.2	nouveau	32	noun	phrase	1	10	match	nouveau	5	1	y	0.6496
273.5914	0.0	+	32	noun	phrase	1	11	match	nouveau	5	1	y	0.6496
273.9914	0.0	+	32	noun	phrase	1	12	match	nouveau	5	1	y	0.6496
275.99120000000005	0.0	NOUVEAU	32	noun	phrase	1	13	match	nouveau	5	1	y	0.6496
276.7078	0.0	+	32	noun	phrase	1	14	match	nouveau	5	1	y	0.6496
276.6408	0.0	[response]	32	noun	phrase	1	15	match	nouveau	5	1	y	0.6496
278.39099999999996	0.0	+	33	verb	phrase	2	1	nomatch	trop	-1	1	p	1.0007
278.94089999999994	0.2	vpnxrf	33	verb	phrase	2	2	nomatch	trop	-1	1	p	1.0007
279.1409	0.0	+	33	verb	phrase	2	3	nomatch	trop	-1	1	p	1.0007
279.54089999999997	0.2	xhvf	33	verb	phrase	2	4	nomatch	trop	-1	1	p	1.0007
279.7409	0.0	+	33	verb	phrase	2	5	nomatch	trop	-1	1	p	1.0007
280.1408	0.2	vp	33	verb	phrase	2	6	nomatch	trop	-1	1	p	1.0007
280.34079999999994	0.0	+	33	verb	phrase	2	7	nomatch	trop	-1	1	p	1.0007
280.74080000000004	0.2	plus	33	verb	phrase	2	8	nomatch	trop	-1	1	p	1.0007
280.94079999999997	0.0	+	33	verb	phrase	2	9	nomatch	trop	-1	1	p	1.0007
281.34069999999997	0.2	rouler	33	verb	phrase	2	10	nomatch	trop	-1	1	p	1.0007
281.5407	0.0	+	33	verb	phrase	2	11	nomatch	trop	-1	1	p	1.0007
281.9407	0.0	+	33	verb	phrase	2	12	nomatch	trop	-1	1	p	1.0007
283.94050000000004	0.0	TROP	33	verb	phrase	2	13	nomatch	trop	-1	1	p	1.0007
285.00710000000004	0.0	+	33	verb	phrase	2	14	nomatch	trop	-1	1	p	1.0007
284.9412	0.0	[response]	33	verb	phrase	2	15	nomatch	trop	-1	1	p	1.0007
294.3396	0.0	+	34	noun	phrase	4	1	nomatch	grand	-1	1	p	0.78215
294.8896	0.2	xjr	34	noun	phrase	4	2	nomatch	grand	-1	1	p	0.78215
295.08950000000004	0.0	+	34	noun	phrase	4	3	nomatch	grand	-1	1	p	0.78215
295.4895	0.2	vers	34	noun	phrase	4	4	nomatch	grand	-1	1	p	0.78215
295.68949999999995	0.0	+	34	noun	phrase	4	5	nomatch	grand	-1	1	p	0.78215
296.08939999999996	0.2	son	34	noun	phrase	4	6	nomatch	grand	-1	1	p	0.78215
296.2894	0.0	+	34	noun	phrase	4	7	nomatch	grand	-1	1	p	0.78215
296.6894	0.2	tablier	34	noun	phrase	4	8	nomatch	grand	-1	1	p	0.78215
296.8894	0.0	+	34	noun	phrase	4	9	nomatch	grand	-1	1	p	0.78215
297.2893	0.2	blanc	34	noun	phrase	4	10	nomatch	grand	-1	1	p	0.78215
297.48929999999996	0.0	+	34	noun	phrase	4	11	nomatch	grand	-1	1	p	0.78215
297.88930000000005	0.0	+	34	noun	phrase	4	12	nomatch	grand	-1	1	p	0.78215
299.8891	0.0	GRAND	34	noun	phrase	4	13	nomatch	grand	-1	1	p	0.78215
300.73900000000003	0.0	+	34	noun	phrase	4	14	nomatch	grand	-1	1	p	0.78215
300.6713	0.0	[response]	34	noun	phrase	4	15	nomatch	grand	-1	1	p	0.78215
302.2889	0.0	+	35	verb	phrase	4	1	match	va	3	1	y	0.9779
302.83889999999997	0.2	bgjn	35	verb	phrase	4	2	match	va	3	1	y	0.9779
303.03880000000004	0.0	+	35	verb	phrase	4	3	match	va	3	1	y	0.9779
303.4388	0.2	marc	35	verb	phrase	4	4	match	va	3	1	y	0.9779
303.63879999999995	0.0	+	35	verb	phrase	4	5	match	va	3	1	y	0.9779
304.03880000000004	0.2	va	35	verb	phrase	4	6	match	va	3	1	y	0.9779
304.2387	0.0	+	35	verb	phrase	4	7	match	va	3	1	y	0.9779
304.6387	0.2	voyager	35	verb	phrase	4	8	match	va	3	1	y	0.9779
304.8387	0.0	+	35	verb	phrase	4	9	match	va	3	1	y	0.9779
305.2387	0.2	ainsi	35	verb	phrase	4	10	match	va	3	1	y	0.9779
305.43859999999995	0.0	+	35	verb	phrase	4	11	match	va	3	1	y	0.9779
305.83860000000004	0.0	+	35	verb	phrase	4	12	match	va	3	1	y	0.9779
307.8384	0.0	VA	35	verb	phrase	4	13	match	va	3	1	y	0.9779
308.87170000000003	0.0	+	35	verb	phrase	4	14	match	va	3	1	y	0.9779
308.81629999999996	0.0	[response]	35	verb	phrase	4	15	match	va	3	1	y	0.9779
326.2368	0.0	+	36	verb	list	2	1	nomatch	jongler	-1	1	p	0.67194
326.78679999999997	0.2	jqmwd	36	verb	list	2	2	nomatch	jongler	-1	1	p	0.67194
326.9868	0.0	+	36	verb	list	2	3	nomatch	jongler	-1	1	p	0.67194
327.3867	0.2	xhvf	36	verb	list	2	4	nomatch	jongler	-1	1	p	0.67194
327.58669999999995	0.0	+	36	verb	list	2	5	nomatch	jongler	-1	1	p	0.67194
327.98670000000004	0.2	tvw	36	verb	list	2	6	nomatch	jongler	-1	1	p	0.67194
328.1867	0.0	+	36	verb	list	2	7	nomatch	jongler	-1	1	p	0.67194
328.5866	0.2	parader	36	verb	list	2	8	nomatch	jongler	-1	1	p	0.67194
328.7866	0.0	+	36	verb	list	2	9	nomatch	jongler	-1	1	p	0.67194
329.1866	0.2	blanc	36	verb	list	2	10	nomatch	jongler	-1	1	p	0.67194
329.38660000000004	0.0	+	36	verb	list	2	11	nomatch	jongler	-1	1	p	0.67194
329.78650000000005	0.0	+	36	verb	list	2	12	nomatch	jongler	-1	1	p	0.67194
331.7863	0.0	JONGLER	36	verb	list	2	13	nomatch	jongler	-1	1	p	0.67194
332.51959999999997	0.0	+	36	verb	list	2	14	nomatch	jongler	-1	1	p	0.67194
332.4583	0.0	[response]	36	verb	list	2	15	nomatch	jongler	-1	1	p	0.67194
334.1861	0.0	+	37	noun	list	1	1	match	plus	5	1	y	0.7259
334.73609999999996	0.2	tzgjvn	37	noun	list	1	2	match	plus	5	1	y	0.7259
334.9361	0.0	+	37	noun	list	1	3	match	plus	5	1	y	0.7259
335.336	0.2	lzfq	37	noun	list	1	4	match	plus	5	1	y	0.7259
335.53599999999994	0.0	+	37	noun	list	1	5	match	plus	5	1	y	0.7259
335.93600000000004	0.2	blzh	37	noun	list	1	6	match	plus	5	1	y	0.7259
336.13599999999997	0.0	+	37	noun	list	1	7	match	plus	5	1	y	0.7259
336.53589999999997	0.2	qbxmglz	37	noun	list	1	8	match	plus	5	1	y	0.7259
336.7359	0.0	+	37	noun	list	1	9	match	plus	5	1	y	0.7259
337.1359	0.2	plus	37	noun	list	1	10	match	plus	5	1	y	0.7259
337.33590000000004	0.0	+	37	noun	list	1	11	match	plus	5	1	y	0.7259
337.73580000000004	0.0	+	37	noun	list	1	12	match	plus	5	1	y	0.7259
339.73569999999995	0.0	PLUS	37	noun	list	1	13	match	plus	5	1	y	0.7259
340.51890000000003	0.0	+	37	noun	list	1	14	match	plus	5	1	y	0.7259
340.4616	0.0	[response]	37	noun	list	1	15	match	plus	5	1	y	0.7259
342.1354	0.0	+	38	noun	list	1	1	nomatch	casier	-1	1	p	0.68651
342.68539999999996	0.2	mxwbng	38	noun	list	1	2	nomatch	casier	-1	1	p	0.68651
342.8854	0.0	+	38	noun	list	1	3	nomatch	casier	-1	1	p	0.68651
343.2853	0.2	zpwn	38	noun	list	1	4	nomatch	casier	-1	1	p	0.68651
343.48529999999994	0.0	+	38	noun	list	1	5	nomatch	casier	-1	1	p	0.68651
343.88530000000003	0.2	smjp	38	noun	list	1	6	nomatch	casier	-1	1	p	0.68651
344.08529999999996	0.0	+	38	noun	list	1	7	nomatch	casier	-1	1	p	0.68651
344.48519999999996	0.2	xns	38	noun	list	1	8	nomatch	casier	-1	1	p	0.68651
344.6852	0.0	+	38	noun	list	1	9	nomatch	casier	-1	1	p	0.68651
345.0852	0.2	sablier	38	noun	list	1	10	nomatch	casier	-1	1	p	0.68651
345.28520000000003	0.0	+	38	noun	list	1	11	nomatch	casier	-1	1	p	0.68651
345.68510000000003	0.0	+	38	noun	list	1	12	nomatch	casier	-1	1	p	0.68651
347.68499999999995	0.0	CASIER	38	noun	list	1	13	nomatch	casier	-1	1	p	0.68651
348.43489999999997	0.0	+	38	noun	list	1	14	nomatch	casier	-1	1	p	0.68651
348.37149999999997	0.0	[response]	38	noun	list	1	15	nomatch	casier	-1	1	p	0.68651
350.0847	0.0	+	39	noun	list	4	1	nomatch	avec	-1	1	p	0.84171
350.65139999999997	0.2	hltw	39	noun	list	4	2	nomatch	avec	-1	1	p	0.84171
350.8514	0.0	+	39	noun	list	4	3	nomatch	avec	-1	1	p	0.84171
351.2513	0.2	sans	39	noun	list	4	4	nomatch	avec	-1	1	p	0.84171
351.45129999999995	0.0	+	39	noun	list	4	5	nomatch	avec	-1	1	p	0.84171
351.85130000000004	0.2	peut	39	noun	list	4	6	nomatch	avec	-1	1	p	0.84171
352.0512	0.0	+	39	noun	list	4	7	nomatch	avec	-1	1	p	0.84171
352.4512	0.2	voilier	39	noun	list	4	8	nomatch	avec	-1	1	p	0.84171
352.6512	0.0	+	39	noun	list	4	9	nomatch	avec	-1	1	p	0.84171
353.0512	0.2	tard	39	noun	list	4	10	nomatch	avec	-1	1	p	0.84171
353.25109999999995	0.0	+	39	noun	list	4	11	nomatch	avec	-1	1	p	0.84171
353.65110000000004	0.0	+	39	noun	list	4	12	nomatch	avec	-1	1	p	0.84171
355.6509	0.0	AVEC	39	noun	list	4	13	nomatch	avec	-1	1	p	0.84171
356.5508	0.0	+	39	noun	list	4	14	nomatch	avec	-1	1	p	0.84171
356.49260000000004	0.0	[response]	39	noun	list	4	15	nomatch	avec	-1	1	p	0.84171
358.0507	0.0	+	40	noun	phrase	1	1	nomatch	pour	-1	1	p	0.84496
358.60069999999996	0.2	gcxmlq	40	noun	phrase	1	2	nomatch	pour	-1	1	p	0.84496
358.8007	0.0	+	40	noun	phrase	1	3	nomatch	pour	-1	1	p	0.84496
359.2006	0.2	zpwn	40	noun	phrase	1	4	nomatch	pour	-1	1	p	0.84496
359.40059999999994	0.0	+	40	noun	phrase	1	5	nomatch	pour	-1	1	p	0.84496
359.80060000000003	0.2	tvw	40	noun	phrase	1	6	nomatch	pour	-1	1	p	0.84496
360.00059999999996	0.0	+	40	noun	phrase	1	7	nomatch	pour	-1	1	p	0.84496
360.40049999999997	0.2	jrnfgk	40	noun	phrase	1	8	nomatch	pour	-1	1	p	0.84496
360.6005	0.0	+	40	noun	phrase	1	9	nomatch	pour	-1	1	p	0.84496
361.0005	0.2	bleu	40	noun	phrase	1	10	nomatch	pour	-1	1	p	0.84496
361.20050000000003	0.0	+	40	noun	phrase	1	11	nomatch	pour	-1	1	p	0.84496
361.60040000000004	0.0	+	40	noun	phrase	1	12	nomatch	pour	-1	1	p	0.84496
363.6002	0.0	POUR	40	noun	phrase	1	13	nomatch	pour	-1	1	p	0.84496
364.50019999999995	0.0	+	40	noun	phrase	1	14	nomatch	pour	-1	1	p	0.84496
364.4452	0.0	[response]	40	noun	phrase	1	15	nomatch	pour	-1	1	p	0.84496
373.99929999999995	0.0	+	41	noun	list	3	1	nomatch	beaucoup	-1	1	p	1.1062
374.5493	0.2	vgrd	41	noun	list	3	2	nomatch	beaucoup	-1	1	p	1.1062
374.74929999999995	0.0	+	41	noun	list	3	3	nomatch	beaucoup	-1	1	p	1.1062
375.14919999999995	0.2	lzfq	41	noun	list	3	4	nomatch	beaucoup	-1	1	p	1.1062
375.3492	0.0	+	41	noun	list	3	5	nomatch	beaucoup	-1	1	p	1.1062
375.7492	0.2	mon	41	noun	list	3	6	nomatch	beaucoup	-1	1	p	1.1062
375.9492	0.0	+	41	noun	list	3	7	nomatch	beaucoup	-1	1	p	1.1062
376.3491	0.2	plus	41	noun	list	3	8	nomatch	beaucoup	-1	1	p	1.1062
376.54909999999995	0.0	+	41	noun	list	3	9	nomatch	beaucoup	-1	1	p	1.1062
376.94910000000004	0.2	grenier	41	noun	list	3	10	nomatch	beaucoup	-1	1	p	1.1062
377.1491	0.0	+	41	noun	list	3	11	nomatch	beaucoup	-1	1	p	1.1062
377.549	0.0	+	41	noun	list	3	12	nomatch	beaucoup	-1	1	p	1.1062
379.5489	0.0	BEAUCOUP	41	noun	list	3	13	nomatch	beaucoup	-1	1	p	1.1062
380.71540000000005	0.0	+	41	noun	list	3	14	nomatch	beaucoup	-1	1	p	1.1062
380.6550000000001	0.0	[response]	41	noun	list	3	15	nomatch	beaucoup	-1	1	p	1.1062
389.9479	0.0	+	42	noun	phrase	2	1	match	rouge	5	1	y	1.001
390.49789999999996	0.2	hxdpng	42	noun	phrase	2	2	match	rouge	5	1	y	1.001
390.6979	0.0	+	42	noun	phrase	2	3	match	rouge	5	1	y	1.001
391.0979	0.2	zpwn	42	noun	phrase	2	4	match	rouge	5	1	y	1.001
391.29779999999994	0.0	+	42	noun	phrase	2	5	match	rouge	5	1	y	1.001
391.69780000000003	0.2	blzh	42	noun	phrase	2	6	match	rouge	5	1	y	1.001
391.89779999999996	0.0	+	42	noun	phrase	2	7	match	rouge	5	1	y	1.001
392.29769999999996	0.2	panier	42	noun	phrase	2	8	match	rouge	5	1	y	1.001
392.4977	0.0	+	42	noun	phrase	2	9	match	rouge	5	1	y	1.001
392.8977	0.2	rouge	42	noun	phrase	2	10	match	rouge	5	1	y	1.001
393.09770000000003	0.0	+	42	noun	phrase	2	11	match	rouge	5	1	y	1.001
393.49760000000003	0.0	+	42	noun	phrase	2	12	match	rouge	5	1	y	1.001
395.49749999999995	0.0	ROUGE	42	noun	phrase	2	13	match	rouge	5	1	y	1.001
396.56399999999996	0.0	+	42	noun	phrase	2	14	match	rouge	5	1	y	1.001
396.49850000000004	0.0	[response]	42	noun	phrase	2	15	match	rouge	5	1	y	1.001
405.89660000000003	0.0	+	43	noun	list	1	1	match	trop	5	1	y	0.6832100000000001
406.4465	0.2	jvbp	43	noun	list	1	2	match	trop	5	1	y	0.6832100000000001
406.64650000000006	0.0	+	43	noun	list	1	3	match	trop	5	1	y	0.6832100000000001
407.04650000000004	0.2	brtg	43	noun	list	1	4	match	trop	5	1	y	0.6832100000000001
407.2464	0.0	+	43	noun	list	1	5	match	trop	5	1	y	0.6832100000000001
407.64639999999997	0.2	fml	43	noun	list	1	6	match	trop	5	1	y	0.6832100000000001
407.8464	0.0	+	43	noun	list	1	7	match	trop	5	1	y	0.6832100000000001
408.2464	0.2	qdcrhmz	43	noun	list	1	8	match	trop	5	1	y	0.6832100000000001
408.44630000000006	0.0	+	43	noun	list	1	9	match	trop	5	1	y	0.6832100000000001
408.84630000000004	0.2	trop	43	noun	list	1	10	match	trop	5	1	y	0.6832100000000001
409.0463	0.0	+	43	noun	list	1	11	match	trop	5	1	y	0.6832100000000001
409.44630000000006	0.0	+	43	noun	list	1	12	match	trop	5	1	y	0.6832100000000001
411.4461	0.0	TROP	43	noun	list	1	13	match	trop	5	1	y	0.6832100000000001
412.196	0.0	+	43	noun	list	1	14	match	trop	5	1	y	0.6832100000000001
412.12930000000006	0.0	[response]	43	noun	list	1	15	match	trop	5	1	y	0.6832100000000001
413.84590000000003	0.0	+	44	noun	list	2	1	match	boîtier	5	1	y	0.73858
414.3958	0.2	zgcl	44	noun	list	2	2	match	boîtier	5	1	y	0.73858
414.59580000000005	0.0	+	44	noun	list	2	3	match	boîtier	5	1	y	0.73858
414.99580000000003	0.2	lzfq	44	noun	list	2	4	match	boîtier	5	1	y	0.73858
415.1958000000001	0.0	+	44	noun	list	2	5	match	boîtier	5	1	y	0.73858
415.5957000000001	0.2	tvw	44	noun	list	2	6	match	boîtier	5	1	y	0.73858
415.7957	0.0	+	44	noun	list	2	7	match	boîtier	5	1	y	0.73858
416.1957	0.2	beaucoup	44	noun	list	2	8	match	boîtier	5	1	y	0.73858
416.39570000000003	0.0	+	44	noun	list	2	9	match	boîtier	5	1	y	0.73858
416.79560000000004	0.2	boîtier	44	noun	list	2	10	match	boîtier	5	1	y	0.73858
416.99559999999997	0.0	+	44	noun	list	2	11	match	boîtier	5	1	y	0.73858
417.39560000000006	0.0	+	44	noun	list	2	12	match	boîtier	5	1	y	0.73858
419.3954	0.0	BOÎTIER	44	noun	list	2	13	match	boîtier	5	1	y	0.73858
420.1953	0.0	+	44	noun	list	2	14	match	boîtier	5	1	y	0.73858
420.134	0.0	[response]	44	noun	list	2	15	match	boîtier	5	1	y	0.73858
421.7952	0.0	+	45	verb	phrase	1	1	match	ainsi	5	1	y	0.59932
422.3451	0.2	cdfvxqn	45	verb	phrase	1	2	match	ainsi	5	1	y	0.59932
422.54510000000005	0.0	+	45	verb	phrase	1	3	match	ainsi	5	1	y	0.59932
422.9451	0.2	brtg	45	verb	phrase	1	4	match	ainsi	5	1	y	0.59932
423.14510000000007	0.0	+	45	verb	phrase	1	5	match	ainsi	5	1	y	0.59932
423.5450000000001	0.2	vp	45	verb	phrase	1	6	match	ainsi	5	1	y	0.59932
423.745	0.0	+	45	verb	phrase	1	7	match	ainsi	5	1	y	0.59932
424.145	0.2	tpdzsgn	45	verb	phrase	1	8	match	ainsi	5	1	y	0.59932
424.345	0.0	+	45	verb	phrase	1	9	match	ainsi	5	1	y	0.59932
424.74490000000003	0.2	ainsi	45	verb	phrase	1	10	match	ainsi	5	1	y	0.59932
424.9449000000001	0.0	+	45	verb	phrase	1	11	match	ainsi	5	1	y	0.59932
425.34490000000005	0.0	+	45	verb	phrase	1	12	match	ainsi	5	1	y	0.59932
427.3447	0.0	AINSI	45	verb	phrase	1	13	match	ainsi	5	1	y	0.59932
428.0113	0.0	+	45	verb	phrase	1	14	match	ainsi	5	1	y	0.59932
427.9440000000001	0.0	[response]	45	verb	phrase	1	15	match	ainsi	5	1	y	0.59932
429.7445	0.0	+	46	verb	phrase	4	1	nomatch	jongler	-1	1	p	0.67164
430.2944	0.2	fvkgx	46	verb	phrase	4	2	nomatch	jongler	-1	1	p	0.67164
430.49440000000004	0.0	+	46	verb	phrase	4	3	nomatch	jongler	-1	1	p	0.67164
430.8944	0.2	yves	46	verb	phrase	4	4	nomatch	jongler	-1	1	p	0.67164
431.09440000000006	0.0	+	46	verb	phrase	4	5	nomatch	jongler	-1	1	p	0.67164
431.49430000000007	0.2	doit	46	verb	phrase	4	6	nomatch	jongler	-1	1	p	0.67164
431.6943	0.0	+	46	verb	phrase	4	7	nomatch	jongler	-1	1	p	0.67164
432.0943	0.2	chasser	46	verb	phrase	4	8	nomatch	jongler	-1	1	p	0.67164
432.2943	0.0	+	46	verb	phrase	4	9	nomatch	jongler	-1	1	p	0.67164
432.6942	0.2	vite	46	verb	phrase	4	10	nomatch	jongler	-1	1	p	0.67164
432.89420000000007	0.0	+	46	verb	phrase	4	11	nomatch	jongler	-1	1	p	0.67164
433.29420000000005	0.0	+	46	verb	phrase	4	12	nomatch	jongler	-1	1	p	0.67164
435.294	0.0	JONGLER	46	verb	phrase	4	13	nomatch	jongler	-1	1	p	0.67164
436.02729999999997	0.0	+	46	verb	phrase	4	14	nomatch	jongler	-1	1	p	0.67164
435.96569999999997	0.0	[response]	46	verb	phrase	4	15	nomatch	jongler	-1	1	p	0.67164
437.6938	0.0	+	47	verb	phrase	1	1	nomatch	mon	-1	1	p	0.69044
438.2438000000001	0.2	wxfnp	47	verb	phrase	1	2	nomatch	mon	-1	1	p	0.69044
438.44370000000004	0.0	+	47	verb	phrase	1	3	nomatch	mon	-1	1	p	0.69044
438.8437	0.2	hkr	47	verb	phrase	1	4	nomatch	mon	-1	1	p	0.69044
439.04370000000006	0.0	+	47	verb	phrase	1	5	nomatch	mon	-1	1	p	0.69044
439.44360000000006	0.2	smjp	47	verb	phrase	1	6	nomatch	mon	-1	1	p	0.69044
439.6436	0.0	+	47	verb	phrase	1	7	nomatch	mon	-1	1	p	0.69044
440.04359999999997	0.2	mgkc	47	verb	phrase	1	8	nomatch	mon	-1	1	p	0.69044
440.2436	0.0	+	47	verb	phrase	1	9	nomatch	mon	-1	1	p	0.69044
440.6435	0.2	rouler	47	verb	phrase	1	10	nomatch	mon	-1	1	p	0.69044
440.84350000000006	0.0	+	47	verb	phrase	1	11	nomatch	mon	-1	1	p	0.69044
441.24350000000004	0.0	+	47	verb	phrase	1	12	nomatch	mon	-1	1	p	0.69044
443.2433	0.0	MON	47	verb	phrase	1	13	nomatch	mon	-1	1	p	0.69044
443.9932	0.0	+	47	verb	phrase	1	14	nomatch	mon	-1	1	p	0.69044
443.9338	0.0	[response]	47	verb	phrase	1	15	nomatch	mon	-1	1	p	0.69044
445.6431	0.0	+	48	noun	phrase	1	1	match	nouveau	5	1	y	0.66882
446.1931000000001	0.2	mkjwg	48	noun	phrase	1	2	match	nouveau	5	1	y	0.66882
446.39300000000003	0.0	+	48	noun	phrase	1	3	match	nouveau	5	1	y	0.66882
446.793	0.2	zpwn	48	noun	phrase	1	4	match	nouveau	5	1	y	0.66882
446.99300000000005	0.0	+	48	noun	phrase	1	5	match	nouveau	5	1	y	0.66882
447.39300000000003	0.2	blzh	48	noun	phrase	1	6	match	nouveau	5	1	y	0.66882
447.5929	0.0	+	48	noun	phrase	1	7	match	nouveau	5	1	y	0.66882
447.9929000000001	0.2	jrnfgk	48	noun	phrase	1	8	match	nouveau	5	1	y	0.66882
448.1929	0.0	+	48	noun	phrase	1	9	match	nouveau	5	1	y	0.66882
448.5929	0.2	nouveau	48	noun	phrase	1	10	match	nouveau	5	1	y	0.66882
448.79280000000006	0.0	+	48	noun	phrase	1	11	match	nouveau	5	1	y	0.66882
449.19280000000003	0.0	+	48	noun	phrase	1	12	match	nouveau	5	1	y	0.66882
451.19259999999997	0.0	NOUVEAU	48	noun	phrase	1	13	match	nouveau	5	1	y	0.66882
451.92590000000007	0.0	+	48	noun	phrase	1	14	match	nouveau	5	1	y	0.66882
451.8614	0.0	[response]	48	noun	phrase	1	15	match	nouveau	5	1	y	0.66882
453.5924	0.0	+	49	verb	list	1	1	nomatch	plus	-1	1	p	0.72759
454.14240000000007	0.2	ztwn	49	verb	list	1	2	nomatch	plus	-1	1	p	0.72759
454.3424	0.0	+	49	verb	list	1	3	nomatch	plus	-1	1	p	0.72759
454.7423	0.2	zmbq	49	verb	list	1	4	nomatch	plus	-1	1	p	0.72759
454.94230000000005	0.0	+	49	verb	list	1	5	nomatch	plus	-1	1	p	0.72759
455.3423	0.2	tvw	49	verb	list	1	6	nomatch	plus	-1	1	p	0.72759
455.54230000000007	0.0	+	49	verb	list	1	7	nomatch	plus	-1	1	p	0.72759
455.94220000000007	0.2	nldp	49	verb	list	1	8	nomatch	plus	-1	1	p	0.72759
456.1422	0.0	+	49	verb	list	1	9	nomatch	plus	-1	1	p	0.72759
456.5422	0.2	voyager	49	verb	list	1	10	nomatch	plus	-1	1	p	0.72759
456.74210000000005	0.0	+	49	verb	list	1	11	nomatch	plus	-1	1	p	0.72759
457.1421	0.0	+	49	verb	list	1	12	nomatch	plus	-1	1	p	0.72759
459.1419000000001	0.0	PLUS	49	verb	list	1	13	nomatch	plus	-1	1	p	0.72759
459.9252	0.0	+	49	verb	list	1	14	nomatch	plus	-1	1	p	0.72759
459.8695	0.0	[response]	49	verb	list	1	15	nomatch	plus	-1	1	p	0.72759
469.54100000000005	0.0	+	50	noun	phrase	3	1	nomatch	beau	-1	1	p	1.3246
470.091	0.2	snprd	50	noun	phrase	3	2	nomatch	beau	-1	1	p	1.3246
470.29100000000005	0.0	+	50	noun	phrase	3	3	nomatch	beau	-1	1	p	1.3246
470.69090000000006	0.2	zpwn	50	noun	phrase	3	4	nomatch	beau	-1	1	p	1.3246
470.8909	0.0	+	50	noun	phrase	3	5	nomatch	beau	-1	1	p	1.3246
471.2909000000001	0.2	leur	50	noun	phrase	3	6	nomatch	beau	-1	1	p	1.3246
471.4909	0.0	+	50	noun	phrase	3	7	nomatch	beau	-1	1	p	1.3246
471.8908	0.2	nouveau	50	noun	phrase	3	8	nomatch	beau	-1	1	p	1.3246
472.09080000000006	0.0	+	50	noun	phrase	3	9	nomatch	beau	-1	1	p	1.3246
472.49080000000004	0.2	grenier	50	noun	phrase	3	10	nomatch	beau	-1	1	p	1.3246
472.69079999999997	0.0	+	50	noun	phrase	3	11	nomatch	beau	-1	1	p	1.3246
473.09069999999997	0.0	+	50	noun	phrase	3	12	nomatch	beau	-1	1	p	1.3246
475.0906	0.0	BEAU	50	noun	phrase	3	13	nomatch	beau	-1	1	p	1.3246
476.4738	0.0	+	50	noun	phrase	3	14	nomatch	beau	-1	1	p	1.3246
476.4152	0.0	[response]	50	noun	phrase	3	15	nomatch	beau	-1	1	p	1.3246
477.49030000000005	0.0	+	51	noun	list	4	1	match	son	3	1	y	0.81492
478.0403	0.2	cqvw	51	noun	list	4	2	match	son	3	1	y	0.81492
478.24030000000005	0.0	+	51	noun	list	4	3	match	son	3	1	y	0.81492
478.64020000000005	0.2	marc	51	noun	list	4	4	match	son	3	1	y	0.81492
478.8402	0.0	+	51	noun	list	4	5	match	son	3	1	y	0.81492
479.2402000000001	0.2	son	51	noun	list	4	6	match	son	3	1	y	0.81492
479.4402	0.0	+	51	noun	list	4	7	match	son	3	1	y	0.81492
479.8401	0.2	plus	51	noun	list	4	8	match	son	3	1	y	0.81492
480.04010000000005	0.0	+	51	noun	list	4	9	match	son	3	1	y	0.81492
480.44010000000003	0.2	cendrier	51	noun	list	4	10	match	son	3	1	y	0.81492
480.6401000000001	0.0	+	51	noun	list	4	11	match	son	3	1	y	0.81492
481.0400000000001	0.0	+	51	noun	list	4	12	match	son	3	1	y	0.81492
483.0399	0.0	SON	51	noun	list	4	13	match	son	3	1	y	0.81492
483.9231	0.0	+	51	noun	list	4	14	match	son	3	1	y	0.81492
483.85480000000007	0.0	[response]	51	noun	list	4	15	match	son	3	1	y	0.81492
485.43960000000004	0.0	+	52	verb	list	1	1	nomatch	petit	-1	1	p	0.91171
485.9896	0.2	mtj	52	verb	list	1	2	nomatch	petit	-1	1	p	0.91171
486.18960000000004	0.0	+	52	verb	list	1	3	nomatch	petit	-1	1	p	0.91171
486.5896	0.2	ckl	52	verb	list	1	4	nomatch	petit	-1	1	p	0.91171
486.7895	0.0	+	52	verb	list	1	5	nomatch	petit	-1	1	p	0.91171
487.18950000000007	0.2	vp	52	verb	list	1	6	nomatch	petit	-1	1	p	0.91171
487.3895	0.0	+	52	verb	list	1	7	nomatch	petit	-1	1	p	0.91171
487.7894	0.2	fwsljkp	52	verb	list	1	8	nomatch	petit	-1	1	p	0.91171
487.98940000000005	0.0	+	52	verb	list	1	9	nomatch	petit	-1	1	p	0.91171
488.3894	0.2	beau	52	verb	list	1	10	nomatch	petit	-1	1	p	0.91171
488.58940000000007	0.0	+	52	verb	list	1	11	nomatch	petit	-1	1	p	0.91171
488.98940000000005	0.0	+	52	verb	list	1	12	nomatch	petit	-1	1	p	0.91171
490.9892	0.0	PETIT	52	verb	list	1	13	nomatch	petit	-1	1	p	0.91171
491.9557	0.0	+	52	verb	list	1	14	nomatch	petit	-1	1	p	0.91171
491.9009000000001	0.0	[response]	52	verb	list	1	15	nomatch	petit	-1	1	p	0.91171
501.3883000000001	0.0	+	53	verb	list	4	1	nomatch	parader	-1	1	p	0.72712
501.93820000000005	0.2	jcts	53	verb	list	4	2	nomatch	parader	-1	1	p	0.72712
502.1382	0.0	+	53	verb	list	4	3	nomatch	parader	-1	1	p	0.72712
502.5382000000001	0.2	adam	53	verb	list	4	4	nomatch	parader	-1	1	p	0.72712
502.7382	0.0	+	53	verb	list	4	5	nomatch	parader	-1	1	p	0.72712
503.1381	0.2	son	53	verb	list	4	6	nomatch	parader	-1	1	p	0.72712
503.33810000000005	0.0	+	53	verb	list	4	7	nomatch	parader	-1	1	p	0.72712
503.73810000000003	0.2	rouler	53	verb	list	4	8	nomatch	parader	-1	1	p	0.72712
503.938	0.0	+	53	verb	list	4	9	nomatch	parader	-1	1	p	0.72712
504.3380000000001	0.2	noir	53	verb	list	4	10	nomatch	parader	-1	1	p	0.72712
504.538	0.0	+	53	verb	list	4	11	nomatch	parader	-1	1	p	0.72712
504.938	0.0	+	53	verb	list	4	12	nomatch	parader	-1	1	p	0.72712
506.93780000000004	0.0	PARADER	53	verb	list	4	13	nomatch	parader	-1	1	p	0.72712
507.721	0.0	+	53	verb	list	4	14	nomatch	parader	-1	1	p	0.72712
507.6649	0.0	[response]	53	verb	list	4	15	nomatch	parader	-1	1	p	0.72712
509.33760000000007	0.0	+	54	noun	list	2	1	nomatch	grenier	-1	1	p	0.99521
509.88750000000005	0.2	zbrh	54	noun	list	2	2	nomatch	grenier	-1	1	p	0.99521
510.0875	0.0	+	54	noun	list	2	3	nomatch	grenier	-1	1	p	0.99521
510.48750000000007	0.2	zpwn	54	noun	list	2	4	nomatch	grenier	-1	1	p	0.99521
510.6875	0.0	+	54	noun	list	2	5	nomatch	grenier	-1	1	p	0.99521
511.0874	0.2	njsf	54	noun	list	2	6	nomatch	grenier	-1	1	p	0.99521
511.28740000000005	0.0	+	54	noun	list	2	7	nomatch	grenier	-1	1	p	0.99521
511.6874	0.2	panier	54	noun	list	2	8	nomatch	grenier	-1	1	p	0.99521
511.88740000000007	0.0	+	54	noun	list	2	9	nomatch	grenier	-1	1	p	0.99521
512.2873000000001	0.2	ainsi	54	noun	list	2	10	nomatch	grenier	-1	1	p	0.99521
512.4873	0.0	+	54	noun	list	2	11	nomatch	grenier	-1	1	p	0.99521
512.8873	0.0	+	54	noun	list	2	12	nomatch	grenier	-1	1	p	0.99521
514.8871	0.0	GRENIER	54	noun	list	2	13	nomatch	grenier	-1	1	p	0.99521
515.937	0.0	+	54	noun	list	2	14	nomatch	grenier	-1	1	p	0.99521
515.8823	0.0	[response]	54	noun	list	2	15	nomatch	grenier	-1	1	p	0.99521
517.2869000000001	0.0	+	55	noun	phrase	3	1	nomatch	mieux	-1	1	p	1.0461000000000003
517.8368	0.2	lkpsx	55	noun	phrase	3	2	nomatch	mieux	-1	1	p	1.0461000000000003
518.0368	0.0	+	55	noun	phrase	3	3	nomatch	mieux	-1	1	p	1.0461000000000003
518.4368000000001	0.2	klgc	55	noun	phrase	3	4	nomatch	mieux	-1	1	p	1.0461000000000003
518.6368	0.0	+	55	noun	phrase	3	5	nomatch	mieux	-1	1	p	1.0461000000000003
519.0367	0.2	son	55	noun	phrase	3	6	nomatch	mieux	-1	1	p	1.0461000000000003
519.2367	0.0	+	55	noun	phrase	3	7	nomatch	mieux	-1	1	p	1.0461000000000003
519.6367	0.2	beau	55	noun	phrase	3	8	nomatch	mieux	-1	1	p	1.0461000000000003
519.8367000000001	0.0	+	55	noun	phrase	3	9	nomatch	mieux	-1	1	p	1.0461000000000003
520.2366000000001	0.2	voilier	55	noun	phrase	3	10	nomatch	mieux	-1	1	p	1.0461000000000003
520.4366	0.0	+	55	noun	phrase	3	11	nomatch	mieux	-1	1	p	1.0461000000000003
520.8366	0.0	+	55	noun	phrase	3	12	nomatch	mieux	-1	1	p	1.0461000000000003
522.8364	0.0	MIEUX	55	noun	phrase	3	13	nomatch	mieux	-1	1	p	1.0461000000000003
523.953	0.0	+	55	noun	phrase	3	14	nomatch	mieux	-1	1	p	1.0461000000000003
523.8825	0.0	[response]	55	noun	phrase	3	15	nomatch	mieux	-1	1	p	1.0461000000000003
541.2348000000001	0.0	+	56	verb	phrase	1	1	match	loin	5	1	y	0.74342
541.7848	0.2	ksfvtq	56	verb	phrase	1	2	match	loin	5	1	y	0.74342
541.9848000000001	0.0	+	56	verb	phrase	1	3	match	loin	5	1	y	0.74342
542.4014	0.2	xhvf	56	verb	phrase	1	4	match	loin	5	1	y	0.74342
542.6014	0.0	+	56	verb	phrase	1	5	match	loin	5	1	y	0.74342
543.0013	0.2	njsf	56	verb	phrase	1	6	match	loin	5	1	y	0.74342
543.2013000000001	0.0	+	56	verb	phrase	1	7	match	loin	5	1	y	0.74342
543.6013	0.2	kgvfblm	56	verb	phrase	1	8	match	loin	5	1	y	0.74342
543.8013	0.0	+	56	verb	phrase	1	9	match	loin	5	1	y	0.74342
544.2012	0.2	loin	56	verb	phrase	1	10	match	loin	5	1	y	0.74342
544.4012	0.0	+	56	verb	phrase	1	11	match	loin	5	1	y	0.74342
544.8012	0.0	+	56	verb	phrase	1	12	match	loin	5	1	y	0.74342
546.801	0.0	LOIN	56	verb	phrase	1	13	match	loin	5	1	y	0.74342
547.6009	0.0	+	56	verb	phrase	1	14	match	loin	5	1	y	0.74342
547.5444	0.0	[response]	56	verb	phrase	1	15	match	loin	5	1	y	0.74342
549.2008000000001	0.0	+	57	verb	list	2	1	match	noir	5	1	y	0.90742
549.7507	0.2	dcjzt	57	verb	list	2	2	match	noir	5	1	y	0.90742
549.9507	0.0	+	57	verb	list	2	3	match	noir	5	1	y	0.90742
550.3507000000001	0.2	gjfq	57	verb	list	2	4	match	noir	5	1	y	0.90742
550.5507	0.0	+	57	verb	list	2	5	match	noir	5	1	y	0.90742
550.9506	0.2	blzh	57	verb	list	2	6	match	noir	5	1	y	0.90742
551.1506	0.0	+	57	verb	list	2	7	match	noir	5	1	y	0.90742
551.5506	0.2	rouler	57	verb	list	2	8	match	noir	5	1	y	0.90742
551.7527	0.0	+	57	verb	list	2	9	match	noir	5	1	y	0.90742
552.1505000000001	0.2	noir	57	verb	list	2	10	match	noir	5	1	y	0.90742
552.3505	0.0	+	57	verb	list	2	11	match	noir	5	1	y	0.90742
552.7505	0.0	+	57	verb	list	2	12	match	noir	5	1	y	0.90742
554.7503	0.0	NOIR	57	verb	list	2	13	match	noir	5	1	y	0.90742
555.7169	0.0	+	57	verb	list	2	14	match	noir	5	1	y	0.90742
555.6577	0.0	[response]	57	verb	list	2	15	match	noir	5	1	y	0.90742
557.1501000000001	0.0	+	58	noun	list	3	1	nomatch	cendrier	-1	1	p	0.89013
557.7	0.2	knl	58	noun	list	3	2	nomatch	cendrier	-1	1	p	0.89013
557.9	0.0	+	58	noun	list	3	3	nomatch	cendrier	-1	1	p	0.89013
558.3000000000001	0.2	lzfq	58	noun	list	3	4	nomatch	cendrier	-1	1	p	0.89013
558.5	0.0	+	58	noun	list	3	5	nomatch	cendrier	-1	1	p	0.89013
558.8999	0.2	son	58	noun	list	3	6	nomatch	cendrier	-1	1	p	0.89013
559.0999	0.0	+	58	noun	list	3	7	nomatch	cendrier	-1	1	p	0.89013
559.4999	0.2	mieux	58	noun	list	3	8	nomatch	cendrier	-1	1	p	0.89013
559.6999000000001	0.0	+	58	noun	list	3	9	nomatch	cendrier	-1	1	p	0.89013
560.0998000000001	0.2	tablier	58	noun	list	3	10	nomatch	cendrier	-1	1	p	0.89013
560.2998	0.0	+	58	noun	list	3	11	nomatch	cendrier	-1	1	p	0.89013
560.6998	0.0	+	58	noun	list	3	12	nomatch	cendrier	-1	1	p	0.89013
562.6996	0.0	CENDRIER	58	noun	list	3	13	nomatch	cendrier	-1	1	p	0.89013
563.6495	0.0	+	58	noun	list	3	14	nomatch	cendrier	-1	1	p	0.89013
563.5897	0.0	[response]	58	noun	list	3	15	nomatch	cendrier	-1	1	p	0.89013
565.0994000000001	0.0	+	59	verb	list	1	1	nomatch	plus	-1	1	p	0.79832
565.6494	0.2	bdgtv	59	verb	list	1	2	nomatch	plus	-1	1	p	0.79832
565.8493	0.0	+	59	verb	list	1	3	nomatch	plus	-1	1	p	0.79832
566.2493000000001	0.2	klgc	59	verb	list	1	4	nomatch	plus	-1	1	p	0.79832
566.4493	0.0	+	59	verb	list	1	5	nomatch	plus	-1	1	p	0.79832
566.8492	0.2	vp	59	verb	list	1	6	nomatch	plus	-1	1	p	0.79832
567.0492	0.0	+	59	verb	list	1	7	nomatch	plus	-1	1	p	0.79832
567.4492	0.2	pzgfx	59	verb	list	1	8	nomatch	plus	-1	1	p	0.79832
567.6492000000001	0.0	+	59	verb	list	1	9	nomatch	plus	-1	1	p	0.79832
568.0491000000001	0.2	patiner	59	verb	list	1	10	nomatch	plus	-1	1	p	0.79832
568.2491	0.0	+	59	verb	list	1	11	nomatch	plus	-1	1	p	0.79832
568.6491	0.0	+	59	verb	list	1	12	nomatch	plus	-1	1	p	0.79832
570.6489	0.0	PLUS	59	verb	list	1	13	nomatch	plus	-1	1	p	0.79832
571.5155	0.0	+	59	verb	list	1	14	nomatch	plus	-1	1	p	0.79832
571.4472000000001	0.0	[response]	59	verb	list	1	15	nomatch	plus	-1	1	p	0.79832
581.048	0.0	+	60	verb	list	3	1	nomatch	sur	-1	1	p	0.72133
581.5980000000001	0.2	pnvjw	60	verb	list	3	2	nomatch	sur	-1	1	p	0.72133
581.798	0.0	+	60	verb	list	3	3	nomatch	sur	-1	1	p	0.72133
582.1979	0.2	zpwn	60	verb	list	3	4	nomatch	sur	-1	1	p	0.72133
582.3979	0.0	+	60	verb	list	3	5	nomatch	sur	-1	1	p	0.72133
582.7979	0.2	doit	60	verb	list	3	6	nomatch	sur	-1	1	p	0.72133
582.9978	0.0	+	60	verb	list	3	7	nomatch	sur	-1	1	p	0.72133
583.3978000000001	0.2	petit	60	verb	list	3	8	nomatch	sur	-1	1	p	0.72133
583.5978	0.0	+	60	verb	list	3	9	nomatch	sur	-1	1	p	0.72133
583.9978	0.2	voyager	60	verb	list	3	10	nomatch	sur	-1	1	p	0.72133
584.1977	0.0	+	60	verb	list	3	11	nomatch	sur	-1	1	p	0.72133
584.5977	0.0	+	60	verb	list	3	12	nomatch	sur	-1	1	p	0.72133
586.5975	0.0	SUR	60	verb	list	3	13	nomatch	sur	-1	1	p	0.72133
587.3808	0.0	+	60	verb	list	3	14	nomatch	sur	-1	1	p	0.72133
587.3189	0.0	[response]	60	verb	list	3	15	nomatch	sur	-1	1	p	0.72133
588.9973	0.0	+	61	noun	phrase	4	1	match	tablier	5	1	y	0.9696
589.5473000000001	0.2	wxv	61	noun	phrase	4	2	match	tablier	5	1	y	0.9696
589.7473	0.0	+	61	noun	phrase	4	3	match	tablier	5	1	y	0.9696
590.1472	0.2	vers	61	noun	phrase	4	4	match	tablier	5	1	y	0.9696
590.3472	0.0	+	61	noun	phrase	4	5	match	tablier	5	1	y	0.9696
590.7472	0.2	mon	61	noun	phrase	4	6	match	tablier	5	1	y	0.9696
590.9472000000001	0.0	+	61	noun	phrase	4	7	match	tablier	5	1	y	0.9696
591.3471000000001	0.2	nouveau	61	noun	phrase	4	8	match	tablier	5	1	y	0.9696
591.5471	0.0	+	61	noun	phrase	4	9	match	tablier	5	1	y	0.9696
591.9471	0.2	tablier	61	noun	phrase	4	10	match	tablier	5	1	y	0.9696
592.1471	0.0	+	61	noun	phrase	4	11	match	tablier	5	1	y	0.9696
592.547	0.0	+	61	noun	phrase	4	12	match	tablier	5	1	y	0.9696
594.5468000000001	0.0	TABLIER	61	noun	phrase	4	13	match	tablier	5	1	y	0.9696
595.5801	0.0	+	61	noun	phrase	4	14	match	tablier	5	1	y	0.9696
595.5164000000001	0.0	[response]	61	noun	phrase	4	15	match	tablier	5	1	y	0.9696
596.9466	0.0	+	62	verb	list	4	1	nomatch	blanc	-1	1	p	0.56433
597.4966000000001	0.2	lgt	62	verb	list	4	2	nomatch	blanc	-1	1	p	0.56433
597.6966	0.0	+	62	verb	list	4	3	nomatch	blanc	-1	1	p	0.56433
598.0965	0.2	jean	62	verb	list	4	4	nomatch	blanc	-1	1	p	0.56433
598.2965	0.0	+	62	verb	list	4	5	nomatch	blanc	-1	1	p	0.56433
598.6965	0.2	son	62	verb	list	4	6	nomatch	blanc	-1	1	p	0.56433
598.8965000000001	0.0	+	62	verb	list	4	7	nomatch	blanc	-1	1	p	0.56433
599.2964000000001	0.2	patiner	62	verb	list	4	8	nomatch	blanc	-1	1	p	0.56433
599.4964	0.0	+	62	verb	list	4	9	nomatch	blanc	-1	1	p	0.56433
599.8964	0.2	noir	62	verb	list	4	10	nomatch	blanc	-1	1	p	0.56433
600.0964	0.0	+	62	verb	list	4	11	nomatch	blanc	-1	1	p	0.56433
600.4963	0.0	+	62	verb	list	4	12	nomatch	blanc	-1	1	p	0.56433
602.4962	0.0	BLANC	62	verb	list	4	13	nomatch	blanc	-1	1	p	0.56433
603.1294	0.0	+	62	verb	list	4	14	nomatch	blanc	-1	1	p	0.56433
603.0605	0.0	[response]	62	verb	list	4	15	nomatch	blanc	-1	1	p	0.56433
604.8959	0.0	+	63	verb	phrase	2	1	nomatch	vert	-1	1	p	1.1381
605.4459	0.2	dvgwx	63	verb	phrase	2	2	nomatch	vert	-1	1	p	1.1381
605.6459	0.0	+	63	verb	phrase	2	3	nomatch	vert	-1	1	p	1.1381
606.0458	0.2	hkr	63	verb	phrase	2	4	nomatch	vert	-1	1	p	1.1381
606.2458	0.0	+	63	verb	phrase	2	5	nomatch	vert	-1	1	p	1.1381
606.6458	0.2	vp	63	verb	phrase	2	6	nomatch	vert	-1	1	p	1.1381
606.8458	0.0	+	63	verb	phrase	2	7	nomatch	vert	-1	1	p	1.1381
607.2457	0.2	trop	63	verb	phrase	2	8	nomatch	vert	-1	1	p	1.1381
607.4457	0.0	+	63	verb	phrase	2	9	nomatch	vert	-1	1	p	1.1381
607.8457000000001	0.2	voyager	63	verb	phrase	2	10	nomatch	vert	-1	1	p	1.1381
608.0457	0.0	+	63	verb	phrase	2	11	nomatch	vert	-1	1	p	1.1381
608.4456	0.0	+	63	verb	phrase	2	12	nomatch	vert	-1	1	p	1.1381
610.4455	0.0	VERT	63	verb	phrase	2	13	nomatch	vert	-1	1	p	1.1381
611.6454	0.0	+	63	verb	phrase	2	14	nomatch	vert	-1	1	p	1.1381
611.5836000000002	0.0	[response]	63	verb	phrase	2	15	nomatch	vert	-1	1	p	1.1381
612.8453000000001	0.0	+	64	verb	phrase	3	1	nomatch	voilier	-1	1	p	0.82999
613.3952	0.2	pbkrtlx	64	verb	phrase	3	2	nomatch	voilier	-1	1	p	0.82999
613.5952	0.0	+	64	verb	phrase	3	3	nomatch	voilier	-1	1	p	0.82999
613.9952000000001	0.2	gjfq	64	verb	phrase	3	4	nomatch	voilier	-1	1	p	0.82999
614.1951	0.0	+	64	verb	phrase	3	5	nomatch	voilier	-1	1	p	0.82999
614.5951	0.2	peut	64	verb	phrase	3	6	nomatch	voilier	-1	1	p	0.82999
614.7951	0.0	+	64	verb	phrase	3	7	nomatch	voilier	-1	1	p	0.82999
615.1951	0.2	parader	64	verb	phrase	3	8	nomatch	voilier	-1	1	p	0.82999
615.395	0.0	+	64	verb	phrase	3	9	nomatch	voilier	-1	1	p	0.82999
615.7950000000001	0.2	tôt	64	verb	phrase	3	10	nomatch	voilier	-1	1	p	0.82999
615.995	0.0	+	64	verb	phrase	3	11	nomatch	voilier	-1	1	p	0.82999
616.395	0.0	+	64	verb	phrase	3	12	nomatch	voilier	-1	1	p	0.82999
618.3948	0.0	VOILIER	64	verb	phrase	3	13	nomatch	voilier	-1	1	p	0.82999
619.2947	0.0	+	64	verb	phrase	3	14	nomatch	voilier	-1	1	p	0.82999
619.2248000000001	0.0	[response]	64	verb	phrase	3	15	nomatch	voilier	-1	1	p	0.82999
620.7946000000001	0.0	+	65	verb	phrase	1	1	nomatch	beaucoup	-1	1	p	0.73412
621.3445	0.2	hvkjs	65	verb	phrase	1	2	nomatch	beaucoup	-1	1	p	0.73412
621.5445	0.0	+	65	verb	phrase	1	3	nomatch	beaucoup	-1	1	p	0.73412
621.9445000000001	0.2	xhvf	65	verb	phrase	1	4	nomatch	beaucoup	-1	1	p	0.73412
622.1445	0.0	+	65	verb	phrase	1	5	nomatch	beaucoup	-1	1	p	0.73412
622.5444	0.2	njsf	65	verb	phrase	1	6	nomatch	beaucoup	-1	1	p	0.73412
622.7444	0.0	+	65	verb	phrase	1	7	nomatch	beaucoup	-1	1	p	0.73412
623.1444	0.2	pvhtxrz	65	verb	phrase	1	8	nomatch	beaucoup	-1	1	p	0.73412
623.3443	0.0	+	65	verb	phrase	1	9	nomatch	beaucoup	-1	1	p	0.73412
623.7443000000001	0.2	moins	65	verb	phrase	1	10	nomatch	beaucoup	-1	1	p	0.73412
623.9443	0.0	+	65	verb	phrase	1	11	nomatch	beaucoup	-1	1	p	0.73412
624.3443	0.0	+	65	verb	phrase	1	12	nomatch	beaucoup	-1	1	p	0.73412
626.3441	0.0	BEAUCOUP	65	verb	phrase	1	13	nomatch	beaucoup	-1	1	p	0.73412
627.144	0.0	+	65	verb	phrase	1	14	nomatch	beaucoup	-1	1	p	0.73412
627.0782	0.0	[response]	65	verb	phrase	1	15	nomatch	beaucoup	-1	1	p	0.73412
628.7439	0.0	+	66	noun	phrase	1	1	match	panier	5	1	y	0.7467400000000001
629.2938	0.2	qvjtpb	66	noun	phrase	1	2	match	panier	5	1	y	0.7467400000000001
629.4938000000001	0.0	+	66	noun	phrase	1	3	match	panier	5	1	y	0.7467400000000001
629.8938	0.2	klgc	66	noun	phrase	1	4	match	panier	5	1	y	0.7467400000000001
630.0938	0.0	+	66	noun	phrase	1	5	match	panier	5	1	y	0.7467400000000001
630.4937	0.2	fml	66	noun	phrase	1	6	match	panier	5	1	y	0.7467400000000001
630.6937	0.0	+	66	noun	phrase	1	7	match	panier	5	1	y	0.7467400000000001
631.0937	0.2	gnkf	66	noun	phrase	1	8	match	panier	5	1	y	0.7467400000000001
631.2937000000001	0.0	+	66	noun	phrase	1	9	match	panier	5	1	y	0.7467400000000001
631.6936000000001	0.2	panier	66	noun	phrase	1	10	match	panier	5	1	y	0.7467400000000001
631.8936	0.0	+	66	noun	phrase	1	11	match	panier	5	1	y	0.7467400000000001
632.2936	0.0	+	66	noun	phrase	1	12	match	panier	5	1	y	0.7467400000000001
634.2934	0.0	PANIER	66	noun	phrase	1	13	match	panier	5	1	y	0.7467400000000001
635.11	0.0	+	66	noun	phrase	1	14	match	panier	5	1	y	0.7467400000000001
635.0401	0.0	[response]	66	noun	phrase	1	15	match	panier	5	1	y	0.7467400000000001
636.6932	0.0	+	67	verb	list	1	1	match	nouveau	5	1	y	0.6812700000000002
637.2431	0.2	zfsq	67	verb	list	1	2	match	nouveau	5	1	y	0.6812700000000002
637.4431000000001	0.0	+	67	verb	list	1	3	match	nouveau	5	1	y	0.6812700000000002
637.8431	0.2	jpqd	67	verb	list	1	4	match	nouveau	5	1	y	0.6812700000000002
638.0431	0.0	+	67	verb	list	1	5	match	nouveau	5	1	y	0.6812700000000002
638.443	0.2	njsf	67	verb	list	1	6	match	nouveau	5	1	y	0.6812700000000002
638.643	0.0	+	67	verb	list	1	7	match	nouveau	5	1	y	0.6812700000000002
639.043	0.2	bftwcs	67	verb	list	1	8	match	nouveau	5	1	y	0.6812700000000002
639.243	0.0	+	67	verb	list	1	9	match	nouveau	5	1	y	0.6812700000000002
639.6429	0.2	nouveau	67	verb	list	1	10	match	nouveau	5	1	y	0.6812700000000002
639.8429	0.0	+	67	verb	list	1	11	match	nouveau	5	1	y	0.6812700000000002
640.2429000000001	0.0	+	67	verb	list	1	12	match	nouveau	5	1	y	0.6812700000000002
642.2427	0.0	NOUVEAU	67	verb	list	1	13	match	nouveau	5	1	y	0.6812700000000002
642.9926	0.0	+	67	verb	list	1	14	match	nouveau	5	1	y	0.6812700000000002
642.924	0.0	[response]	67	verb	list	1	15	match	nouveau	5	1	y	0.6812700000000002
644.6425	0.0	+	68	verb	phrase	1	1	match	patiner	5	1	y	0.67789
645.1925	0.2	gkthlvr	68	verb	phrase	1	2	match	patiner	5	1	y	0.67789
645.3924000000001	0.0	+	68	verb	phrase	1	3	match	patiner	5	1	y	0.67789
645.7924	0.2	brtg	68	verb	phrase	1	4	match	patiner	5	1	y	0.67789
645.9924	0.0	+	68	verb	phrase	1	5	match	patiner	5	1	y	0.67789
646.3923	0.2	smjp	68	verb	phrase	1	6	match	patiner	5	1	y	0.67789
646.5923	0.0	+	68	verb	phrase	1	7	match	patiner	5	1	y	0.67789
646.9923	0.2	xns	68	verb	phrase	1	8	match	patiner	5	1	y	0.67789
647.1923	0.0	+	68	verb	phrase	1	9	match	patiner	5	1	y	0.67789
647.5922	0.2	patiner	68	verb	phrase	1	10	match	patiner	5	1	y	0.67789
647.7922	0.0	+	68	verb	phrase	1	11	match	patiner	5	1	y	0.67789
648.1922000000001	0.0	+	68	verb	phrase	1	12	match	patiner	5	1	y	0.67789
650.192	0.0	PATINER	68	verb	phrase	1	13	match	patiner	5	1	y	0.67789
650.9253	0.0	+	68	verb	phrase	1	14	match	patiner	5	1	y	0.67789
650.8699	0.0	[response]	68	verb	phrase	1	15	match	patiner	5	1	y	0.67789
652.5918	0.0	+	69	verb	list	1	1	match	jongler	5	1	y	0.64025
653.1418	0.2	tzlgwj	69	verb	list	1	2	match	jongler	5	1	y	0.64025
653.3417000000001	0.0	+	69	verb	list	1	3	match	jongler	5	1	y	0.64025
653.7417	0.2	ckl	69	verb	list	1	4	match	jongler	5	1	y	0.64025
653.9417	0.0	+	69	verb	list	1	5	match	jongler	5	1	y	0.64025
654.3417000000001	0.2	vp	69	verb	list	1	6	match	jongler	5	1	y	0.64025
654.5416	0.0	+	69	verb	list	1	7	match	jongler	5	1	y	0.64025
654.9416	0.2	pwrbhks	69	verb	list	1	8	match	jongler	5	1	y	0.64025
655.1416	0.0	+	69	verb	list	1	9	match	jongler	5	1	y	0.64025
655.5416	0.2	jongler	69	verb	list	1	10	match	jongler	5	1	y	0.64025
655.7415	0.0	+	69	verb	list	1	11	match	jongler	5	1	y	0.64025
656.1415000000001	0.0	+	69	verb	list	1	12	match	jongler	5	1	y	0.64025
658.1413	0.0	JONGLER	69	verb	list	1	13	match	jongler	5	1	y	0.64025
658.8413	0.0	+	69	verb	list	1	14	match	jongler	5	1	y	0.64025
658.7816	0.0	[response]	69	verb	list	1	15	match	jongler	5	1	y	0.64025
660.5411	0.0	+	70	verb	list	1	1	nomatch	beau	-1	1	p	0.78106
661.0911	0.2	hsmrkbf	70	verb	list	1	2	nomatch	beau	-1	1	p	0.78106
661.2911	0.0	+	70	verb	list	1	3	nomatch	beau	-1	1	p	0.78106
661.691	0.2	klgc	70	verb	list	1	4	nomatch	beau	-1	1	p	0.78106
661.8910000000001	0.0	+	70	verb	list	1	5	nomatch	beau	-1	1	p	0.78106
662.291	0.2	smjp	70	verb	list	1	6	nomatch	beau	-1	1	p	0.78106
662.491	0.0	+	70	verb	list	1	7	nomatch	beau	-1	1	p	0.78106
662.8909	0.2	kgvfblm	70	verb	list	1	8	nomatch	beau	-1	1	p	0.78106
663.0909	0.0	+	70	verb	list	1	9	nomatch	beau	-1	1	p	0.78106
663.4909	0.2	vieux	70	verb	list	1	10	nomatch	beau	-1	1	p	0.78106
663.6908	0.0	+	70	verb	list	1	11	nomatch	beau	-1	1	p	0.78106
664.0908000000001	0.0	+	70	verb	list	1	12	nomatch	beau	-1	1	p	0.78106
666.0906	0.0	BEAU	70	verb	list	1	13	nomatch	beau	-1	1	p	0.78106
666.9406	0.0	+	70	verb	list	1	14	nomatch	beau	-1	1	p	0.78106
666.8717	0.0	[response]	70	verb	list	1	15	nomatch	beau	-1	1	p	0.78106
668.4904	0.0	+	71	noun	phrase	3	1	nomatch	leur	-1	1	p	0.57172
669.0404	0.2	wmjtgc	71	noun	phrase	3	2	nomatch	leur	-1	1	p	0.57172
669.2404	0.0	+	71	noun	phrase	3	3	nomatch	leur	-1	1	p	0.57172
669.6403	0.2	dthz	71	noun	phrase	3	4	nomatch	leur	-1	1	p	0.57172
669.8403000000001	0.0	+	71	noun	phrase	3	5	nomatch	leur	-1	1	p	0.57172
670.2403	0.2	son	71	noun	phrase	3	6	nomatch	leur	-1	1	p	0.57172
670.4403	0.0	+	71	noun	phrase	3	7	nomatch	leur	-1	1	p	0.57172
670.8402	0.2	nouveau	71	noun	phrase	3	8	nomatch	leur	-1	1	p	0.57172
671.0402	0.0	+	71	noun	phrase	3	9	nomatch	leur	-1	1	p	0.57172
671.4402	0.2	boîtier	71	noun	phrase	3	10	nomatch	leur	-1	1	p	0.57172
671.6402	0.0	+	71	noun	phrase	3	11	nomatch	leur	-1	1	p	0.57172
672.0401	0.0	+	71	noun	phrase	3	12	nomatch	leur	-1	1	p	0.57172
674.0399	0.0	LEUR	71	noun	phrase	3	13	nomatch	leur	-1	1	p	0.57172
674.6732000000001	0.0	+	71	noun	phrase	3	14	nomatch	leur	-1	1	p	0.57172
674.6117	0.0	[response]	71	noun	phrase	3	15	nomatch	leur	-1	1	p	0.57172
692.4383	0.0	+	72	verb	phrase	3	1	match	tard	5	1	y	0.6452000000000001
692.9883	0.2	qpcjlf	72	verb	phrase	3	2	match	tard	5	1	y	0.6452000000000001
693.1883	0.0	+	72	verb	phrase	3	3	match	tard	5	1	y	0.6452000000000001
693.5883	0.2	hkr	72	verb	phrase	3	4	match	tard	5	1	y	0.6452000000000001
693.7882000000001	0.0	+	72	verb	phrase	3	5	match	tard	5	1	y	0.6452000000000001
694.1882	0.2	va	72	verb	phrase	3	6	match	tard	5	1	y	0.6452000000000001
694.3882	0.0	+	72	verb	phrase	3	7	match	tard	5	1	y	0.6452000000000001
694.7882000000001	0.2	patiner	72	verb	phrase	3	8	match	tard	5	1	y	0.6452000000000001
694.9881	0.0	+	72	verb	phrase	3	9	match	tard	5	1	y	0.6452000000000001
695.3881	0.2	tard	72	verb	phrase	3	10	match	tard	5	1	y	0.6452000000000001
695.5881	0.0	+	72	verb	phrase	3	11	match	tard	5	1	y	0.6452000000000001
695.988	0.0	+	72	verb	phrase	3	12	match	tard	5	1	y	0.6452000000000001
697.9879	0.0	TARD	72	verb	phrase	3	13	match	tard	5	1	y	0.6452000000000001
698.6878	0.0	+	72	verb	phrase	3	14	match	tard	5	1	y	0.6452000000000001
698.6331	0.0	[response]	72	verb	phrase	3	15	match	tard	5	1	y	0.6452000000000001
700.3877	0.0	+	73	verb	list	3	1	nomatch	peut	-1	1	p	0.7517100000000001
700.9376	0.2	smf	73	verb	list	3	2	nomatch	peut	-1	1	p	0.7517100000000001
701.1376	0.0	+	73	verb	list	3	3	nomatch	peut	-1	1	p	0.7517100000000001
701.5376	0.2	klgc	73	verb	list	3	4	nomatch	peut	-1	1	p	0.7517100000000001
701.7375000000001	0.0	+	73	verb	list	3	5	nomatch	peut	-1	1	p	0.7517100000000001
702.1375	0.2	doit	73	verb	list	3	6	nomatch	peut	-1	1	p	0.7517100000000001
702.3375	0.0	+	73	verb	list	3	7	nomatch	peut	-1	1	p	0.7517100000000001
702.7375000000001	0.2	vieux	73	verb	list	3	8	nomatch	peut	-1	1	p	0.7517100000000001
702.9374	0.0	+	73	verb	list	3	9	nomatch	peut	-1	1	p	0.7517100000000001
703.3374	0.2	galoper	73	verb	list	3	10	nomatch	peut	-1	1	p	0.7517100000000001
703.5374	0.0	+	73	verb	list	3	11	nomatch	peut	-1	1	p	0.7517100000000001
703.9374	0.0	+	73	verb	list	3	12	nomatch	peut	-1	1	p	0.7517100000000001
705.9372000000001	0.0	PEUT	73	verb	list	3	13	nomatch	peut	-1	1	p	0.7517100000000001
706.7538000000001	0.0	+	73	verb	list	3	14	nomatch	peut	-1	1	p	0.7517100000000001
706.6889	0.0	[response]	73	verb	list	3	15	nomatch	peut	-1	1	p	0.7517100000000001
708.337	0.0	+	74	verb	list	3	1	match	rouler	5	1	y	0.67003
708.8869	0.2	qbw	74	verb	list	3	2	match	rouler	5	1	y	0.67003
709.0869	0.0	+	74	verb	list	3	3	match	rouler	5	1	y	0.67003
709.4869	0.2	jpqd	74	verb	list	3	4	match	rouler	5	1	y	0.67003
709.6869	0.0	+	74	verb	list	3	5	match	rouler	5	1	y	0.67003
710.0868	0.2	va	74	verb	list	3	6	match	rouler	5	1	y	0.67003
710.2868	0.0	+	74	verb	list	3	7	match	rouler	5	1	y	0.67003
710.6868000000001	0.2	grand	74	verb	list	3	8	match	rouler	5	1	y	0.67003
710.8868	0.0	+	74	verb	list	3	9	match	rouler	5	1	y	0.67003
711.2867	0.2	rouler	74	verb	list	3	10	match	rouler	5	1	y	0.67003
711.4867	0.0	+	74	verb	list	3	11	match	rouler	5	1	y	0.67003
711.8867	0.0	+	74	verb	list	3	12	match	rouler	5	1	y	0.67003
713.8865000000001	0.0	ROULER	74	verb	list	3	13	match	rouler	5	1	y	0.67003
714.6198	0.0	+	74	verb	list	3	14	match	rouler	5	1	y	0.67003
714.5565	0.0	[response]	74	verb	list	3	15	match	rouler	5	1	y	0.67003
716.2863	0.0	+	75	noun	phrase	1	1	nomatch	doit	-1	1	p	0.75893
716.8362000000001	0.2	fdc	75	noun	phrase	1	2	nomatch	doit	-1	1	p	0.75893
717.0362	0.0	+	75	noun	phrase	1	3	nomatch	doit	-1	1	p	0.75893
717.4362	0.2	slvm	75	noun	phrase	1	4	nomatch	doit	-1	1	p	0.75893
717.6362	0.0	+	75	noun	phrase	1	5	nomatch	doit	-1	1	p	0.75893
718.0361	0.2	fml	75	noun	phrase	1	6	nomatch	doit	-1	1	p	0.75893
718.2361000000001	0.0	+	75	noun	phrase	1	7	nomatch	doit	-1	1	p	0.75893
718.6361	0.2	rwmkscb	75	noun	phrase	1	8	nomatch	doit	-1	1	p	0.75893
718.8361	0.0	+	75	noun	phrase	1	9	nomatch	doit	-1	1	p	0.75893
719.236	0.2	beau	75	noun	phrase	1	10	nomatch	doit	-1	1	p	0.75893
719.436	0.0	+	75	noun	phrase	1	11	nomatch	doit	-1	1	p	0.75893
719.836	0.0	+	75	noun	phrase	1	12	nomatch	doit	-1	1	p	0.75893
721.8358000000001	0.0	DOIT	75	noun	phrase	1	13	nomatch	doit	-1	1	p	0.75893
722.6524000000001	0.0	+	75	noun	phrase	1	14	nomatch	doit	-1	1	p	0.75893
722.5947	0.0	[response]	75	noun	phrase	1	15	nomatch	doit	-1	1	p	0.75893
724.2356	0.0	+	76	verb	phrase	1	1	match	parader	5	1	y	0.74499
724.7855000000001	0.2	hqc	76	verb	phrase	1	2	match	parader	5	1	y	0.74499
724.9855	0.0	+	76	verb	phrase	1	3	match	parader	5	1	y	0.74499
725.3855	0.2	lzfq	76	verb	phrase	1	4	match	parader	5	1	y	0.74499
725.5855	0.0	+	76	verb	phrase	1	5	match	parader	5	1	y	0.74499
725.9854	0.2	smjp	76	verb	phrase	1	6	match	parader	5	1	y	0.74499
726.1854000000001	0.0	+	76	verb	phrase	1	7	match	parader	5	1	y	0.74499
726.5854	0.2	qkcx	76	verb	phrase	1	8	match	parader	5	1	y	0.74499
726.7854	0.0	+	76	verb	phrase	1	9	match	parader	5	1	y	0.74499
727.1853	0.2	parader	76	verb	phrase	1	10	match	parader	5	1	y	0.74499
727.3853	0.0	+	76	verb	phrase	1	11	match	parader	5	1	y	0.74499
727.7853	0.0	+	76	verb	phrase	1	12	match	parader	5	1	y	0.74499
729.7851	0.0	PARADER	76	verb	phrase	1	13	match	parader	5	1	y	0.74499
730.585	0.0	+	76	verb	phrase	1	14	match	parader	5	1	y	0.74499
730.5301000000001	0.0	[response]	76	verb	phrase	1	15	match	parader	5	1	y	0.74499
732.1849	0.0	+	77	verb	list	4	1	match	plonger	4	1	y	0.8152
732.7349	0.2	kxdzqbl	77	verb	list	4	2	match	plonger	4	1	y	0.8152
732.9348	0.0	+	77	verb	list	4	3	match	plonger	4	1	y	0.8152
733.3348	0.2	yves	77	verb	list	4	4	match	plonger	4	1	y	0.8152
733.5348	0.0	+	77	verb	list	4	5	match	plonger	4	1	y	0.8152
733.9348	0.2	mon	77	verb	list	4	6	match	plonger	4	1	y	0.8152
734.1347000000001	0.0	+	77	verb	list	4	7	match	plonger	4	1	y	0.8152
734.5514000000001	0.2	plonger	77	verb	list	4	8	match	plonger	4	1	y	0.8152
734.7513	0.0	+	77	verb	list	4	9	match	plonger	4	1	y	0.8152
735.1513	0.2	rouge	77	verb	list	4	10	match	plonger	4	1	y	0.8152
735.3513	0.0	+	77	verb	list	4	11	match	plonger	4	1	y	0.8152
735.7513	0.0	+	77	verb	list	4	12	match	plonger	4	1	y	0.8152
737.7511000000001	0.0	PLONGER	77	verb	list	4	13	match	plonger	4	1	y	0.8152
738.6343	0.0	+	77	verb	list	4	14	match	plonger	4	1	y	0.8152
738.5663000000001	0.0	[response]	77	verb	list	4	15	match	plonger	4	1	y	0.8152
740.1509	0.0	+	78	verb	phrase	4	1	match	doit	3	1	y	0.85758
740.7008000000001	0.2	dks	78	verb	phrase	4	2	match	doit	3	1	y	0.85758
740.9008	0.0	+	78	verb	phrase	4	3	match	doit	3	1	y	0.85758
741.3008	0.2	luc	78	verb	phrase	4	4	match	doit	3	1	y	0.85758
741.5008	0.0	+	78	verb	phrase	4	5	match	doit	3	1	y	0.85758
741.9007	0.2	doit	78	verb	phrase	4	6	match	doit	3	1	y	0.85758
742.1007000000001	0.0	+	78	verb	phrase	4	7	match	doit	3	1	y	0.85758
742.5007	0.2	beaucoup	78	verb	phrase	4	8	match	doit	3	1	y	0.85758
742.7007	0.0	+	78	verb	phrase	4	9	match	doit	3	1	y	0.85758
743.1006	0.2	galoper	78	verb	phrase	4	10	match	doit	3	1	y	0.85758
743.3006	0.0	+	78	verb	phrase	4	11	match	doit	3	1	y	0.85758
743.7006	0.0	+	78	verb	phrase	4	12	match	doit	3	1	y	0.85758
745.7004000000001	0.0	DOIT	78	verb	phrase	4	13	match	doit	3	1	y	0.85758
746.6170000000001	0.0	+	78	verb	phrase	4	14	match	doit	3	1	y	0.85758
746.558	0.0	[response]	78	verb	phrase	4	15	match	doit	3	1	y	0.85758
748.1002	0.0	+	79	verb	phrase	3	1	match	peut	3	1	y	0.67031
748.6501000000001	0.2	cdw	79	verb	phrase	3	2	match	peut	3	1	y	0.67031
748.8501	0.0	+	79	verb	phrase	3	3	match	peut	3	1	y	0.67031
749.2501	0.2	xhvf	79	verb	phrase	3	4	match	peut	3	1	y	0.67031
749.4501	0.0	+	79	verb	phrase	3	5	match	peut	3	1	y	0.67031
749.85	0.2	peut	79	verb	phrase	3	6	match	peut	3	1	y	0.67031
750.0500000000001	0.0	+	79	verb	phrase	3	7	match	peut	3	1	y	0.67031
750.45	0.2	mieux	79	verb	phrase	3	8	match	peut	3	1	y	0.67031
750.65	0.0	+	79	verb	phrase	3	9	match	peut	3	1	y	0.67031
751.0499	0.2	parader	79	verb	phrase	3	10	match	peut	3	1	y	0.67031
751.2499	0.0	+	79	verb	phrase	3	11	match	peut	3	1	y	0.67031
751.6499	0.0	+	79	verb	phrase	3	12	match	peut	3	1	y	0.67031
753.6497	0.0	PEUT	79	verb	phrase	3	13	match	peut	3	1	y	0.67031
754.383	0.0	+	79	verb	phrase	3	14	match	peut	3	1	y	0.67031
754.32	0.0	[response]	79	verb	phrase	3	15	match	peut	3	1	y	0.67031
756.0495000000001	0.0	+	80	verb	phrase	2	1	nomatch	tard	-1	1	p	0.76478
756.5995	0.2	jsbhrt	80	verb	phrase	2	2	nomatch	tard	-1	1	p	0.76478
756.7994	0.0	+	80	verb	phrase	2	3	nomatch	tard	-1	1	p	0.76478
757.1994	0.2	brtg	80	verb	phrase	2	4	nomatch	tard	-1	1	p	0.76478
757.3994	0.0	+	80	verb	phrase	2	5	nomatch	tard	-1	1	p	0.76478
757.7994	0.2	njsf	80	verb	phrase	2	6	nomatch	tard	-1	1	p	0.76478
757.9993000000001	0.0	+	80	verb	phrase	2	7	nomatch	tard	-1	1	p	0.76478
758.3993	0.2	plonger	80	verb	phrase	2	8	nomatch	tard	-1	1	p	0.76478
758.5993	0.0	+	80	verb	phrase	2	9	nomatch	tard	-1	1	p	0.76478
758.9992	0.2	ainsi	80	verb	phrase	2	10	nomatch	tard	-1	1	p	0.76478
759.1992	0.0	+	80	verb	phrase	2	11	nomatch	tard	-1	1	p	0.76478
759.5992	0.0	+	80	verb	phrase	2	12	nomatch	tard	-1	1	p	0.76478
761.599	0.0	TARD	80	verb	phrase	2	13	nomatch	tard	-1	1	p	0.76478
762.4323	0.0	+	80	verb	phrase	2	14	nomatch	tard	-1	1	p	0.76478
763.9988000000001	0.0	+	80	verb	phrase	2	15	nomatch	tard	-1	1	p	0.76478
765.0154	0.0	+	80	verb	phrase	2	16	nomatch	tard	-1	1	p	0.76478
765.1154	0.0	+	80	verb	phrase	2	17	nomatch	tard	-1	1	p	0.76478
766.4986	0.0	+	80	verb	phrase	2	18	nomatch	tard	-1	1	p	0.76478
766.5986	0.0	+	80	verb	phrase	2	19	nomatch	tard	-1	1	p	0.76478
768.0151000000001	0.0	+	80	verb	phrase	2	20	nomatch	tard	-1	1	p	0.76478
768.1151	0.0	+	80	verb	phrase	2	21	nomatch	tard	-1	1	p	0.76478
769.4983	0.0	+	80	verb	phrase	2	22	nomatch	tard	-1	1	p	0.76478
769.5983	0.0	+	80	verb	phrase	2	23	nomatch	tard	-1	1	p	0.76478
771.0149	0.0	+	80	verb	phrase	2	24	nomatch	tard	-1	1	p	0.76478
771.1149	0.0	+	80	verb	phrase	2	25	nomatch	tard	-1	1	p	0.76478
772.4981	0.0	+	80	verb	phrase	2	26	nomatch	tard	-1	1	p	0.76478
772.5981	0.0	+	80	verb	phrase	2	27	nomatch	tard	-1	1	p	0.76478
774.0146	0.0	+	80	verb	phrase	2	28	nomatch	tard	-1	1	p	0.76478
774.1146	0.0	+	80	verb	phrase	2	29	nomatch	tard	-1	1	p	0.76478
775.4978	0.0	+	80	verb	phrase	2	30	nomatch	tard	-1	1	p	0.76478
775.5978	0.0	+	80	verb	phrase	2	31	nomatch	tard	-1	1	p	0.76478
777.0143	0.0	+	80	verb	phrase	2	32	nomatch	tard	-1	1	p	0.76478
777.1143000000001	0.0	+	80	verb	phrase	2	33	nomatch	tard	-1	1	p	0.76478
778.4975000000001	0.0	+	80	verb	phrase	2	34	nomatch	tard	-1	1	p	0.76478
778.5975	0.0	+	80	verb	phrase	2	35	nomatch	tard	-1	1	p	0.76478
783.2971	0.0	+	80	verb	phrase	2	36	nomatch	tard	-1	1	p	0.76478
762.3638	0.0	[response]	80	verb	phrase	2	37	nomatch	tard	-1	1	p	0.76478
