onset	duration	stim	trial_number	trial_type	trial_structure	trial_length	sequential_position	probe_type	probe	probe_position	response_correct	response_key	response_time
0.05980000000000274	0.0	+	1	noun	phrase	1	1	nomatch	peut	-1	1	y	0.46096
0.542900000000003	0.2	lwjk	1	noun	phrase	1	2	nomatch	peut	-1	1	y	0.46096
0.7428000000000026	0.0	+	1	noun	phrase	1	3	nomatch	peut	-1	1	y	0.46096
1.1426000000000016	0.2	gxsd	1	noun	phrase	1	4	nomatch	peut	-1	1	y	0.46096
1.3425000000000011	0.0	+	1	noun	phrase	1	5	nomatch	peut	-1	1	y	0.46096
1.7423000000000002	0.2	bqm	1	noun	phrase	1	6	nomatch	peut	-1	1	y	0.46096
1.9421999999999997	0.0	+	1	noun	phrase	1	7	nomatch	peut	-1	1	y	0.46096
2.342100000000002	0.2	nwbfdgm	1	noun	phrase	1	8	nomatch	peut	-1	1	y	0.46096
2.5420000000000016	0.0	+	1	noun	phrase	1	9	nomatch	peut	-1	1	y	0.46096
2.9418000000000006	0.2	blanc	1	noun	phrase	1	10	nomatch	peut	-1	1	y	0.46096
3.1417	0.0	+	1	noun	phrase	1	11	nomatch	peut	-1	1	y	0.46096
3.541499999999999	0.0	+	1	noun	phrase	1	12	nomatch	peut	-1	1	y	0.46096
5.540600000000005	0.0	PEUT	1	noun	phrase	1	13	nomatch	peut	-1	1	y	0.46096
6.057099999999998	0.0	+	1	noun	phrase	1	14	nomatch	peut	-1	1	y	0.46096
6.001600000000003	0.0	[response]	1	noun	phrase	1	15	nomatch	peut	-1	1	y	0.46096
7.9395000000000024	0.0	+	2	noun	phrase	3	1	match	tablier	4	1	p	0.4846
8.489300000000007	0.2	xslcr	2	noun	phrase	3	2	match	tablier	4	1	p	0.4846
8.689200000000007	0.0	+	2	noun	phrase	3	3	match	tablier	4	1	p	0.4846
9.089000000000006	0.2	kgzb	2	noun	phrase	3	4	match	tablier	4	1	p	0.4846
9.288900000000005	0.0	+	2	noun	phrase	3	5	match	tablier	4	1	p	0.4846
9.688700000000004	0.2	son	2	noun	phrase	3	6	match	tablier	4	1	p	0.4846
9.888600000000004	0.0	+	2	noun	phrase	3	7	match	tablier	4	1	p	0.4846
10.289099999999998	0.2	tablier	2	noun	phrase	3	8	match	tablier	4	1	p	0.4846
10.488400000000006	0.0	+	2	noun	phrase	3	9	match	tablier	4	1	p	0.4846
10.888200000000005	0.2	bleu	2	noun	phrase	3	10	match	tablier	4	1	p	0.4846
11.088100000000004	0.0	+	2	noun	phrase	3	11	match	tablier	4	1	p	0.4846
11.487900000000003	0.0	+	2	noun	phrase	3	12	match	tablier	4	1	p	0.4846
13.487000000000002	0.0	TABLIER	2	noun	phrase	3	13	match	tablier	4	1	p	0.4846
14.036800000000007	0.0	+	2	noun	phrase	3	14	match	tablier	4	1	p	0.4846
13.971600000000002	0.0	[response]	2	noun	phrase	3	15	match	tablier	4	1	p	0.4846
15.8859	0.0	+	3	verb	list	1	1	nomatch	chasser	-1	1	y	0.5663
16.435700000000004	0.2	qdzv	3	verb	list	1	2	nomatch	chasser	-1	1	y	0.5663
16.635600000000004	0.0	+	3	verb	list	1	3	nomatch	chasser	-1	1	y	0.5663
17.035400000000003	0.2	psvm	3	verb	list	1	4	nomatch	chasser	-1	1	y	0.5663
17.235300000000002	0.0	+	3	verb	list	1	5	nomatch	chasser	-1	1	y	0.5663
17.6351	0.2	vh	3	verb	list	1	6	nomatch	chasser	-1	1	y	0.5663
17.835	0.0	+	3	verb	list	1	7	nomatch	chasser	-1	1	y	0.5663
18.234900000000003	0.2	jzstg	3	verb	list	1	8	nomatch	chasser	-1	1	y	0.5663
18.434800000000003	0.0	+	3	verb	list	1	9	nomatch	chasser	-1	1	y	0.5663
18.834600000000002	0.2	patiner	3	verb	list	1	10	nomatch	chasser	-1	1	y	0.5663
19.0345	0.0	+	3	verb	list	1	11	nomatch	chasser	-1	1	y	0.5663
19.4343	0.0	+	3	verb	list	1	12	nomatch	chasser	-1	1	y	0.5663
21.4501	0.0	CHASSER	3	verb	list	1	13	nomatch	chasser	-1	1	y	0.5663
22.083099999999995	0.0	+	3	verb	list	1	14	nomatch	chasser	-1	1	y	0.5663
22.016399999999997	0.0	[response]	3	verb	list	1	15	nomatch	chasser	-1	1	y	0.5663
23.848999999999997	0.0	+	4	verb	list	1	1	match	parader	5	1	p	0.40104
24.398699999999998	0.2	qgxm	4	verb	list	1	2	match	parader	5	1	p	0.40104
24.598599999999998	0.0	+	4	verb	list	1	3	match	parader	5	1	p	0.40104
24.9985	0.2	mrn	4	verb	list	1	4	match	parader	5	1	p	0.40104
25.1984	0.0	+	4	verb	list	1	5	match	parader	5	1	p	0.40104
25.5982	0.2	bqm	4	verb	list	1	6	match	parader	5	1	p	0.40104
25.798099999999998	0.0	+	4	verb	list	1	7	match	parader	5	1	p	0.40104
26.197899999999997	0.2	sjkf	4	verb	list	1	8	match	parader	5	1	p	0.40104
26.397799999999997	0.0	+	4	verb	list	1	9	match	parader	5	1	p	0.40104
26.797599999999996	0.2	parader	4	verb	list	1	10	match	parader	5	1	p	0.40104
26.9976	0.0	+	4	verb	list	1	11	match	parader	5	1	p	0.40104
27.397399999999998	0.0	+	4	verb	list	1	12	match	parader	5	1	p	0.40104
29.396499999999996	0.0	PARADER	4	verb	list	1	13	match	parader	5	1	p	0.40104
29.862900000000003	0.0	+	4	verb	list	1	14	match	parader	5	1	p	0.40104
29.797500000000007	0.0	[response]	4	verb	list	1	15	match	parader	5	1	p	0.40104
31.795400000000008	0.0	+	5	noun	phrase	4	1	match	beau	4	1	p	0.5592400000000001
32.345099999999995	0.2	bpmnf	5	noun	phrase	4	2	match	beau	4	1	p	0.5592400000000001
32.544999999999995	0.0	+	5	noun	phrase	4	3	match	beau	4	1	p	0.5592400000000001
32.9449	0.2	avec	5	noun	phrase	4	4	match	beau	4	1	p	0.5592400000000001
33.1448	0.0	+	5	noun	phrase	4	5	match	beau	4	1	p	0.5592400000000001
33.544599999999996	0.2	mon	5	noun	phrase	4	6	match	beau	4	1	p	0.5592400000000001
33.744499999999995	0.0	+	5	noun	phrase	4	7	match	beau	4	1	p	0.5592400000000001
34.14430000000001	0.2	beau	5	noun	phrase	4	8	match	beau	4	1	p	0.5592400000000001
34.34420000000001	0.0	+	5	noun	phrase	4	9	match	beau	4	1	p	0.5592400000000001
34.74400000000001	0.2	tablier	5	noun	phrase	4	10	match	beau	4	1	p	0.5592400000000001
34.943999999999996	0.0	+	5	noun	phrase	4	11	match	beau	4	1	p	0.5592400000000001
35.343799999999995	0.0	+	5	noun	phrase	4	12	match	beau	4	1	p	0.5592400000000001
37.34290000000001	0.0	BEAU	5	noun	phrase	4	13	match	beau	4	1	p	0.5592400000000001
37.959300000000006	0.0	+	5	noun	phrase	4	14	match	beau	4	1	p	0.5592400000000001
37.9021	0.0	[response]	5	noun	phrase	4	15	match	beau	4	1	p	0.5592400000000001
39.741800000000005	0.0	+	6	noun	phrase	1	1	nomatch	rouge	-1	1	y	0.66831
40.291500000000006	0.2	hlwtxc	6	noun	phrase	1	2	nomatch	rouge	-1	1	y	0.66831
40.491400000000006	0.0	+	6	noun	phrase	1	3	nomatch	rouge	-1	1	y	0.66831
40.89130000000001	0.2	psvm	6	noun	phrase	1	4	nomatch	rouge	-1	1	y	0.66831
41.09120000000001	0.0	+	6	noun	phrase	1	5	nomatch	rouge	-1	1	y	0.66831
41.49100000000001	0.2	bwgs	6	noun	phrase	1	6	nomatch	rouge	-1	1	y	0.66831
41.690900000000006	0.0	+	6	noun	phrase	1	7	nomatch	rouge	-1	1	y	0.66831
42.090700000000005	0.2	xpckqdh	6	noun	phrase	1	8	nomatch	rouge	-1	1	y	0.66831
42.2913	0.0	+	6	noun	phrase	1	9	nomatch	rouge	-1	1	y	0.66831
42.690400000000004	0.2	noir	6	noun	phrase	1	10	nomatch	rouge	-1	1	y	0.66831
42.89040000000001	0.0	+	6	noun	phrase	1	11	nomatch	rouge	-1	1	y	0.66831
43.290200000000006	0.0	+	6	noun	phrase	1	12	nomatch	rouge	-1	1	y	0.66831
45.289300000000004	0.0	ROUGE	6	noun	phrase	1	13	nomatch	rouge	-1	1	y	0.66831
46.02230000000001	0.0	+	6	noun	phrase	1	14	nomatch	rouge	-1	1	y	0.66831
45.957600000000006	0.0	[response]	6	noun	phrase	1	15	nomatch	rouge	-1	1	y	0.66831
63.6976	0.0	+	7	noun	phrase	2	1	nomatch	voilier	-1	1	y	0.74728
64.2474	0.2	qck	7	noun	phrase	2	2	nomatch	voilier	-1	1	y	0.74728
64.44730000000001	0.0	+	7	noun	phrase	2	3	nomatch	voilier	-1	1	y	0.74728
64.84710000000001	0.2	gxsd	7	noun	phrase	2	4	nomatch	voilier	-1	1	y	0.74728
65.047	0.0	+	7	noun	phrase	2	5	nomatch	voilier	-1	1	y	0.74728
65.4468	0.2	bqm	7	noun	phrase	2	6	nomatch	voilier	-1	1	y	0.74728
65.64670000000001	0.0	+	7	noun	phrase	2	7	nomatch	voilier	-1	1	y	0.74728
66.04650000000001	0.2	sablier	7	noun	phrase	2	8	nomatch	voilier	-1	1	y	0.74728
66.2464	0.0	+	7	noun	phrase	2	9	nomatch	voilier	-1	1	y	0.74728
66.6463	0.2	blanc	7	noun	phrase	2	10	nomatch	voilier	-1	1	y	0.74728
66.84620000000001	0.0	+	7	noun	phrase	2	11	nomatch	voilier	-1	1	y	0.74728
67.24600000000001	0.0	+	7	noun	phrase	2	12	nomatch	voilier	-1	1	y	0.74728
69.24510000000001	0.0	VOILIER	7	noun	phrase	2	13	nomatch	voilier	-1	1	y	0.74728
70.0447	0.0	+	7	noun	phrase	2	14	nomatch	voilier	-1	1	y	0.74728
69.9924	0.0	[response]	7	noun	phrase	2	15	nomatch	voilier	-1	1	y	0.74728
71.644	0.0	+	8	noun	phrase	1	1	match	cendrier	5	1	p	0.38049
72.1937	0.2	fnkxhbl	8	noun	phrase	1	2	match	cendrier	5	1	p	0.38049
72.3937	0.0	+	8	noun	phrase	1	3	match	cendrier	5	1	p	0.38049
72.7935	0.2	ptkf	8	noun	phrase	1	4	match	cendrier	5	1	p	0.38049
72.99340000000001	0.0	+	8	noun	phrase	1	5	match	cendrier	5	1	p	0.38049
73.39320000000001	0.2	gbl	8	noun	phrase	1	6	match	cendrier	5	1	p	0.38049
73.59309999999999	0.0	+	8	noun	phrase	1	7	match	cendrier	5	1	p	0.38049
73.99289999999999	0.2	wdhpv	8	noun	phrase	1	8	match	cendrier	5	1	p	0.38049
74.1928	0.0	+	8	noun	phrase	1	9	match	cendrier	5	1	p	0.38049
74.59270000000001	0.2	cendrier	8	noun	phrase	1	10	match	cendrier	5	1	p	0.38049
74.7926	0.0	+	8	noun	phrase	1	11	match	cendrier	5	1	p	0.38049
75.19239999999999	0.0	+	8	noun	phrase	1	12	match	cendrier	5	1	p	0.38049
77.19149999999999	0.0	CENDRIER	8	noun	phrase	1	13	match	cendrier	5	1	p	0.38049
77.62459999999999	0.0	+	8	noun	phrase	1	14	match	cendrier	5	1	p	0.38049
77.572	0.0	[response]	8	noun	phrase	1	15	match	cendrier	5	1	p	0.38049
79.59039999999999	0.0	+	9	noun	list	1	1	match	ainsi	5	1	p	0.3949
80.14009999999999	0.2	zngmq	9	noun	list	1	2	match	ainsi	5	1	p	0.3949
80.34	0.0	+	9	noun	list	1	3	match	ainsi	5	1	p	0.3949
80.7399	0.2	lzd	9	noun	list	1	4	match	ainsi	5	1	p	0.3949
80.93979999999999	0.0	+	9	noun	list	1	5	match	ainsi	5	1	p	0.3949
81.33959999999999	0.2	vh	9	noun	list	1	6	match	ainsi	5	1	p	0.3949
81.5395	0.0	+	9	noun	list	1	7	match	ainsi	5	1	p	0.3949
81.9393	0.2	xpckqdh	9	noun	list	1	8	match	ainsi	5	1	p	0.3949
82.13919999999999	0.0	+	9	noun	list	1	9	match	ainsi	5	1	p	0.3949
82.53909999999999	0.2	ainsi	9	noun	list	1	10	match	ainsi	5	1	p	0.3949
82.739	0.0	+	9	noun	list	1	11	match	ainsi	5	1	p	0.3949
83.1388	0.0	+	9	noun	list	1	12	match	ainsi	5	1	p	0.3949
85.1379	0.0	AINSI	9	noun	list	1	13	match	ainsi	5	1	p	0.3949
85.58769999999998	0.0	+	9	noun	list	1	14	match	ainsi	5	1	p	0.3949
85.53279999999998	0.0	[response]	9	noun	list	1	15	match	ainsi	5	1	p	0.3949
87.5368	0.0	+	10	noun	list	3	1	nomatch	peut	-1	1	y	0.49736
88.0865	0.2	mktpzc	10	noun	list	3	2	nomatch	peut	-1	1	y	0.49736
88.28649999999999	0.0	+	10	noun	list	3	3	nomatch	peut	-1	1	y	0.49736
88.68629999999999	0.2	ptkf	10	noun	list	3	4	nomatch	peut	-1	1	y	0.49736
88.8862	0.0	+	10	noun	list	3	5	nomatch	peut	-1	1	y	0.49736
89.28629999999998	0.2	va	10	noun	list	3	6	nomatch	peut	-1	1	y	0.49736
89.48589999999999	0.0	+	10	noun	list	3	7	nomatch	peut	-1	1	y	0.49736
89.88569999999999	0.2	sablier	10	noun	list	3	8	nomatch	peut	-1	1	y	0.49736
90.0856	0.0	+	10	noun	list	3	9	nomatch	peut	-1	1	y	0.49736
90.4855	0.2	vite	10	noun	list	3	10	nomatch	peut	-1	1	y	0.49736
90.68539999999999	0.0	+	10	noun	list	3	11	nomatch	peut	-1	1	y	0.49736
91.08519999999999	0.0	+	10	noun	list	3	12	nomatch	peut	-1	1	y	0.49736
93.08429999999998	0.0	PEUT	10	noun	list	3	13	nomatch	peut	-1	1	y	0.49736
93.63399999999999	0.0	+	10	noun	list	3	14	nomatch	peut	-1	1	y	0.49736
93.58159999999998	0.0	[response]	10	noun	list	3	15	nomatch	peut	-1	1	y	0.49736
103.49619999999999	0.0	+	11	noun	phrase	1	1	match	petit	5	1	p	0.45942000000000005
104.04599999999999	0.2	czjqvbx	11	noun	phrase	1	2	match	petit	5	1	p	0.45942000000000005
104.2459	0.0	+	11	noun	phrase	1	3	match	petit	5	1	p	0.45942000000000005
104.6457	0.2	lzd	11	noun	phrase	1	4	match	petit	5	1	p	0.45942000000000005
104.84559999999999	0.0	+	11	noun	phrase	1	5	match	petit	5	1	p	0.45942000000000005
105.24539999999999	0.2	bwgs	11	noun	phrase	1	6	match	petit	5	1	p	0.45942000000000005
105.4453	0.0	+	11	noun	phrase	1	7	match	petit	5	1	p	0.45942000000000005
105.8452	0.2	nwbfdgm	11	noun	phrase	1	8	match	petit	5	1	p	0.45942000000000005
106.04509999999999	0.0	+	11	noun	phrase	1	9	match	petit	5	1	p	0.45942000000000005
106.44489999999999	0.2	petit	11	noun	phrase	1	10	match	petit	5	1	p	0.45942000000000005
106.6448	0.0	+	11	noun	phrase	1	11	match	petit	5	1	p	0.45942000000000005
107.0446	0.0	+	11	noun	phrase	1	12	match	petit	5	1	p	0.45942000000000005
109.0437	0.0	PETIT	11	noun	phrase	1	13	match	petit	5	1	p	0.45942000000000005
109.56019999999998	0.0	+	11	noun	phrase	1	14	match	petit	5	1	p	0.45942000000000005
109.50309999999999	0.0	[response]	11	noun	phrase	1	15	match	petit	5	1	p	0.45942000000000005
119.439	0.0	+	12	noun	list	2	1	match	sablier	5	1	p	1.9915
119.9888	0.2	rth	12	noun	list	2	2	match	sablier	5	1	p	1.9915
120.18869999999998	0.0	+	12	noun	list	2	3	match	sablier	5	1	p	1.9915
120.58849999999998	0.2	wzvq	12	noun	list	2	4	match	sablier	5	1	p	1.9915
120.7884	0.0	+	12	noun	list	2	5	match	sablier	5	1	p	1.9915
121.1882	0.2	gbl	12	noun	list	2	6	match	sablier	5	1	p	1.9915
121.38810000000001	0.0	+	12	noun	list	2	7	match	sablier	5	1	p	1.9915
121.78790000000001	0.2	plus	12	noun	list	2	8	match	sablier	5	1	p	1.9915
121.9879	0.0	+	12	noun	list	2	9	match	sablier	5	1	p	1.9915
122.3877	0.2	sablier	12	noun	list	2	10	match	sablier	5	1	p	1.9915
122.58759999999998	0.0	+	12	noun	list	2	11	match	sablier	5	1	p	1.9915
122.98740000000001	0.0	+	12	noun	list	2	12	match	sablier	5	1	p	1.9915
124.9865	0.0	SABLIER	12	noun	list	2	13	match	sablier	5	1	p	1.9915
127.03559999999999	0.0	+	12	noun	list	2	14	match	sablier	5	1	p	1.9915
126.97799999999998	0.0	[response]	12	noun	list	2	15	match	sablier	5	1	p	1.9915
127.3854	0.0	+	13	verb	phrase	2	1	match	patiner	5	1	p	0.6164
127.93519999999998	0.2	gftxpj	13	verb	phrase	2	2	match	patiner	5	1	p	0.6164
128.1351	0.0	+	13	verb	phrase	2	3	match	patiner	5	1	p	0.6164
128.5349	0.2	mrn	13	verb	phrase	2	4	match	patiner	5	1	p	0.6164
128.7348	0.0	+	13	verb	phrase	2	5	match	patiner	5	1	p	0.6164
129.1346	0.2	cpqb	13	verb	phrase	2	6	match	patiner	5	1	p	0.6164
129.3345	0.0	+	13	verb	phrase	2	7	match	patiner	5	1	p	0.6164
129.7343	0.2	mieux	13	verb	phrase	2	8	match	patiner	5	1	p	0.6164
129.9343	0.0	+	13	verb	phrase	2	9	match	patiner	5	1	p	0.6164
130.3341	0.2	patiner	13	verb	phrase	2	10	match	patiner	5	1	p	0.6164
130.534	0.0	+	13	verb	phrase	2	11	match	patiner	5	1	p	0.6164
130.9338	0.0	+	13	verb	phrase	2	12	match	patiner	5	1	p	0.6164
132.9495	0.0	PATINER	13	verb	phrase	2	13	match	patiner	5	1	p	0.6164
133.6326	0.0	+	13	verb	phrase	2	14	match	patiner	5	1	p	0.6164
133.5659	0.0	[response]	13	verb	phrase	2	15	match	patiner	5	1	p	0.6164
143.3448	0.0	+	14	noun	phrase	1	1	nomatch	blanc	-1	1	y	0.64622
143.8946	0.2	tkwhf	14	noun	phrase	1	2	nomatch	blanc	-1	1	y	0.64622
144.09449999999998	0.0	+	14	noun	phrase	1	3	nomatch	blanc	-1	1	y	0.64622
144.49429999999998	0.2	gxsd	14	noun	phrase	1	4	nomatch	blanc	-1	1	y	0.64622
144.6942	0.0	+	14	noun	phrase	1	5	nomatch	blanc	-1	1	y	0.64622
145.094	0.2	bqm	14	noun	phrase	1	6	nomatch	blanc	-1	1	y	0.64622
145.29399999999998	0.0	+	14	noun	phrase	1	7	nomatch	blanc	-1	1	y	0.64622
145.69379999999998	0.2	lwrtjf	14	noun	phrase	1	8	nomatch	blanc	-1	1	y	0.64622
145.8937	0.0	+	14	noun	phrase	1	9	nomatch	blanc	-1	1	y	0.64622
146.2936	0.2	rouge	14	noun	phrase	1	10	nomatch	blanc	-1	1	y	0.64622
146.4934	0.0	+	14	noun	phrase	1	11	nomatch	blanc	-1	1	y	0.64622
146.8932	0.0	+	14	noun	phrase	1	12	nomatch	blanc	-1	1	y	0.64622
148.8923	0.0	BLANC	14	noun	phrase	1	13	nomatch	blanc	-1	1	y	0.64622
149.59199999999998	0.0	+	14	noun	phrase	1	14	nomatch	blanc	-1	1	y	0.64622
149.53850000000003	0.0	[response]	14	noun	phrase	1	15	nomatch	blanc	-1	1	y	0.64622
151.2919	0.0	+	15	noun	phrase	1	1	match	panier	5	1	p	0.4158
151.841	0.2	gkvlm	15	noun	phrase	1	2	match	panier	5	1	p	0.4158
152.0409	0.0	+	15	noun	phrase	1	3	match	panier	5	1	p	0.4158
152.4407	0.2	vzck	15	noun	phrase	1	4	match	panier	5	1	p	0.4158
152.6406	0.0	+	15	noun	phrase	1	5	match	panier	5	1	p	0.4158
153.04049999999998	0.2	bwgs	15	noun	phrase	1	6	match	panier	5	1	p	0.4158
153.2404	0.0	+	15	noun	phrase	1	7	match	panier	5	1	p	0.4158
153.6402	0.2	cfvlb	15	noun	phrase	1	8	match	panier	5	1	p	0.4158
153.8401	0.0	+	15	noun	phrase	1	9	match	panier	5	1	p	0.4158
154.2399	0.2	panier	15	noun	phrase	1	10	match	panier	5	1	p	0.4158
154.4398	0.0	+	15	noun	phrase	1	11	match	panier	5	1	p	0.4158
154.8396	0.0	+	15	noun	phrase	1	12	match	panier	5	1	p	0.4158
156.8387	0.0	PANIER	15	noun	phrase	1	13	match	panier	5	1	p	0.4158
157.3218	0.0	+	15	noun	phrase	1	14	match	panier	5	1	p	0.4158
157.2545	0.0	[response]	15	noun	phrase	1	15	match	panier	5	1	p	0.4158
159.2376	0.0	+	16	verb	phrase	1	1	nomatch	rouler	-1	1	y	0.45458
159.7874	0.2	zmx	16	verb	phrase	1	2	nomatch	rouler	-1	1	y	0.45458
159.9873	0.0	+	16	verb	phrase	1	3	nomatch	rouler	-1	1	y	0.45458
160.3871	0.2	cdsf	16	verb	phrase	1	4	nomatch	rouler	-1	1	y	0.45458
160.587	0.0	+	16	verb	phrase	1	5	nomatch	rouler	-1	1	y	0.45458
160.9868	0.2	vh	16	verb	phrase	1	6	nomatch	rouler	-1	1	y	0.45458
161.1868	0.0	+	16	verb	phrase	1	7	nomatch	rouler	-1	1	y	0.45458
161.5866	0.2	czpn	16	verb	phrase	1	8	nomatch	rouler	-1	1	y	0.45458
161.7865	0.0	+	16	verb	phrase	1	9	nomatch	rouler	-1	1	y	0.45458
162.1863	0.2	jongler	16	verb	phrase	1	10	nomatch	rouler	-1	1	y	0.45458
162.3862	0.0	+	16	verb	phrase	1	11	nomatch	rouler	-1	1	y	0.45458
162.786	0.0	+	16	verb	phrase	1	12	nomatch	rouler	-1	1	y	0.45458
164.7853	0.0	ROULER	16	verb	phrase	1	13	nomatch	rouler	-1	1	y	0.45458
165.3016	0.0	+	16	verb	phrase	1	14	nomatch	rouler	-1	1	y	0.45458
165.2399	0.0	[response]	16	verb	phrase	1	15	nomatch	rouler	-1	1	y	0.45458
167.184	0.0	+	17	noun	list	1	1	match	trop	5	1	p	0.38799
167.7338	0.2	jqtbkgl	17	noun	list	1	2	match	trop	5	1	p	0.38799
167.9337	0.0	+	17	noun	list	1	3	match	trop	5	1	p	0.38799
168.3336	0.2	mrn	17	noun	list	1	4	match	trop	5	1	p	0.38799
168.5501	0.0	+	17	noun	list	1	5	match	trop	5	1	p	0.38799
168.94989999999999	0.2	bwgs	17	noun	list	1	6	match	trop	5	1	p	0.38799
169.1498	0.0	+	17	noun	list	1	7	match	trop	5	1	p	0.38799
169.5496	0.2	xpckqdh	17	noun	list	1	8	match	trop	5	1	p	0.38799
169.74949999999998	0.0	+	17	noun	list	1	9	match	trop	5	1	p	0.38799
170.14929999999998	0.2	trop	17	noun	list	1	10	match	trop	5	1	p	0.38799
170.3493	0.0	+	17	noun	list	1	11	match	trop	5	1	p	0.38799
170.7491	0.0	+	17	noun	list	1	12	match	trop	5	1	p	0.38799
172.7482	0.0	TROP	17	noun	list	1	13	match	trop	5	1	p	0.38799
173.198	0.0	+	17	noun	list	1	14	match	trop	5	1	p	0.38799
173.1362	0.0	[response]	17	noun	list	1	15	match	trop	5	1	p	0.38799
175.1471	0.0	+	18	noun	list	1	1	match	sablier	5	1	p	0.47911
175.6968	0.2	grn	18	noun	list	1	2	match	sablier	5	1	p	0.47911
175.89669999999998	0.0	+	18	noun	list	1	3	match	sablier	5	1	p	0.47911
176.29659999999998	0.2	lzd	18	noun	list	1	4	match	sablier	5	1	p	0.47911
176.4965	0.0	+	18	noun	list	1	5	match	sablier	5	1	p	0.47911
176.8963	0.2	vh	18	noun	list	1	6	match	sablier	5	1	p	0.47911
177.09619999999998	0.0	+	18	noun	list	1	7	match	sablier	5	1	p	0.47911
177.49599999999998	0.2	hkvgz	18	noun	list	1	8	match	sablier	5	1	p	0.47911
177.6959	0.0	+	18	noun	list	1	9	match	sablier	5	1	p	0.47911
178.0958	0.2	sablier	18	noun	list	1	10	match	sablier	5	1	p	0.47911
178.29569999999998	0.0	+	18	noun	list	1	11	match	sablier	5	1	p	0.47911
178.69549999999998	0.0	+	18	noun	list	1	12	match	sablier	5	1	p	0.47911
180.6946	0.0	SABLIER	18	noun	list	1	13	match	sablier	5	1	p	0.47911
181.2277	0.0	+	18	noun	list	1	14	match	sablier	5	1	p	0.47911
181.1737	0.0	[response]	18	noun	list	1	15	match	sablier	5	1	p	0.47911
191.0899	0.0	+	19	noun	list	1	1	match	plus	5	1	p	0.37251
191.6396	0.2	chx	19	noun	list	1	2	match	plus	5	1	p	0.37251
191.8395	0.0	+	19	noun	list	1	3	match	plus	5	1	p	0.37251
192.2394	0.2	wzvq	19	noun	list	1	4	match	plus	5	1	p	0.37251
192.4393	0.0	+	19	noun	list	1	5	match	plus	5	1	p	0.37251
192.8391	0.2	bqm	19	noun	list	1	6	match	plus	5	1	p	0.37251
193.039	0.0	+	19	noun	list	1	7	match	plus	5	1	p	0.37251
193.4388	0.2	chxltgs	19	noun	list	1	8	match	plus	5	1	p	0.37251
193.6387	0.0	+	19	noun	list	1	9	match	plus	5	1	p	0.37251
194.0385	0.2	plus	19	noun	list	1	10	match	plus	5	1	p	0.37251
194.23839999999998	0.0	+	19	noun	list	1	11	match	plus	5	1	p	0.37251
194.6383	0.0	+	19	noun	list	1	12	match	plus	5	1	p	0.37251
196.63739999999999	0.0	PLUS	19	noun	list	1	13	match	plus	5	1	p	0.37251
197.07049999999998	0.0	+	19	noun	list	1	14	match	plus	5	1	p	0.37251
197.00990000000002	0.0	[response]	19	noun	list	1	15	match	plus	5	1	p	0.37251
207.04930000000002	0.0	+	20	verb	phrase	1	1	nomatch	galoper	-1	1	y	0.93731
207.59910000000002	0.2	bzwrf	20	verb	phrase	1	2	nomatch	galoper	-1	1	y	0.93731
207.79899999999998	0.0	+	20	verb	phrase	1	3	nomatch	galoper	-1	1	y	0.93731
208.1988	0.2	wlmq	20	verb	phrase	1	4	nomatch	galoper	-1	1	y	0.93731
208.39870000000002	0.0	+	20	verb	phrase	1	5	nomatch	galoper	-1	1	y	0.93731
208.7985	0.2	vh	20	verb	phrase	1	6	nomatch	galoper	-1	1	y	0.93731
208.9984	0.0	+	20	verb	phrase	1	7	nomatch	galoper	-1	1	y	0.93731
209.39819999999997	0.2	czpn	20	verb	phrase	1	8	nomatch	galoper	-1	1	y	0.93731
209.5981	0.0	+	20	verb	phrase	1	9	nomatch	galoper	-1	1	y	0.93731
209.998	0.2	danser	20	verb	phrase	1	10	nomatch	galoper	-1	1	y	0.93731
210.1979	0.0	+	20	verb	phrase	1	11	nomatch	galoper	-1	1	y	0.93731
210.59769999999997	0.0	+	20	verb	phrase	1	12	nomatch	galoper	-1	1	y	0.93731
212.59679999999997	0.0	GALOPER	20	verb	phrase	1	13	nomatch	galoper	-1	1	y	0.93731
213.59629999999999	0.0	+	20	verb	phrase	1	14	nomatch	galoper	-1	1	y	0.93731
213.53409999999997	0.0	[response]	20	verb	phrase	1	15	nomatch	galoper	-1	1	y	0.93731
214.9957	0.0	+	21	verb	list	3	1	match	nager	5	1	p	0.43799000000000005
215.5455	0.2	vfx	21	verb	list	3	2	match	nager	5	1	p	0.43799000000000005
215.74540000000002	0.0	+	21	verb	list	3	3	match	nager	5	1	p	0.43799000000000005
216.1452	0.2	kgzb	21	verb	list	3	4	match	nager	5	1	p	0.43799000000000005
216.3451	0.0	+	21	verb	list	3	5	match	nager	5	1	p	0.43799000000000005
216.74489999999997	0.2	peut	21	verb	list	3	6	match	nager	5	1	p	0.43799000000000005
216.9448	0.0	+	21	verb	list	3	7	match	nager	5	1	p	0.43799000000000005
217.3446	0.2	nouveau	21	verb	list	3	8	match	nager	5	1	p	0.43799000000000005
217.54449999999997	0.0	+	21	verb	list	3	9	match	nager	5	1	p	0.43799000000000005
217.94439999999997	0.2	nager	21	verb	list	3	10	match	nager	5	1	p	0.43799000000000005
218.1443	0.0	+	21	verb	list	3	11	match	nager	5	1	p	0.43799000000000005
218.54410000000001	0.0	+	21	verb	list	3	12	match	nager	5	1	p	0.43799000000000005
220.5432	0.0	NAGER	21	verb	list	3	13	match	nager	5	1	p	0.43799000000000005
221.043	0.0	+	21	verb	list	3	14	match	nager	5	1	p	0.43799000000000005
220.9812	0.0	[response]	21	verb	list	3	15	match	nager	5	1	p	0.43799000000000005
222.94209999999998	0.0	+	22	noun	phrase	2	1	nomatch	vite	-1	1	y	0.5368100000000001
223.4919	0.2	dkbc	22	noun	phrase	2	2	nomatch	vite	-1	1	y	0.5368100000000001
223.6918	0.0	+	22	noun	phrase	2	3	nomatch	vite	-1	1	y	0.5368100000000001
224.09159999999997	0.2	psvm	22	noun	phrase	2	4	nomatch	vite	-1	1	y	0.5368100000000001
224.29149999999998	0.0	+	22	noun	phrase	2	5	nomatch	vite	-1	1	y	0.5368100000000001
224.6913	0.2	gbl	22	noun	phrase	2	6	nomatch	vite	-1	1	y	0.5368100000000001
224.89119999999997	0.0	+	22	noun	phrase	2	7	nomatch	vite	-1	1	y	0.5368100000000001
225.29179999999997	0.2	cendrier	22	noun	phrase	2	8	nomatch	vite	-1	1	y	0.5368100000000001
225.49099999999999	0.0	+	22	noun	phrase	2	9	nomatch	vite	-1	1	y	0.5368100000000001
225.8908	0.2	rouge	22	noun	phrase	2	10	nomatch	vite	-1	1	y	0.5368100000000001
226.09069999999997	0.0	+	22	noun	phrase	2	11	nomatch	vite	-1	1	y	0.5368100000000001
226.4905	0.0	+	22	noun	phrase	2	12	nomatch	vite	-1	1	y	0.5368100000000001
228.4896	0.0	VITE	22	noun	phrase	2	13	nomatch	vite	-1	1	y	0.5368100000000001
229.08929999999998	0.0	+	22	noun	phrase	2	14	nomatch	vite	-1	1	y	0.5368100000000001
229.02639999999997	0.0	[response]	22	noun	phrase	2	15	nomatch	vite	-1	1	y	0.5368100000000001
230.88850000000002	0.0	+	23	noun	phrase	2	1	match	tablier	5	1	p	0.46286000000000005
231.4382	0.2	zpwn	23	noun	phrase	2	2	match	tablier	5	1	p	0.46286000000000005
231.63819999999998	0.0	+	23	noun	phrase	2	3	match	tablier	5	1	p	0.46286000000000005
232.038	0.2	ptkf	23	noun	phrase	2	4	match	tablier	5	1	p	0.46286000000000005
232.23789999999997	0.0	+	23	noun	phrase	2	5	match	tablier	5	1	p	0.46286000000000005
232.6377	0.2	bqm	23	noun	phrase	2	6	match	tablier	5	1	p	0.46286000000000005
232.8376	0.0	+	23	noun	phrase	2	7	match	tablier	5	1	p	0.46286000000000005
233.23739999999998	0.2	nouveau	23	noun	phrase	2	8	match	tablier	5	1	p	0.46286000000000005
233.43739999999997	0.0	+	23	noun	phrase	2	9	match	tablier	5	1	p	0.46286000000000005
233.8372	0.2	tablier	23	noun	phrase	2	10	match	tablier	5	1	p	0.46286000000000005
234.0371	0.0	+	23	noun	phrase	2	11	match	tablier	5	1	p	0.46286000000000005
234.43689999999998	0.0	+	23	noun	phrase	2	12	match	tablier	5	1	p	0.46286000000000005
236.43599999999998	0.0	TABLIER	23	noun	phrase	2	13	match	tablier	5	1	p	0.46286000000000005
236.9524	0.0	+	23	noun	phrase	2	14	match	tablier	5	1	p	0.46286000000000005
236.89889999999997	0.0	[response]	23	noun	phrase	2	15	match	tablier	5	1	p	0.46286000000000005
238.8349	0.0	+	24	noun	phrase	4	1	match	leur	3	1	p	0.41618
239.38459999999998	0.2	hdfsl	24	noun	phrase	4	2	match	leur	3	1	p	0.41618
239.58459999999997	0.0	+	24	noun	phrase	4	3	match	leur	3	1	p	0.41618
239.9844	0.2	pour	24	noun	phrase	4	4	match	leur	3	1	p	0.41618
240.1843	0.0	+	24	noun	phrase	4	5	match	leur	3	1	p	0.41618
240.58409999999998	0.2	leur	24	noun	phrase	4	6	match	leur	3	1	p	0.41618
240.784	0.0	+	24	noun	phrase	4	7	match	leur	3	1	p	0.41618
241.18380000000002	0.2	cendrier	24	noun	phrase	4	8	match	leur	3	1	p	0.41618
241.38369999999998	0.0	+	24	noun	phrase	4	9	match	leur	3	1	p	0.41618
241.78359999999998	0.2	blanc	24	noun	phrase	4	10	match	leur	3	1	p	0.41618
242.00009999999997	0.0	+	24	noun	phrase	4	11	match	leur	3	1	p	0.41618
242.39999999999998	0.0	+	24	noun	phrase	4	12	match	leur	3	1	p	0.41618
244.39909999999998	0.0	LEUR	24	noun	phrase	4	13	match	leur	3	1	p	0.41618
244.8822	0.0	+	24	noun	phrase	4	14	match	leur	3	1	p	0.41618
244.8152	0.0	[response]	24	noun	phrase	4	15	match	leur	3	1	p	0.41618
246.798	0.0	+	25	noun	phrase	1	1	nomatch	grenier	-1	1	y	0.5337
247.34769999999997	0.2	htc	25	noun	phrase	1	2	nomatch	grenier	-1	1	y	0.5337
247.5476	0.0	+	25	noun	phrase	1	3	nomatch	grenier	-1	1	y	0.5337
247.94740000000002	0.2	vzck	25	noun	phrase	1	4	nomatch	grenier	-1	1	y	0.5337
248.14729999999997	0.0	+	25	noun	phrase	1	5	nomatch	grenier	-1	1	y	0.5337
248.54719999999998	0.2	gbl	25	noun	phrase	1	6	nomatch	grenier	-1	1	y	0.5337
248.7471	0.0	+	25	noun	phrase	1	7	nomatch	grenier	-1	1	y	0.5337
249.14690000000002	0.2	phzd	25	noun	phrase	1	8	nomatch	grenier	-1	1	y	0.5337
249.34679999999997	0.0	+	25	noun	phrase	1	9	nomatch	grenier	-1	1	y	0.5337
249.7466	0.2	voilier	25	noun	phrase	1	10	nomatch	grenier	-1	1	y	0.5337
249.94650000000001	0.0	+	25	noun	phrase	1	11	nomatch	grenier	-1	1	y	0.5337
250.34640000000002	0.0	+	25	noun	phrase	1	12	nomatch	grenier	-1	1	y	0.5337
252.34539999999998	0.0	GRENIER	25	noun	phrase	1	13	nomatch	grenier	-1	1	y	0.5337
252.9452	0.0	+	25	noun	phrase	1	14	nomatch	grenier	-1	1	y	0.5337
252.87910000000005	0.0	[response]	25	noun	phrase	1	15	nomatch	grenier	-1	1	y	0.5337
254.74439999999998	0.0	+	26	noun	list	1	1	match	cendrier	5	1	p	0.48129000000000005
255.29410000000001	0.2	jfhvqpl	26	noun	list	1	2	match	cendrier	5	1	p	0.48129000000000005
255.49399999999997	0.0	+	26	noun	list	1	3	match	cendrier	5	1	p	0.48129000000000005
255.8938	0.2	cdsf	26	noun	list	1	4	match	cendrier	5	1	p	0.48129000000000005
256.0938	0.0	+	26	noun	list	1	5	match	cendrier	5	1	p	0.48129000000000005
256.4936	0.2	bqm	26	noun	list	1	6	match	cendrier	5	1	p	0.48129000000000005
256.6935	0.0	+	26	noun	list	1	7	match	cendrier	5	1	p	0.48129000000000005
257.0933	0.2	czpn	26	noun	list	1	8	match	cendrier	5	1	p	0.48129000000000005
257.2932	0.0	+	26	noun	list	1	9	match	cendrier	5	1	p	0.48129000000000005
257.693	0.2	cendrier	26	noun	list	1	10	match	cendrier	5	1	p	0.48129000000000005
257.8929	0.0	+	26	noun	list	1	11	match	cendrier	5	1	p	0.48129000000000005
258.2928	0.0	+	26	noun	list	1	12	match	cendrier	5	1	p	0.48129000000000005
260.2919	0.0	CENDRIER	26	noun	list	1	13	match	cendrier	5	1	p	0.48129000000000005
260.8249	0.0	+	26	noun	list	1	14	match	cendrier	5	1	p	0.48129000000000005
260.7731	0.0	[response]	26	noun	list	1	15	match	cendrier	5	1	p	0.48129000000000005
270.6871	0.0	+	27	verb	list	2	1	nomatch	rouge	-1	1	y	0.46909000000000006
271.2369	0.2	thwf	27	verb	list	2	2	nomatch	rouge	-1	1	y	0.46909000000000006
271.4368	0.0	+	27	verb	list	2	3	nomatch	rouge	-1	1	y	0.46909000000000006
271.8366	0.2	kgzb	27	verb	list	2	4	nomatch	rouge	-1	1	y	0.46909000000000006
272.0365	0.0	+	27	verb	list	2	5	nomatch	rouge	-1	1	y	0.46909000000000006
272.4363	0.2	vh	27	verb	list	2	6	nomatch	rouge	-1	1	y	0.46909000000000006
272.6362	0.0	+	27	verb	list	2	7	nomatch	rouge	-1	1	y	0.46909000000000006
273.0361	0.2	petit	27	verb	list	2	8	nomatch	rouge	-1	1	y	0.46909000000000006
273.236	0.0	+	27	verb	list	2	9	nomatch	rouge	-1	1	y	0.46909000000000006
273.6358	0.2	parader	27	verb	list	2	10	nomatch	rouge	-1	1	y	0.46909000000000006
273.8357	0.0	+	27	verb	list	2	11	nomatch	rouge	-1	1	y	0.46909000000000006
274.2355	0.0	+	27	verb	list	2	12	nomatch	rouge	-1	1	y	0.46909000000000006
276.2346	0.0	ROUGE	27	verb	list	2	13	nomatch	rouge	-1	1	y	0.46909000000000006
276.7677	0.0	+	27	verb	list	2	14	nomatch	rouge	-1	1	y	0.46909000000000006
276.7037	0.0	[response]	27	verb	list	2	15	nomatch	rouge	-1	1	y	0.46909000000000006
286.6466	0.0	+	28	noun	phrase	1	1	match	vieux	5	1	p	0.94047
287.1963	0.2	dwrz	28	noun	phrase	1	2	match	vieux	5	1	p	0.94047
287.3962	0.0	+	28	noun	phrase	1	3	match	vieux	5	1	p	0.94047
287.79609999999997	0.2	lzd	28	noun	phrase	1	4	match	vieux	5	1	p	0.94047
287.996	0.0	+	28	noun	phrase	1	5	match	vieux	5	1	p	0.94047
288.3958	0.2	bqm	28	noun	phrase	1	6	match	vieux	5	1	p	0.94047
288.5957	0.0	+	28	noun	phrase	1	7	match	vieux	5	1	p	0.94047
288.9955	0.2	chxltgs	28	noun	phrase	1	8	match	vieux	5	1	p	0.94047
289.1954	0.0	+	28	noun	phrase	1	9	match	vieux	5	1	p	0.94047
289.5952	0.2	vieux	28	noun	phrase	1	10	match	vieux	5	1	p	0.94047
289.7951	0.0	+	28	noun	phrase	1	11	match	vieux	5	1	p	0.94047
290.195	0.0	+	28	noun	phrase	1	12	match	vieux	5	1	p	0.94047
292.1941	0.0	VIEUX	28	noun	phrase	1	13	match	vieux	5	1	p	0.94047
293.1936	0.0	+	28	noun	phrase	1	14	match	vieux	5	1	p	0.94047
293.1345	0.0	[response]	28	noun	phrase	1	15	match	vieux	5	1	p	0.94047
294.593	0.0	+	29	noun	phrase	4	1	nomatch	marc	-1	1	y	0.5787600000000002
295.1427	0.2	ntqlc	29	noun	phrase	4	2	nomatch	marc	-1	1	y	0.5787600000000002
295.3426	0.0	+	29	noun	phrase	4	3	nomatch	marc	-1	1	y	0.5787600000000002
295.7424	0.2	sur	29	noun	phrase	4	4	nomatch	marc	-1	1	y	0.5787600000000002
295.9424	0.0	+	29	noun	phrase	4	5	nomatch	marc	-1	1	y	0.5787600000000002
296.3422	0.2	son	29	noun	phrase	4	6	nomatch	marc	-1	1	y	0.5787600000000002
296.5421	0.0	+	29	noun	phrase	4	7	nomatch	marc	-1	1	y	0.5787600000000002
296.9419	0.2	voilier	29	noun	phrase	4	8	nomatch	marc	-1	1	y	0.5787600000000002
297.1419	0.0	+	29	noun	phrase	4	9	nomatch	marc	-1	1	y	0.5787600000000002
297.5416	0.2	rouge	29	noun	phrase	4	10	nomatch	marc	-1	1	y	0.5787600000000002
297.7415	0.0	+	29	noun	phrase	4	11	nomatch	marc	-1	1	y	0.5787600000000002
298.1414	0.0	+	29	noun	phrase	4	12	nomatch	marc	-1	1	y	0.5787600000000002
300.1405	0.0	MARC	29	noun	phrase	4	13	nomatch	marc	-1	1	y	0.5787600000000002
300.7735	0.0	+	29	noun	phrase	4	14	nomatch	marc	-1	1	y	0.5787600000000002
300.7192	0.0	[response]	29	noun	phrase	4	15	nomatch	marc	-1	1	y	0.5787600000000002
302.5394	0.0	+	30	noun	phrase	3	1	nomatch	bleu	-1	1	y	0.76206
303.0891	0.2	bdnvq	30	noun	phrase	3	2	nomatch	bleu	-1	1	y	0.76206
303.289	0.0	+	30	noun	phrase	3	3	nomatch	bleu	-1	1	y	0.76206
303.6889	0.2	vzck	30	noun	phrase	3	4	nomatch	bleu	-1	1	y	0.76206
303.8888	0.0	+	30	noun	phrase	3	5	nomatch	bleu	-1	1	y	0.76206
304.28929999999997	0.2	mon	30	noun	phrase	3	6	nomatch	bleu	-1	1	y	0.76206
304.4885	0.0	+	30	noun	phrase	3	7	nomatch	bleu	-1	1	y	0.76206
304.8883	0.2	boîtier	30	noun	phrase	3	8	nomatch	bleu	-1	1	y	0.76206
305.0882	0.0	+	30	noun	phrase	3	9	nomatch	bleu	-1	1	y	0.76206
305.488	0.2	blanc	30	noun	phrase	3	10	nomatch	bleu	-1	1	y	0.76206
305.6879	0.0	+	30	noun	phrase	3	11	nomatch	bleu	-1	1	y	0.76206
306.0878	0.0	+	30	noun	phrase	3	12	nomatch	bleu	-1	1	y	0.76206
308.0869	0.0	BLEU	30	noun	phrase	3	13	nomatch	bleu	-1	1	y	0.76206
308.9031	0.0	+	30	noun	phrase	3	14	nomatch	bleu	-1	1	y	0.76206
308.8489	0.0	[response]	30	noun	phrase	3	15	nomatch	bleu	-1	1	y	0.76206
310.48629999999997	0.0	+	31	verb	phrase	4	1	nomatch	petit	-1	1	y	0.52642
311.0355	0.2	qxr	31	verb	phrase	4	2	nomatch	petit	-1	1	y	0.52642
311.23539999999997	0.0	+	31	verb	phrase	4	3	nomatch	petit	-1	1	y	0.52642
311.6352	0.2	paul	31	verb	phrase	4	4	nomatch	petit	-1	1	y	0.52642
311.8352	0.0	+	31	verb	phrase	4	5	nomatch	petit	-1	1	y	0.52642
312.235	0.2	doit	31	verb	phrase	4	6	nomatch	petit	-1	1	y	0.52642
312.43489999999997	0.0	+	31	verb	phrase	4	7	nomatch	petit	-1	1	y	0.52642
312.8347	0.2	jongler	31	verb	phrase	4	8	nomatch	petit	-1	1	y	0.52642
313.0346	0.0	+	31	verb	phrase	4	9	nomatch	petit	-1	1	y	0.52642
313.4344	0.2	ainsi	31	verb	phrase	4	10	nomatch	petit	-1	1	y	0.52642
313.6343	0.0	+	31	verb	phrase	4	11	nomatch	petit	-1	1	y	0.52642
314.0344	0.0	+	31	verb	phrase	4	12	nomatch	petit	-1	1	y	0.52642
316.0499	0.0	PETIT	31	verb	phrase	4	13	nomatch	petit	-1	1	y	0.52642
316.633	0.0	+	31	verb	phrase	4	14	nomatch	petit	-1	1	y	0.52642
316.57630000000006	0.0	[response]	31	verb	phrase	4	15	nomatch	petit	-1	1	y	0.52642
318.4488	0.0	+	32	noun	list	2	1	match	voilier	5	1	p	0.61747
318.9986	0.2	nbmxgwj	32	noun	list	2	2	match	voilier	5	1	p	0.61747
319.19849999999997	0.0	+	32	noun	list	2	3	match	voilier	5	1	p	0.61747
319.5983	0.2	wzvq	32	noun	list	2	4	match	voilier	5	1	p	0.61747
319.7982	0.0	+	32	noun	list	2	5	match	voilier	5	1	p	0.61747
320.198	0.2	gbl	32	noun	list	2	6	match	voilier	5	1	p	0.61747
320.3979	0.0	+	32	noun	list	2	7	match	voilier	5	1	p	0.61747
320.7978	0.2	beaucoup	32	noun	list	2	8	match	voilier	5	1	p	0.61747
320.9977	0.0	+	32	noun	list	2	9	match	voilier	5	1	p	0.61747
321.3975	0.2	voilier	32	noun	list	2	10	match	voilier	5	1	p	0.61747
321.5974	0.0	+	32	noun	list	2	11	match	voilier	5	1	p	0.61747
321.9972	0.0	+	32	noun	list	2	12	match	voilier	5	1	p	0.61747
323.9963	0.0	VOILIER	32	noun	list	2	13	match	voilier	5	1	p	0.61747
324.6793	0.0	+	32	noun	list	2	14	match	voilier	5	1	p	0.61747
324.61379999999997	0.0	[response]	32	noun	list	2	15	match	voilier	5	1	p	0.61747
326.3952	0.0	+	33	noun	list	2	1	match	tablier	5	1	p	0.51915
326.945	0.2	nfwtrk	33	noun	list	2	2	match	tablier	5	1	p	0.51915
327.1449	0.0	+	33	noun	list	2	3	match	tablier	5	1	p	0.51915
327.5447	0.2	mthp	33	noun	list	2	4	match	tablier	5	1	p	0.51915
327.7446	0.0	+	33	noun	list	2	5	match	tablier	5	1	p	0.51915
328.1444	0.2	bwgs	33	noun	list	2	6	match	tablier	5	1	p	0.51915
328.3444	0.0	+	33	noun	list	2	7	match	tablier	5	1	p	0.51915
328.7442	0.2	moins	33	noun	list	2	8	match	tablier	5	1	p	0.51915
328.9441	0.0	+	33	noun	list	2	9	match	tablier	5	1	p	0.51915
329.3439	0.2	tablier	33	noun	list	2	10	match	tablier	5	1	p	0.51915
329.5438	0.0	+	33	noun	list	2	11	match	tablier	5	1	p	0.51915
329.9436	0.0	+	33	noun	list	2	12	match	tablier	5	1	p	0.51915
331.9427	0.0	TABLIER	33	noun	list	2	13	match	tablier	5	1	p	0.51915
332.5258	0.0	+	33	noun	list	2	14	match	tablier	5	1	p	0.51915
332.4619	0.0	[response]	33	noun	list	2	15	match	tablier	5	1	p	0.51915
334.34159999999997	0.0	+	34	verb	list	1	1	match	petit	5	1	p	0.4824
334.8914	0.2	mstdxk	34	verb	list	1	2	match	petit	5	1	p	0.4824
335.0913	0.0	+	34	verb	list	1	3	match	petit	5	1	p	0.4824
335.4911	0.2	ntmd	34	verb	list	1	4	match	petit	5	1	p	0.4824
335.691	0.0	+	34	verb	list	1	5	match	petit	5	1	p	0.4824
336.0908	0.2	vh	34	verb	list	1	6	match	petit	5	1	p	0.4824
336.2908	0.0	+	34	verb	list	1	7	match	petit	5	1	p	0.4824
336.6906	0.2	jwdcmvn	34	verb	list	1	8	match	petit	5	1	p	0.4824
336.8905	0.0	+	34	verb	list	1	9	match	petit	5	1	p	0.4824
337.2903	0.2	petit	34	verb	list	1	10	match	petit	5	1	p	0.4824
337.4902	0.0	+	34	verb	list	1	11	match	petit	5	1	p	0.4824
337.89	0.0	+	34	verb	list	1	12	match	petit	5	1	p	0.4824
339.8891	0.0	PETIT	34	verb	list	1	13	match	petit	5	1	p	0.4824
340.4389	0.0	+	34	verb	list	1	14	match	petit	5	1	p	0.4824
340.37149999999997	0.0	[response]	34	verb	list	1	15	match	petit	5	1	p	0.4824
342.288	0.0	+	35	noun	list	4	1	match	doit	3	1	p	0.52892
342.8378	0.2	mrv	35	noun	list	4	2	match	doit	3	1	p	0.52892
343.0377	0.0	+	35	noun	list	4	3	match	doit	3	1	p	0.52892
343.4375	0.2	dans	35	noun	list	4	4	match	doit	3	1	p	0.52892
343.6374	0.0	+	35	noun	list	4	5	match	doit	3	1	p	0.52892
344.0372	0.2	doit	35	noun	list	4	6	match	doit	3	1	p	0.52892
344.2371	0.0	+	35	noun	list	4	7	match	doit	3	1	p	0.52892
344.637	0.2	grenier	35	noun	list	4	8	match	doit	3	1	p	0.52892
344.8369	0.0	+	35	noun	list	4	9	match	doit	3	1	p	0.52892
345.2367	0.2	tôt	35	noun	list	4	10	match	doit	3	1	p	0.52892
345.4366	0.0	+	35	noun	list	4	11	match	doit	3	1	p	0.52892
345.83639999999997	0.0	+	35	noun	list	4	12	match	doit	3	1	p	0.52892
347.83549999999997	0.0	DOIT	35	noun	list	4	13	match	doit	3	1	p	0.52892
348.41859999999997	0.0	+	35	noun	list	4	14	match	doit	3	1	p	0.52892
348.3644	0.0	[response]	35	noun	list	4	15	match	doit	3	1	p	0.52892
350.2344	0.0	+	36	verb	list	3	1	nomatch	tard	-1	1	y	0.54156
350.7842	0.2	kvgqhz	36	verb	list	3	2	nomatch	tard	-1	1	y	0.54156
350.9841	0.0	+	36	verb	list	3	3	nomatch	tard	-1	1	y	0.54156
351.3839	0.2	kgzb	36	verb	list	3	4	nomatch	tard	-1	1	y	0.54156
351.5838	0.0	+	36	verb	list	3	5	nomatch	tard	-1	1	y	0.54156
351.98359999999997	0.2	va	36	verb	list	3	6	nomatch	tard	-1	1	y	0.54156
352.1836	0.0	+	36	verb	list	3	7	nomatch	tard	-1	1	y	0.54156
352.6	0.2	beau	36	verb	list	3	8	nomatch	tard	-1	1	y	0.54156
352.7999	0.0	+	36	verb	list	3	9	nomatch	tard	-1	1	y	0.54156
353.1998	0.2	rouler	36	verb	list	3	10	nomatch	tard	-1	1	y	0.54156
353.3997	0.0	+	36	verb	list	3	11	nomatch	tard	-1	1	y	0.54156
353.79949999999997	0.0	+	36	verb	list	3	12	nomatch	tard	-1	1	y	0.54156
355.7986	0.0	TARD	36	verb	list	3	13	nomatch	tard	-1	1	y	0.54156
356.3983	0.0	+	36	verb	list	3	14	nomatch	tard	-1	1	y	0.54156
356.3401	0.0	[response]	36	verb	list	3	15	nomatch	tard	-1	1	y	0.54156
358.1975	0.0	+	37	verb	phrase	1	1	match	nager	5	1	p	0.49317000000000005
358.7472	0.2	vnrjtwx	37	verb	phrase	1	2	match	nager	5	1	p	0.49317000000000005
358.9471	0.0	+	37	verb	phrase	1	3	match	nager	5	1	p	0.49317000000000005
359.347	0.2	gbpr	37	verb	phrase	1	4	match	nager	5	1	p	0.49317000000000005
359.5469	0.0	+	37	verb	phrase	1	5	match	nager	5	1	p	0.49317000000000005
359.9467	0.2	vh	37	verb	phrase	1	6	match	nager	5	1	p	0.49317000000000005
360.1466	0.0	+	37	verb	phrase	1	7	match	nager	5	1	p	0.49317000000000005
360.5464	0.2	hkvgz	37	verb	phrase	1	8	match	nager	5	1	p	0.49317000000000005
360.7463	0.0	+	37	verb	phrase	1	9	match	nager	5	1	p	0.49317000000000005
361.1462	0.2	nager	37	verb	phrase	1	10	match	nager	5	1	p	0.49317000000000005
361.3461	0.0	+	37	verb	phrase	1	11	match	nager	5	1	p	0.49317000000000005
361.7459	0.0	+	37	verb	phrase	1	12	match	nager	5	1	p	0.49317000000000005
363.745	0.0	NAGER	37	verb	phrase	1	13	match	nager	5	1	p	0.49317000000000005
364.2947	0.0	+	37	verb	phrase	1	14	match	nager	5	1	p	0.49317000000000005
364.2381	0.0	[response]	37	verb	phrase	1	15	match	nager	5	1	p	0.49317000000000005
374.14029999999997	0.0	+	38	noun	list	3	1	nomatch	patiner	-1	1	y	0.84057
374.69	0.2	lrq	38	noun	list	3	2	nomatch	patiner	-1	1	y	0.84057
374.8899	0.0	+	38	noun	list	3	3	nomatch	patiner	-1	1	y	0.84057
375.2897	0.2	lzd	38	noun	list	3	4	nomatch	patiner	-1	1	y	0.84057
375.4896	0.0	+	38	noun	list	3	5	nomatch	patiner	-1	1	y	0.84057
375.8895	0.2	peut	38	noun	list	3	6	nomatch	patiner	-1	1	y	0.84057
376.0894	0.0	+	38	noun	list	3	7	nomatch	patiner	-1	1	y	0.84057
376.4892	0.2	rocher	38	noun	list	3	8	nomatch	patiner	-1	1	y	0.84057
376.6891	0.0	+	38	noun	list	3	9	nomatch	patiner	-1	1	y	0.84057
377.08889999999997	0.2	vite	38	noun	list	3	10	nomatch	patiner	-1	1	y	0.84057
377.2888	0.0	+	38	noun	list	3	11	nomatch	patiner	-1	1	y	0.84057
377.6887	0.0	+	38	noun	list	3	12	nomatch	patiner	-1	1	y	0.84057
379.6877	0.0	PATINER	38	noun	list	3	13	nomatch	patiner	-1	1	y	0.84057
380.58729999999997	0.0	+	38	noun	list	3	14	nomatch	patiner	-1	1	y	0.84057
380.52830000000006	0.0	[response]	38	noun	list	3	15	nomatch	patiner	-1	1	y	0.84057
382.0867	0.0	+	39	verb	list	2	1	nomatch	sablier	-1	1	y	0.63014
382.6364	0.2	rwnf	39	verb	list	2	2	nomatch	sablier	-1	1	y	0.63014
382.8363	0.0	+	39	verb	list	2	3	nomatch	sablier	-1	1	y	0.63014
383.2361	0.2	gxsd	39	verb	list	2	4	nomatch	sablier	-1	1	y	0.63014
383.4361	0.0	+	39	verb	list	2	5	nomatch	sablier	-1	1	y	0.63014
383.8359	0.2	cpqb	39	verb	list	2	6	nomatch	sablier	-1	1	y	0.63014
384.0358	0.0	+	39	verb	list	2	7	nomatch	sablier	-1	1	y	0.63014
384.4356	0.2	beau	39	verb	list	2	8	nomatch	sablier	-1	1	y	0.63014
384.6355	0.0	+	39	verb	list	2	9	nomatch	sablier	-1	1	y	0.63014
385.0353	0.2	jongler	39	verb	list	2	10	nomatch	sablier	-1	1	y	0.63014
385.2352	0.0	+	39	verb	list	2	11	nomatch	sablier	-1	1	y	0.63014
385.635	0.0	+	39	verb	list	2	12	nomatch	sablier	-1	1	y	0.63014
387.6342	0.0	SABLIER	39	verb	list	2	13	nomatch	sablier	-1	1	y	0.63014
388.3172	0.0	+	39	verb	list	2	14	nomatch	sablier	-1	1	y	0.63014
388.2643	0.0	[response]	39	verb	list	2	15	nomatch	sablier	-1	1	y	0.63014
390.0499	0.0	+	40	noun	list	4	1	match	va	3	1	p	0.44064
390.5995	0.2	lxcdnq	40	noun	list	4	2	match	va	3	1	p	0.44064
390.7994	0.0	+	40	noun	list	4	3	match	va	3	1	p	0.44064
391.1992	0.2	pour	40	noun	list	4	4	match	va	3	1	p	0.44064
391.3991	0.0	+	40	noun	list	4	5	match	va	3	1	p	0.44064
391.7989	0.2	va	40	noun	list	4	6	match	va	3	1	p	0.44064
391.9988	0.0	+	40	noun	list	4	7	match	va	3	1	p	0.44064
392.3987	0.2	rocher	40	noun	list	4	8	match	va	3	1	p	0.44064
392.5986	0.0	+	40	noun	list	4	9	match	va	3	1	p	0.44064
392.9984	0.2	ainsi	40	noun	list	4	10	match	va	3	1	p	0.44064
393.1983	0.0	+	40	noun	list	4	11	match	va	3	1	p	0.44064
393.5981	0.0	+	40	noun	list	4	12	match	va	3	1	p	0.44064
395.5972	0.0	VA	40	noun	list	4	13	match	va	3	1	p	0.44064
396.097	0.0	+	40	noun	list	4	14	match	va	3	1	p	0.44064
396.03780000000006	0.0	[response]	40	noun	list	4	15	match	va	3	1	p	0.44064
397.9961	0.0	+	41	noun	list	1	1	match	panier	5	1	p	0.40754
398.5459	0.2	ckmlz	41	noun	list	1	2	match	panier	5	1	p	0.40754
398.7458	0.0	+	41	noun	list	1	3	match	panier	5	1	p	0.40754
399.1456	0.2	mrn	41	noun	list	1	4	match	panier	5	1	p	0.40754
399.3455	0.0	+	41	noun	list	1	5	match	panier	5	1	p	0.40754
399.7453	0.2	bwgs	41	noun	list	1	6	match	panier	5	1	p	0.40754
399.9452	0.0	+	41	noun	list	1	7	match	panier	5	1	p	0.40754
400.3451	0.2	thfl	41	noun	list	1	8	match	panier	5	1	p	0.40754
400.545	0.0	+	41	noun	list	1	9	match	panier	5	1	p	0.40754
400.9448	0.2	panier	41	noun	list	1	10	match	panier	5	1	p	0.40754
401.1447	0.0	+	41	noun	list	1	11	match	panier	5	1	p	0.40754
401.54449999999997	0.0	+	41	noun	list	1	12	match	panier	5	1	p	0.40754
403.54359999999997	0.0	PANIER	41	noun	list	1	13	match	panier	5	1	p	0.40754
404.0101	0.0	+	41	noun	list	1	14	match	panier	5	1	p	0.40754
403.95120000000003	0.0	[response]	41	noun	list	1	15	match	panier	5	1	p	0.40754
405.9425	0.0	+	42	noun	phrase	4	1	nomatch	sous	-1	1	y	0.74385
406.4923	0.2	vkzwt	42	noun	phrase	4	2	nomatch	sous	-1	1	y	0.74385
406.6922	0.0	+	42	noun	phrase	4	3	nomatch	sous	-1	1	y	0.74385
407.092	0.2	dans	42	noun	phrase	4	4	nomatch	sous	-1	1	y	0.74385
407.2919	0.0	+	42	noun	phrase	4	5	nomatch	sous	-1	1	y	0.74385
407.69169999999997	0.2	son	42	noun	phrase	4	6	nomatch	sous	-1	1	y	0.74385
407.8916	0.0	+	42	noun	phrase	4	7	nomatch	sous	-1	1	y	0.74385
408.2921	0.2	grenier	42	noun	phrase	4	8	nomatch	sous	-1	1	y	0.74385
408.4914	0.0	+	42	noun	phrase	4	9	nomatch	sous	-1	1	y	0.74385
408.89119999999997	0.2	blanc	42	noun	phrase	4	10	nomatch	sous	-1	1	y	0.74385
409.0911	0.0	+	42	noun	phrase	4	11	nomatch	sous	-1	1	y	0.74385
409.4909	0.0	+	42	noun	phrase	4	12	nomatch	sous	-1	1	y	0.74385
411.49	0.0	SOUS	42	noun	phrase	4	13	nomatch	sous	-1	1	y	0.74385
412.2896	0.0	+	42	noun	phrase	4	14	nomatch	sous	-1	1	y	0.74385
412.2339	0.0	[response]	42	noun	phrase	4	15	nomatch	sous	-1	1	y	0.74385
413.8889	0.0	+	43	verb	phrase	2	1	nomatch	vert	-1	1	y	0.74975
414.4387	0.2	nhsbd	43	verb	phrase	2	2	nomatch	vert	-1	1	y	0.74975
414.6386	0.0	+	43	verb	phrase	2	3	nomatch	vert	-1	1	y	0.74975
415.03839999999997	0.2	wlmq	43	verb	phrase	2	4	nomatch	vert	-1	1	y	0.74975
415.2383	0.0	+	43	verb	phrase	2	5	nomatch	vert	-1	1	y	0.74975
415.6381	0.2	vh	43	verb	phrase	2	6	nomatch	vert	-1	1	y	0.74975
415.838	0.0	+	43	verb	phrase	2	7	nomatch	vert	-1	1	y	0.74975
416.23789999999997	0.2	rouler	43	verb	phrase	2	8	nomatch	vert	-1	1	y	0.74975
416.4378	0.0	+	43	verb	phrase	2	9	nomatch	vert	-1	1	y	0.74975
416.8376	0.2	tard	43	verb	phrase	2	10	nomatch	vert	-1	1	y	0.74975
417.0375	0.0	+	43	verb	phrase	2	11	nomatch	vert	-1	1	y	0.74975
417.4373	0.0	+	43	verb	phrase	2	12	nomatch	vert	-1	1	y	0.74975
419.4364	0.0	VERT	43	verb	phrase	2	13	nomatch	vert	-1	1	y	0.74975
420.2527	0.0	+	43	verb	phrase	2	14	nomatch	vert	-1	1	y	0.74975
420.1862	0.0	[response]	43	verb	phrase	2	15	nomatch	vert	-1	1	y	0.74975
421.8353	0.0	+	44	noun	list	1	1	nomatch	vite	-1	1	y	0.49488
422.3851	0.2	vlz	44	noun	list	1	2	nomatch	vite	-1	1	y	0.49488
422.585	0.0	+	44	noun	list	1	3	nomatch	vite	-1	1	y	0.49488
422.9848	0.2	vzck	44	noun	list	1	4	nomatch	vite	-1	1	y	0.49488
423.1847	0.0	+	44	noun	list	1	5	nomatch	vite	-1	1	y	0.49488
423.5845	0.2	hljn	44	noun	list	1	6	nomatch	vite	-1	1	y	0.49488
423.7851	0.0	+	44	noun	list	1	7	nomatch	vite	-1	1	y	0.49488
424.1843	0.2	mplvtsb	44	noun	list	1	8	nomatch	vite	-1	1	y	0.49488
424.3842	0.0	+	44	noun	list	1	9	nomatch	vite	-1	1	y	0.49488
424.78409999999997	0.2	loin	44	noun	list	1	10	nomatch	vite	-1	1	y	0.49488
424.9839	0.0	+	44	noun	list	1	11	nomatch	vite	-1	1	y	0.49488
425.3837	0.0	+	44	noun	list	1	12	nomatch	vite	-1	1	y	0.49488
427.3995	0.0	VITE	44	noun	list	1	13	nomatch	vite	-1	1	y	0.49488
427.9492	0.0	+	44	noun	list	1	14	nomatch	vite	-1	1	y	0.49488
427.8943	0.0	[response]	44	noun	list	1	15	nomatch	vite	-1	1	y	0.49488
429.7984	0.0	+	45	verb	phrase	1	1	nomatch	rouler	-1	1	y	0.68155
430.3481	0.2	nszwtb	45	verb	phrase	1	2	nomatch	rouler	-1	1	y	0.68155
430.548	0.0	+	45	verb	phrase	1	3	nomatch	rouler	-1	1	y	0.68155
430.9479	0.2	rdft	45	verb	phrase	1	4	nomatch	rouler	-1	1	y	0.68155
431.1478	0.0	+	45	verb	phrase	1	5	nomatch	rouler	-1	1	y	0.68155
431.5476	0.2	cpqb	45	verb	phrase	1	6	nomatch	rouler	-1	1	y	0.68155
431.7475	0.0	+	45	verb	phrase	1	7	nomatch	rouler	-1	1	y	0.68155
432.1473	0.2	ljk	45	verb	phrase	1	8	nomatch	rouler	-1	1	y	0.68155
432.3472	0.0	+	45	verb	phrase	1	9	nomatch	rouler	-1	1	y	0.68155
432.747	0.2	jongler	45	verb	phrase	1	10	nomatch	rouler	-1	1	y	0.68155
432.947	0.0	+	45	verb	phrase	1	11	nomatch	rouler	-1	1	y	0.68155
433.3468	0.0	+	45	verb	phrase	1	12	nomatch	rouler	-1	1	y	0.68155
435.3459	0.0	ROULER	45	verb	phrase	1	13	nomatch	rouler	-1	1	y	0.68155
436.0789	0.0	+	45	verb	phrase	1	14	nomatch	rouler	-1	1	y	0.68155
436.0274	0.0	[response]	45	verb	phrase	1	15	nomatch	rouler	-1	1	y	0.68155
437.7448	0.0	+	46	noun	phrase	2	1	nomatch	tablier	-1	1	y	1.0169
438.29449999999997	0.2	wqhb	46	noun	phrase	2	2	nomatch	tablier	-1	1	y	1.0169
438.4944	0.0	+	46	noun	phrase	2	3	nomatch	tablier	-1	1	y	1.0169
438.8943	0.2	ntmd	46	noun	phrase	2	4	nomatch	tablier	-1	1	y	1.0169
439.0942	0.0	+	46	noun	phrase	2	5	nomatch	tablier	-1	1	y	1.0169
439.49399999999997	0.2	bwgs	46	noun	phrase	2	6	nomatch	tablier	-1	1	y	1.0169
439.6939	0.0	+	46	noun	phrase	2	7	nomatch	tablier	-1	1	y	1.0169
440.0937	0.2	boîtier	46	noun	phrase	2	8	nomatch	tablier	-1	1	y	1.0169
440.29359999999997	0.0	+	46	noun	phrase	2	9	nomatch	tablier	-1	1	y	1.0169
440.6934	0.2	vert	46	noun	phrase	2	10	nomatch	tablier	-1	1	y	1.0169
440.8934	0.0	+	46	noun	phrase	2	11	nomatch	tablier	-1	1	y	1.0169
441.2932	0.0	+	46	noun	phrase	2	12	nomatch	tablier	-1	1	y	1.0169
443.2923	0.0	TABLIER	46	noun	phrase	2	13	nomatch	tablier	-1	1	y	1.0169
444.3751	0.0	+	46	noun	phrase	2	14	nomatch	tablier	-1	1	y	1.0169
444.30920000000003	0.0	[response]	46	noun	phrase	2	15	nomatch	tablier	-1	1	y	1.0169
461.6839	0.0	+	47	noun	phrase	3	1	nomatch	yves	-1	0	p	1.1645
462.2337	0.2	xnvzspc	47	noun	phrase	3	2	nomatch	yves	-1	0	p	1.1645
462.43359999999996	0.0	+	47	noun	phrase	3	3	nomatch	yves	-1	0	p	1.1645
462.8501	0.2	gxsd	47	noun	phrase	3	4	nomatch	yves	-1	0	p	1.1645
463.04999999999995	0.0	+	47	noun	phrase	3	5	nomatch	yves	-1	0	p	1.1645
463.4498	0.2	mon	47	noun	phrase	3	6	nomatch	yves	-1	0	p	1.1645
463.64969999999994	0.0	+	47	noun	phrase	3	7	nomatch	yves	-1	0	p	1.1645
464.04949999999997	0.2	nouveau	47	noun	phrase	3	8	nomatch	yves	-1	0	p	1.1645
464.24940000000004	0.0	+	47	noun	phrase	3	9	nomatch	yves	-1	0	p	1.1645
464.64930000000004	0.2	grenier	47	noun	phrase	3	10	nomatch	yves	-1	0	p	1.1645
464.8492	0.0	+	47	noun	phrase	3	11	nomatch	yves	-1	0	p	1.1645
465.249	0.0	+	47	noun	phrase	3	12	nomatch	yves	-1	0	p	1.1645
467.2481	0.0	YVES	47	noun	phrase	3	13	nomatch	yves	-1	0	p	1.1645
468.4642	0.0	+	47	noun	phrase	3	14	nomatch	yves	-1	0	p	1.1645
468.4126	0.0	[response]	47	noun	phrase	3	15	nomatch	yves	-1	0	p	1.1645
469.64700000000005	0.0	+	48	verb	list	2	1	match	noir	5	1	p	0.55007
470.19669999999996	0.2	vsfzd	48	verb	list	2	2	match	noir	5	1	p	0.55007
470.39660000000003	0.0	+	48	verb	list	2	3	match	noir	5	1	p	0.55007
470.79650000000004	0.2	mrn	48	verb	list	2	4	match	noir	5	1	p	0.55007
470.9964	0.0	+	48	verb	list	2	5	match	noir	5	1	p	0.55007
471.3962	0.2	bwgs	48	verb	list	2	6	match	noir	5	1	p	0.55007
471.5961	0.0	+	48	verb	list	2	7	match	noir	5	1	p	0.55007
471.9959	0.2	nager	48	verb	list	2	8	match	noir	5	1	p	0.55007
472.19579999999996	0.0	+	48	verb	list	2	9	match	noir	5	1	p	0.55007
472.59569999999997	0.2	noir	48	verb	list	2	10	match	noir	5	1	p	0.55007
472.79560000000004	0.0	+	48	verb	list	2	11	match	noir	5	1	p	0.55007
473.19539999999995	0.0	+	48	verb	list	2	12	match	noir	5	1	p	0.55007
475.19449999999995	0.0	NOIR	48	verb	list	2	13	match	noir	5	1	p	0.55007
475.81089999999995	0.0	+	48	verb	list	2	14	match	noir	5	1	p	0.55007
475.7445	0.0	[response]	48	verb	list	2	15	match	noir	5	1	p	0.55007
477.5934	0.0	+	49	verb	phrase	1	1	match	patiner	5	1	p	0.55762
478.1431	0.2	wbkvjp	49	verb	phrase	1	2	match	patiner	5	1	p	0.55762
478.34310000000005	0.0	+	49	verb	phrase	1	3	match	patiner	5	1	p	0.55762
478.74289999999996	0.2	wzvq	49	verb	phrase	1	4	match	patiner	5	1	p	0.55762
478.94280000000003	0.0	+	49	verb	phrase	1	5	match	patiner	5	1	p	0.55762
479.34259999999995	0.2	vh	49	verb	phrase	1	6	match	patiner	5	1	p	0.55762
479.5425	0.0	+	49	verb	phrase	1	7	match	patiner	5	1	p	0.55762
479.94230000000005	0.2	rwbvdpft	49	verb	phrase	1	8	match	patiner	5	1	p	0.55762
480.1422	0.0	+	49	verb	phrase	1	9	match	patiner	5	1	p	0.55762
480.54200000000003	0.2	patiner	49	verb	phrase	1	10	match	patiner	5	1	p	0.55762
480.74199999999996	0.0	+	49	verb	phrase	1	11	match	patiner	5	1	p	0.55762
481.1418	0.0	+	49	verb	phrase	1	12	match	patiner	5	1	p	0.55762
483.1409	0.0	PATINER	49	verb	phrase	1	13	match	patiner	5	1	p	0.55762
483.7573	0.0	+	49	verb	phrase	1	14	match	patiner	5	1	p	0.55762
483.69849999999997	0.0	[response]	49	verb	phrase	1	15	match	patiner	5	1	p	0.55762
485.5398	0.0	+	50	verb	phrase	2	1	nomatch	va	-1	1	y	0.56981
486.08950000000004	0.2	lsc	50	verb	phrase	2	2	nomatch	va	-1	1	y	0.56981
486.2894	0.0	+	50	verb	phrase	2	3	nomatch	va	-1	1	y	0.56981
486.6893	0.2	mthp	50	verb	phrase	2	4	nomatch	va	-1	1	y	0.56981
486.88919999999996	0.0	+	50	verb	phrase	2	5	nomatch	va	-1	1	y	0.56981
487.28959999999995	0.2	hljn	50	verb	phrase	2	6	nomatch	va	-1	1	y	0.56981
487.48889999999994	0.0	+	50	verb	phrase	2	7	nomatch	va	-1	1	y	0.56981
487.8887	0.2	jongler	50	verb	phrase	2	8	nomatch	va	-1	1	y	0.56981
488.08860000000004	0.0	+	50	verb	phrase	2	9	nomatch	va	-1	1	y	0.56981
488.48850000000004	0.2	tard	50	verb	phrase	2	10	nomatch	va	-1	1	y	0.56981
488.6884	0.0	+	50	verb	phrase	2	11	nomatch	va	-1	1	y	0.56981
489.08820000000003	0.0	+	50	verb	phrase	2	12	nomatch	va	-1	1	y	0.56981
491.0873	0.0	VA	50	verb	phrase	2	13	nomatch	va	-1	1	y	0.56981
491.72029999999995	0.0	+	50	verb	phrase	2	14	nomatch	va	-1	1	y	0.56981
491.6571	0.0	[response]	50	verb	phrase	2	15	nomatch	va	-1	1	y	0.56981
493.4864	0.0	+	51	noun	list	4	1	match	jean	2	1	p	0.64836
494.03589999999997	0.2	ctxnwd	51	noun	list	4	2	match	jean	2	1	p	0.64836
494.23580000000004	0.0	+	51	noun	list	4	3	match	jean	2	1	p	0.64836
494.63570000000004	0.2	jean	51	noun	list	4	4	match	jean	2	1	p	0.64836
494.8356	0.0	+	51	noun	list	4	5	match	jean	2	1	p	0.64836
495.2354	0.2	mon	51	noun	list	4	6	match	jean	2	1	p	0.64836
495.4353	0.0	+	51	noun	list	4	7	match	jean	2	1	p	0.64836
495.8351	0.2	trop	51	noun	list	4	8	match	jean	2	1	p	0.64836
496.03499999999997	0.0	+	51	noun	list	4	9	match	jean	2	1	p	0.64836
496.4348	0.2	tablier	51	noun	list	4	10	match	jean	2	1	p	0.64836
496.63480000000004	0.0	+	51	noun	list	4	11	match	jean	2	1	p	0.64836
497.03459999999995	0.0	+	51	noun	list	4	12	match	jean	2	1	p	0.64836
499.03369999999995	0.0	JEAN	51	noun	list	4	13	match	jean	2	1	p	0.64836
499.73339999999996	0.0	+	51	noun	list	4	14	match	jean	2	1	p	0.64836
499.6821	0.0	[response]	51	noun	list	4	15	match	jean	2	1	p	0.64836
509.4456	0.0	+	52	noun	phrase	3	1	match	vert	5	1	p	0.66677
509.9954	0.2	lxjvp	52	noun	phrase	3	2	match	vert	5	1	p	0.66677
510.1953	0.0	+	52	noun	phrase	3	3	match	vert	5	1	p	0.66677
510.5951	0.2	vzck	52	noun	phrase	3	4	match	vert	5	1	p	0.66677
510.79499999999996	0.0	+	52	noun	phrase	3	5	match	vert	5	1	p	0.66677
511.1948	0.2	son	52	noun	phrase	3	6	match	vert	5	1	p	0.66677
511.39469999999994	0.0	+	52	noun	phrase	3	7	match	vert	5	1	p	0.66677
511.79459999999995	0.2	cendrier	52	noun	phrase	3	8	match	vert	5	1	p	0.66677
511.9945	0.0	+	52	noun	phrase	3	9	match	vert	5	1	p	0.66677
512.3943	0.2	vert	52	noun	phrase	3	10	match	vert	5	1	p	0.66677
512.5942	0.0	+	52	noun	phrase	3	11	match	vert	5	1	p	0.66677
512.994	0.0	+	52	noun	phrase	3	12	match	vert	5	1	p	0.66677
514.9931	0.0	VERT	52	noun	phrase	3	13	match	vert	5	1	p	0.66677
515.7261	0.0	+	52	noun	phrase	3	14	match	vert	5	1	p	0.66677
515.6599	0.0	[response]	52	noun	phrase	3	15	match	vert	5	1	p	0.66677
517.3919999999999	0.0	+	53	verb	phrase	1	1	nomatch	paul	-1	1	y	1.6308
517.9418	0.2	ltq	53	verb	phrase	1	2	nomatch	paul	-1	1	y	1.6308
518.1417	0.0	+	53	verb	phrase	1	3	nomatch	paul	-1	1	y	1.6308
518.5415	0.2	wlmq	53	verb	phrase	1	4	nomatch	paul	-1	1	y	1.6308
518.7414	0.0	+	53	verb	phrase	1	5	nomatch	paul	-1	1	y	1.6308
519.1412	0.2	vh	53	verb	phrase	1	6	nomatch	paul	-1	1	y	1.6308
519.3411	0.0	+	53	verb	phrase	1	7	nomatch	paul	-1	1	y	1.6308
519.7409	0.2	lhdrnpz	53	verb	phrase	1	8	nomatch	paul	-1	1	y	1.6308
519.9408999999999	0.0	+	53	verb	phrase	1	9	nomatch	paul	-1	1	y	1.6308
520.3407	0.2	moins	53	verb	phrase	1	10	nomatch	paul	-1	1	y	1.6308
520.5406	0.0	+	53	verb	phrase	1	11	nomatch	paul	-1	1	y	1.6308
520.9404	0.0	+	53	verb	phrase	1	12	nomatch	paul	-1	1	y	1.6308
522.9395	0.0	PAUL	53	verb	phrase	1	13	nomatch	paul	-1	1	y	1.6308
524.6221	0.0	+	53	verb	phrase	1	14	nomatch	paul	-1	1	y	1.6308
524.5703	0.0	[response]	53	verb	phrase	1	15	nomatch	paul	-1	1	y	1.6308
525.3384	0.0	+	54	noun	list	1	1	match	mieux	5	1	p	0.42449
525.8882	0.2	mgk	54	noun	list	1	2	match	mieux	5	1	p	0.42449
526.0880999999999	0.0	+	54	noun	list	1	3	match	mieux	5	1	p	0.42449
526.4879	0.2	cdsf	54	noun	list	1	4	match	mieux	5	1	p	0.42449
526.6878	0.0	+	54	noun	list	1	5	match	mieux	5	1	p	0.42449
527.0876	0.2	gbl	54	noun	list	1	6	match	mieux	5	1	p	0.42449
527.2883	0.0	+	54	noun	list	1	7	match	mieux	5	1	p	0.42449
527.6874	0.2	nwbfdgm	54	noun	list	1	8	match	mieux	5	1	p	0.42449
527.8873	0.0	+	54	noun	list	1	9	match	mieux	5	1	p	0.42449
528.2871	0.2	mieux	54	noun	list	1	10	match	mieux	5	1	p	0.42449
528.487	0.0	+	54	noun	list	1	11	match	mieux	5	1	p	0.42449
528.8868	0.0	+	54	noun	list	1	12	match	mieux	5	1	p	0.42449
530.8859	0.0	MIEUX	54	noun	list	1	13	match	mieux	5	1	p	0.42449
531.369	0.0	+	54	noun	list	1	14	match	mieux	5	1	p	0.42449
531.3104	0.0	[response]	54	noun	list	1	15	match	mieux	5	1	p	0.42449
533.2855	0.0	+	55	verb	phrase	2	1	match	beaucoup	4	1	p	0.54234
533.8346	0.2	vwm	55	verb	phrase	2	2	match	beaucoup	4	1	p	0.54234
534.0345	0.0	+	55	verb	phrase	2	3	match	beaucoup	4	1	p	0.54234
534.4343	0.2	wlmq	55	verb	phrase	2	4	match	beaucoup	4	1	p	0.54234
534.6342	0.0	+	55	verb	phrase	2	5	match	beaucoup	4	1	p	0.54234
535.034	0.2	cpqb	55	verb	phrase	2	6	match	beaucoup	4	1	p	0.54234
535.2339	0.0	+	55	verb	phrase	2	7	match	beaucoup	4	1	p	0.54234
535.6337	0.2	beaucoup	55	verb	phrase	2	8	match	beaucoup	4	1	p	0.54234
535.8337	0.0	+	55	verb	phrase	2	9	match	beaucoup	4	1	p	0.54234
536.2501	0.2	jongler	55	verb	phrase	2	10	match	beaucoup	4	1	p	0.54234
536.45	0.0	+	55	verb	phrase	2	11	match	beaucoup	4	1	p	0.54234
536.8499	0.0	+	55	verb	phrase	2	12	match	beaucoup	4	1	p	0.54234
538.849	0.0	BEAUCOUP	55	verb	phrase	2	13	match	beaucoup	4	1	p	0.54234
539.4487	0.0	+	55	verb	phrase	2	14	match	beaucoup	4	1	p	0.54234
539.3913	0.0	[response]	55	verb	phrase	2	15	match	beaucoup	4	1	p	0.54234
541.2479	0.0	+	56	verb	phrase	1	1	nomatch	cendrier	-1	1	y	0.60882
541.7976	0.2	vzgqkt	56	verb	phrase	1	2	nomatch	cendrier	-1	1	y	0.60882
541.9975	0.0	+	56	verb	phrase	1	3	nomatch	cendrier	-1	1	y	0.60882
542.3974	0.2	wzvq	56	verb	phrase	1	4	nomatch	cendrier	-1	1	y	0.60882
542.5973	0.0	+	56	verb	phrase	1	5	nomatch	cendrier	-1	1	y	0.60882
542.9971	0.2	vh	56	verb	phrase	1	6	nomatch	cendrier	-1	1	y	0.60882
543.197	0.0	+	56	verb	phrase	1	7	nomatch	cendrier	-1	1	y	0.60882
543.5968	0.2	hkvgz	56	verb	phrase	1	8	nomatch	cendrier	-1	1	y	0.60882
543.7967	0.0	+	56	verb	phrase	1	9	nomatch	cendrier	-1	1	y	0.60882
544.1965	0.2	rouler	56	verb	phrase	1	10	nomatch	cendrier	-1	1	y	0.60882
544.3964	0.0	+	56	verb	phrase	1	11	nomatch	cendrier	-1	1	y	0.60882
544.7963	0.0	+	56	verb	phrase	1	12	nomatch	cendrier	-1	1	y	0.60882
546.7954	0.0	CENDRIER	56	verb	phrase	1	13	nomatch	cendrier	-1	1	y	0.60882
547.4617	0.0	+	56	verb	phrase	1	14	nomatch	cendrier	-1	1	y	0.60882
547.4042000000001	0.0	[response]	56	verb	phrase	1	15	nomatch	cendrier	-1	1	y	0.60882
549.1943	0.0	+	57	noun	list	2	1	match	mieux	4	1	p	0.55012
549.744	0.2	jkzv	57	noun	list	2	2	match	mieux	4	1	p	0.55012
549.9439	0.0	+	57	noun	list	2	3	match	mieux	4	1	p	0.55012
550.3437	0.2	mrn	57	noun	list	2	4	match	mieux	4	1	p	0.55012
550.5437	0.0	+	57	noun	list	2	5	match	mieux	4	1	p	0.55012
550.9435	0.2	gbl	57	noun	list	2	6	match	mieux	4	1	p	0.55012
551.1434	0.0	+	57	noun	list	2	7	match	mieux	4	1	p	0.55012
551.5432	0.2	mieux	57	noun	list	2	8	match	mieux	4	1	p	0.55012
551.7431	0.0	+	57	noun	list	2	9	match	mieux	4	1	p	0.55012
552.1428999999999	0.2	grenier	57	noun	list	2	10	match	mieux	4	1	p	0.55012
552.3429	0.0	+	57	noun	list	2	11	match	mieux	4	1	p	0.55012
552.7427	0.0	+	57	noun	list	2	12	match	mieux	4	1	p	0.55012
554.7418	0.0	MIEUX	57	noun	list	2	13	match	mieux	4	1	p	0.55012
555.3582	0.0	+	57	noun	list	2	14	match	mieux	4	1	p	0.55012
555.2918999999999	0.0	[response]	57	noun	list	2	15	match	mieux	4	1	p	0.55012
557.1407	0.0	+	58	verb	phrase	4	1	nomatch	avec	-1	1	y	0.74752
557.6904	0.2	gpbcmr	58	verb	phrase	4	2	nomatch	avec	-1	1	y	0.74752
557.8903	0.0	+	58	verb	phrase	4	3	nomatch	avec	-1	1	y	0.74752
558.2900999999999	0.2	marc	58	verb	phrase	4	4	nomatch	avec	-1	1	y	0.74752
558.4901	0.0	+	58	verb	phrase	4	5	nomatch	avec	-1	1	y	0.74752
558.8899	0.2	peut	58	verb	phrase	4	6	nomatch	avec	-1	1	y	0.74752
559.0898	0.0	+	58	verb	phrase	4	7	nomatch	avec	-1	1	y	0.74752
559.4896	0.2	moins	58	verb	phrase	4	8	nomatch	avec	-1	1	y	0.74752
559.6895	0.0	+	58	verb	phrase	4	9	nomatch	avec	-1	1	y	0.74752
560.0893	0.2	galoper	58	verb	phrase	4	10	nomatch	avec	-1	1	y	0.74752
560.2892	0.0	+	58	verb	phrase	4	11	nomatch	avec	-1	1	y	0.74752
560.6890999999999	0.0	+	58	verb	phrase	4	12	nomatch	avec	-1	1	y	0.74752
562.6881999999999	0.0	AVEC	58	verb	phrase	4	13	nomatch	avec	-1	1	y	0.74752
563.4878	0.0	+	58	verb	phrase	4	14	nomatch	avec	-1	1	y	0.74752
563.4357	0.0	[response]	58	verb	phrase	4	15	nomatch	avec	-1	1	y	0.74752
565.0871	0.0	+	59	verb	phrase	4	1	match	tard	5	1	p	1.2576000000000003
565.6368	0.2	pvbhslg	59	verb	phrase	4	2	match	tard	5	1	p	1.2576000000000003
565.8367	0.0	+	59	verb	phrase	4	3	match	tard	5	1	p	1.2576000000000003
566.2365	0.2	jean	59	verb	phrase	4	4	match	tard	5	1	p	1.2576000000000003
566.4365	0.0	+	59	verb	phrase	4	5	match	tard	5	1	p	1.2576000000000003
566.8363	0.2	va	59	verb	phrase	4	6	match	tard	5	1	p	1.2576000000000003
567.0362	0.0	+	59	verb	phrase	4	7	match	tard	5	1	p	1.2576000000000003
567.436	0.2	parader	59	verb	phrase	4	8	match	tard	5	1	p	1.2576000000000003
567.6359	0.0	+	59	verb	phrase	4	9	match	tard	5	1	p	1.2576000000000003
568.0357	0.2	tard	59	verb	phrase	4	10	match	tard	5	1	p	1.2576000000000003
568.2357	0.0	+	59	verb	phrase	4	11	match	tard	5	1	p	1.2576000000000003
568.6355	0.0	+	59	verb	phrase	4	12	match	tard	5	1	p	1.2576000000000003
570.6346	0.0	TARD	59	verb	phrase	4	13	match	tard	5	1	p	1.2576000000000003
571.9506	0.0	+	59	verb	phrase	4	14	match	tard	5	1	p	1.2576000000000003
571.8922	0.0	[response]	59	verb	phrase	4	15	match	tard	5	1	p	1.2576000000000003
581.0465	0.0	+	60	noun	list	4	1	match	moins	4	1	p	0.4411900000000001
581.5963	0.2	qmx	60	noun	list	4	2	match	moins	4	1	p	0.4411900000000001
581.7962	0.0	+	60	noun	list	4	3	match	moins	4	1	p	0.4411900000000001
582.196	0.2	luc	60	noun	list	4	4	match	moins	4	1	p	0.4411900000000001
582.3959	0.0	+	60	noun	list	4	5	match	moins	4	1	p	0.4411900000000001
582.7957	0.2	son	60	noun	list	4	6	match	moins	4	1	p	0.4411900000000001
582.9956	0.0	+	60	noun	list	4	7	match	moins	4	1	p	0.4411900000000001
583.3955	0.2	moins	60	noun	list	4	8	match	moins	4	1	p	0.4411900000000001
583.5953	0.0	+	60	noun	list	4	9	match	moins	4	1	p	0.4411900000000001
583.9952	0.2	sablier	60	noun	list	4	10	match	moins	4	1	p	0.4411900000000001
584.1951	0.0	+	60	noun	list	4	11	match	moins	4	1	p	0.4411900000000001
584.5948999999999	0.0	+	60	noun	list	4	12	match	moins	4	1	p	0.4411900000000001
586.594	0.0	MOINS	60	noun	list	4	13	match	moins	4	1	p	0.4411900000000001
587.0938	0.0	+	60	noun	list	4	14	match	moins	4	1	p	0.4411900000000001
587.0352	0.0	[response]	60	noun	list	4	15	match	moins	4	1	p	0.4411900000000001
588.9929	0.0	+	61	verb	list	4	1	match	grand	4	1	p	0.5588
589.5427	0.2	ltnjqc	61	verb	list	4	2	match	grand	4	1	p	0.5588
589.7426	0.0	+	61	verb	list	4	3	match	grand	4	1	p	0.5588
590.1424	0.2	sur	61	verb	list	4	4	match	grand	4	1	p	0.5588
590.3423	0.0	+	61	verb	list	4	5	match	grand	4	1	p	0.5588
590.7421	0.2	va	61	verb	list	4	6	match	grand	4	1	p	0.5588
590.942	0.0	+	61	verb	list	4	7	match	grand	4	1	p	0.5588
591.3418	0.2	grand	61	verb	list	4	8	match	grand	4	1	p	0.5588
591.5417	0.0	+	61	verb	list	4	9	match	grand	4	1	p	0.5588
591.9416	0.2	parader	61	verb	list	4	10	match	grand	4	1	p	0.5588
592.1415	0.0	+	61	verb	list	4	11	match	grand	4	1	p	0.5588
592.5413	0.0	+	61	verb	list	4	12	match	grand	4	1	p	0.5588
594.5404	0.0	GRAND	61	verb	list	4	13	match	grand	4	1	p	0.5588
595.1568	0.0	+	61	verb	list	4	14	match	grand	4	1	p	0.5588
595.0992	0.0	[response]	61	verb	list	4	15	match	grand	4	1	p	0.5588
596.9393	0.0	+	62	verb	phrase	1	1	match	nager	5	1	p	0.47014
597.4891	0.2	tpbx	62	verb	phrase	1	2	match	nager	5	1	p	0.47014
597.689	0.0	+	62	verb	phrase	1	3	match	nager	5	1	p	0.47014
598.0888	0.2	gbpr	62	verb	phrase	1	4	match	nager	5	1	p	0.47014
598.2887	0.0	+	62	verb	phrase	1	5	match	nager	5	1	p	0.47014
598.6885	0.2	hljn	62	verb	phrase	1	6	match	nager	5	1	p	0.47014
598.8884	0.0	+	62	verb	phrase	1	7	match	nager	5	1	p	0.47014
599.2889	0.2	qmbwg	62	verb	phrase	1	8	match	nager	5	1	p	0.47014
599.4881	0.0	+	62	verb	phrase	1	9	match	nager	5	1	p	0.47014
599.888	0.2	nager	62	verb	phrase	1	10	match	nager	5	1	p	0.47014
600.0879	0.0	+	62	verb	phrase	1	11	match	nager	5	1	p	0.47014
600.4877	0.0	+	62	verb	phrase	1	12	match	nager	5	1	p	0.47014
602.4868	0.0	NAGER	62	verb	phrase	1	13	match	nager	5	1	p	0.47014
603.0199	0.0	+	62	verb	phrase	1	14	match	nager	5	1	p	0.47014
602.9569000000001	0.0	[response]	62	verb	phrase	1	15	match	nager	5	1	p	0.47014
604.8857	0.0	+	63	verb	list	4	1	nomatch	peut	-1	1	y	0.58836
605.4354	0.2	blcm	63	verb	list	4	2	nomatch	peut	-1	1	y	0.58836
605.6354	0.0	+	63	verb	list	4	3	nomatch	peut	-1	1	y	0.58836
606.0352	0.2	paul	63	verb	list	4	4	nomatch	peut	-1	1	y	0.58836
606.2351	0.0	+	63	verb	list	4	5	nomatch	peut	-1	1	y	0.58836
606.6349	0.2	mon	63	verb	list	4	6	nomatch	peut	-1	1	y	0.58836
606.8348	0.0	+	63	verb	list	4	7	nomatch	peut	-1	1	y	0.58836
607.2346	0.2	jongler	63	verb	list	4	8	nomatch	peut	-1	1	y	0.58836
607.4346	0.0	+	63	verb	list	4	9	nomatch	peut	-1	1	y	0.58836
607.8344	0.2	blanc	63	verb	list	4	10	nomatch	peut	-1	1	y	0.58836
608.0343	0.0	+	63	verb	list	4	11	nomatch	peut	-1	1	y	0.58836
608.4341	0.0	+	63	verb	list	4	12	nomatch	peut	-1	1	y	0.58836
610.4499	0.0	PEUT	63	verb	list	4	13	nomatch	peut	-1	1	y	0.58836
611.0996	0.0	+	63	verb	list	4	14	nomatch	peut	-1	1	y	0.58836
611.0382	0.0	[response]	63	verb	list	4	15	nomatch	peut	-1	1	y	0.58836
612.8488	0.0	+	64	verb	phrase	4	1	nomatch	tôt	-1	1	y	0.60924
613.3985	0.2	rxgdjvk	64	verb	phrase	4	2	nomatch	tôt	-1	1	y	0.60924
613.5984	0.0	+	64	verb	phrase	4	3	nomatch	tôt	-1	1	y	0.60924
613.9982	0.2	adam	64	verb	phrase	4	4	nomatch	tôt	-1	1	y	0.60924
614.1982	0.0	+	64	verb	phrase	4	5	nomatch	tôt	-1	1	y	0.60924
614.598	0.2	doit	64	verb	phrase	4	6	nomatch	tôt	-1	1	y	0.60924
614.7979	0.0	+	64	verb	phrase	4	7	nomatch	tôt	-1	1	y	0.60924
615.1976999999999	0.2	galoper	64	verb	phrase	4	8	nomatch	tôt	-1	1	y	0.60924
615.3976	0.0	+	64	verb	phrase	4	9	nomatch	tôt	-1	1	y	0.60924
615.7974	0.2	tard	64	verb	phrase	4	10	nomatch	tôt	-1	1	y	0.60924
615.9973	0.0	+	64	verb	phrase	4	11	nomatch	tôt	-1	1	y	0.60924
616.3972	0.0	+	64	verb	phrase	4	12	nomatch	tôt	-1	1	y	0.60924
618.3963	0.0	TÔT	64	verb	phrase	4	13	nomatch	tôt	-1	1	y	0.60924
619.0626	0.0	+	64	verb	phrase	4	14	nomatch	tôt	-1	1	y	0.60924
619.0055000000001	0.0	[response]	64	verb	phrase	4	15	nomatch	tôt	-1	1	y	0.60924
620.7952	0.0	+	65	verb	list	1	1	nomatch	panier	-1	1	y	0.6206800000000001
621.3448999999999	0.2	zxwplr	65	verb	list	1	2	nomatch	panier	-1	1	y	0.6206800000000001
621.5448	0.0	+	65	verb	list	1	3	nomatch	panier	-1	1	y	0.6206800000000001
621.9446	0.2	lzd	65	verb	list	1	4	nomatch	panier	-1	1	y	0.6206800000000001
622.1446	0.0	+	65	verb	list	1	5	nomatch	panier	-1	1	y	0.6206800000000001
622.5444	0.2	hljn	65	verb	list	1	6	nomatch	panier	-1	1	y	0.6206800000000001
622.7443	0.0	+	65	verb	list	1	7	nomatch	panier	-1	1	y	0.6206800000000001
623.1441	0.2	pltczgd	65	verb	list	1	8	nomatch	panier	-1	1	y	0.6206800000000001
623.344	0.0	+	65	verb	list	1	9	nomatch	panier	-1	1	y	0.6206800000000001
623.7438	0.2	petit	65	verb	list	1	10	nomatch	panier	-1	1	y	0.6206800000000001
623.9437	0.0	+	65	verb	list	1	11	nomatch	panier	-1	1	y	0.6206800000000001
624.3436	0.0	+	65	verb	list	1	12	nomatch	panier	-1	1	y	0.6206800000000001
626.3427	0.0	PANIER	65	verb	list	1	13	nomatch	panier	-1	1	y	0.6206800000000001
627.0257	0.0	+	65	verb	list	1	14	nomatch	panier	-1	1	y	0.6206800000000001
626.9633	0.0	[response]	65	verb	list	1	15	nomatch	panier	-1	1	y	0.6206800000000001
628.7416	0.0	+	66	noun	list	3	1	nomatch	sablier	-1	1	y	1.0833
629.2913	0.2	dlcvr	66	noun	list	3	2	nomatch	sablier	-1	1	y	1.0833
629.4912	0.0	+	66	noun	list	3	3	nomatch	sablier	-1	1	y	1.0833
629.891	0.2	gbpr	66	noun	list	3	4	nomatch	sablier	-1	1	y	1.0833
630.091	0.0	+	66	noun	list	3	5	nomatch	sablier	-1	1	y	1.0833
630.4908	0.2	leur	66	noun	list	3	6	nomatch	sablier	-1	1	y	1.0833
630.6907	0.0	+	66	noun	list	3	7	nomatch	sablier	-1	1	y	1.0833
631.0905	0.2	trop	66	noun	list	3	8	nomatch	sablier	-1	1	y	1.0833
631.2904	0.0	+	66	noun	list	3	9	nomatch	sablier	-1	1	y	1.0833
631.6902	0.2	rocher	66	noun	list	3	10	nomatch	sablier	-1	1	y	1.0833
631.8901	0.0	+	66	noun	list	3	11	nomatch	sablier	-1	1	y	1.0833
632.2907	0.0	+	66	noun	list	3	12	nomatch	sablier	-1	1	y	1.0833
634.2897	0.0	SABLIER	66	noun	list	3	13	nomatch	sablier	-1	1	y	1.0833
635.4385	0.0	+	66	noun	list	3	14	nomatch	sablier	-1	1	y	1.0833
635.373	0.0	[response]	66	noun	list	3	15	nomatch	sablier	-1	1	y	1.0833
636.688	0.0	+	67	verb	list	3	1	nomatch	peut	-1	1	y	0.64857
637.2377	0.2	wgjknfm	67	verb	list	3	2	nomatch	peut	-1	1	y	0.64857
637.4376	0.0	+	67	verb	list	3	3	nomatch	peut	-1	1	y	0.64857
637.8374	0.2	ntmd	67	verb	list	3	4	nomatch	peut	-1	1	y	0.64857
638.0373	0.0	+	67	verb	list	3	5	nomatch	peut	-1	1	y	0.64857
638.4372	0.2	va	67	verb	list	3	6	nomatch	peut	-1	1	y	0.64857
638.6371	0.0	+	67	verb	list	3	7	nomatch	peut	-1	1	y	0.64857
639.0369	0.2	grand	67	verb	list	3	8	nomatch	peut	-1	1	y	0.64857
639.2368	0.0	+	67	verb	list	3	9	nomatch	peut	-1	1	y	0.64857
639.6366	0.2	danser	67	verb	list	3	10	nomatch	peut	-1	1	y	0.64857
639.8365	0.0	+	67	verb	list	3	11	nomatch	peut	-1	1	y	0.64857
640.2363	0.0	+	67	verb	list	3	12	nomatch	peut	-1	1	y	0.64857
642.2354	0.0	PEUT	67	verb	list	3	13	nomatch	peut	-1	1	y	0.64857
642.9351	0.0	+	67	verb	list	3	14	nomatch	peut	-1	1	y	0.64857
642.884	0.0	[response]	67	verb	list	3	15	nomatch	peut	-1	1	y	0.64857
644.6344	0.0	+	68	verb	list	1	1	match	vert	5	1	p	0.73845
645.1841	0.2	rgsctzl	68	verb	list	1	2	match	vert	5	1	p	0.73845
645.384	0.0	+	68	verb	list	1	3	match	vert	5	1	p	0.73845
645.7838	0.2	mthp	68	verb	list	1	4	match	vert	5	1	p	0.73845
645.9838	0.0	+	68	verb	list	1	5	match	vert	5	1	p	0.73845
646.3836	0.2	gbl	68	verb	list	1	6	match	vert	5	1	p	0.73845
646.6001	0.0	+	68	verb	list	1	7	match	vert	5	1	p	0.73845
647.0	0.2	pwmcl	68	verb	list	1	8	match	vert	5	1	p	0.73845
647.1999	0.0	+	68	verb	list	1	9	match	vert	5	1	p	0.73845
647.5997	0.2	vert	68	verb	list	1	10	match	vert	5	1	p	0.73845
647.7995999999999	0.0	+	68	verb	list	1	11	match	vert	5	1	p	0.73845
648.1994	0.0	+	68	verb	list	1	12	match	vert	5	1	p	0.73845
650.1985	0.0	VERT	68	verb	list	1	13	match	vert	5	1	p	0.73845
650.9981	0.0	+	68	verb	list	1	14	match	vert	5	1	p	0.73845
650.937	0.0	[response]	68	verb	list	1	15	match	vert	5	1	p	0.73845
652.5974	0.0	+	69	verb	phrase	3	1	nomatch	grand	-1	1	y	1.1164
653.1472	0.2	zqdg	69	verb	phrase	3	2	nomatch	grand	-1	1	y	1.1164
653.3471	0.0	+	69	verb	phrase	3	3	nomatch	grand	-1	1	y	1.1164
653.7469	0.2	gbpr	69	verb	phrase	3	4	nomatch	grand	-1	1	y	1.1164
653.9467999999999	0.0	+	69	verb	phrase	3	5	nomatch	grand	-1	1	y	1.1164
654.3466	0.2	va	69	verb	phrase	3	6	nomatch	grand	-1	1	y	1.1164
654.5465	0.0	+	69	verb	phrase	3	7	nomatch	grand	-1	1	y	1.1164
654.9464	0.2	trop	69	verb	phrase	3	8	nomatch	grand	-1	1	y	1.1164
655.1463	0.0	+	69	verb	phrase	3	9	nomatch	grand	-1	1	y	1.1164
655.5461	0.2	jongler	69	verb	phrase	3	10	nomatch	grand	-1	1	y	1.1164
655.746	0.0	+	69	verb	phrase	3	11	nomatch	grand	-1	1	y	1.1164
656.1458	0.0	+	69	verb	phrase	3	12	nomatch	grand	-1	1	y	1.1164
658.1449	0.0	GRAND	69	verb	phrase	3	13	nomatch	grand	-1	1	y	1.1164
659.3277	0.0	+	69	verb	phrase	3	14	nomatch	grand	-1	1	y	1.1164
659.2613	0.0	[response]	69	verb	phrase	3	15	nomatch	grand	-1	1	y	1.1164
660.5438	0.0	+	70	verb	list	1	1	match	galoper	5	1	p	0.44123
661.0936	0.2	rvd	70	verb	list	1	2	match	galoper	5	1	p	0.44123
661.2935	0.0	+	70	verb	list	1	3	match	galoper	5	1	p	0.44123
661.6933	0.2	rdft	70	verb	list	1	4	match	galoper	5	1	p	0.44123
661.8932	0.0	+	70	verb	list	1	5	match	galoper	5	1	p	0.44123
662.2931	0.2	bqm	70	verb	list	1	6	match	galoper	5	1	p	0.44123
662.4929	0.0	+	70	verb	list	1	7	match	galoper	5	1	p	0.44123
662.8928	0.2	cfvlb	70	verb	list	1	8	match	galoper	5	1	p	0.44123
663.0927	0.0	+	70	verb	list	1	9	match	galoper	5	1	p	0.44123
663.4925	0.2	galoper	70	verb	list	1	10	match	galoper	5	1	p	0.44123
663.6924	0.0	+	70	verb	list	1	11	match	galoper	5	1	p	0.44123
664.0922	0.0	+	70	verb	list	1	12	match	galoper	5	1	p	0.44123
666.0913	0.0	GALOPER	70	verb	list	1	13	match	galoper	5	1	p	0.44123
666.5911	0.0	+	70	verb	list	1	14	match	galoper	5	1	p	0.44123
666.5325	0.0	[response]	70	verb	list	1	15	match	galoper	5	1	p	0.44123
668.4902	0.0	+	71	verb	phrase	3	1	nomatch	va	-1	1	y	1.4492
669.04	0.2	qwj	71	verb	phrase	3	2	nomatch	va	-1	1	y	1.4492
669.2399	0.0	+	71	verb	phrase	3	3	nomatch	va	-1	1	y	1.4492
669.6397	0.2	mrn	71	verb	phrase	3	4	nomatch	va	-1	1	y	1.4492
669.8396	0.0	+	71	verb	phrase	3	5	nomatch	va	-1	1	y	1.4492
670.2394	0.2	doit	71	verb	phrase	3	6	nomatch	va	-1	1	y	1.4492
670.4393	0.0	+	71	verb	phrase	3	7	nomatch	va	-1	1	y	1.4492
670.8391	0.2	beaucoup	71	verb	phrase	3	8	nomatch	va	-1	1	y	1.4492
671.0391	0.0	+	71	verb	phrase	3	9	nomatch	va	-1	1	y	1.4492
671.4389	0.2	parader	71	verb	phrase	3	10	nomatch	va	-1	1	y	1.4492
671.6388	0.0	+	71	verb	phrase	3	11	nomatch	va	-1	1	y	1.4492
672.0386	0.0	+	71	verb	phrase	3	12	nomatch	va	-1	1	y	1.4492
674.0377	0.0	VA	71	verb	phrase	3	13	nomatch	va	-1	1	y	1.4492
675.5537	0.0	+	71	verb	phrase	3	14	nomatch	va	-1	1	y	1.4492
675.4869	0.0	[response]	71	verb	phrase	3	15	nomatch	va	-1	1	y	1.4492
676.4366	0.0	+	72	verb	list	4	1	nomatch	noir	-1	1	y	0.58049
676.9864	0.2	rswqhp	72	verb	list	4	2	nomatch	noir	-1	1	y	0.58049
677.1863	0.0	+	72	verb	list	4	3	nomatch	noir	-1	1	y	0.58049
677.5861	0.2	yves	72	verb	list	4	4	nomatch	noir	-1	1	y	0.58049
677.786	0.0	+	72	verb	list	4	5	nomatch	noir	-1	1	y	0.58049
678.1858	0.2	mon	72	verb	list	4	6	nomatch	noir	-1	1	y	0.58049
678.3857	0.0	+	72	verb	list	4	7	nomatch	noir	-1	1	y	0.58049
678.7855	0.2	chasser	72	verb	list	4	8	nomatch	noir	-1	1	y	0.58049
678.9855	0.0	+	72	verb	list	4	9	nomatch	noir	-1	1	y	0.58049
679.3853	0.2	vert	72	verb	list	4	10	nomatch	noir	-1	1	y	0.58049
679.5852	0.0	+	72	verb	list	4	11	nomatch	noir	-1	1	y	0.58049
679.985	0.0	+	72	verb	list	4	12	nomatch	noir	-1	1	y	0.58049
681.9841	0.0	NOIR	72	verb	list	4	13	nomatch	noir	-1	1	y	0.58049
682.6171	0.0	+	72	verb	list	4	14	nomatch	noir	-1	1	y	0.58049
682.5646	0.0	[response]	72	verb	list	4	15	nomatch	noir	-1	1	y	0.58049
684.3996999999999	0.0	+	73	verb	phrase	3	1	match	patiner	5	1	p	0.93196
684.9494	0.2	zwhgf	73	verb	phrase	3	2	match	patiner	5	1	p	0.93196
685.1493	0.0	+	73	verb	phrase	3	3	match	patiner	5	1	p	0.93196
685.5491	0.2	cdsf	73	verb	phrase	3	4	match	patiner	5	1	p	0.93196
685.7491	0.0	+	73	verb	phrase	3	5	match	patiner	5	1	p	0.93196
686.1489	0.2	peut	73	verb	phrase	3	6	match	patiner	5	1	p	0.93196
686.3488	0.0	+	73	verb	phrase	3	7	match	patiner	5	1	p	0.93196
686.7486	0.2	moins	73	verb	phrase	3	8	match	patiner	5	1	p	0.93196
686.9485	0.0	+	73	verb	phrase	3	9	match	patiner	5	1	p	0.93196
687.3483	0.2	patiner	73	verb	phrase	3	10	match	patiner	5	1	p	0.93196
687.5483	0.0	+	73	verb	phrase	3	11	match	patiner	5	1	p	0.93196
687.9481	0.0	+	73	verb	phrase	3	12	match	patiner	5	1	p	0.93196
689.9472	0.0	PATINER	73	verb	phrase	3	13	match	patiner	5	1	p	0.93196
690.9467	0.0	+	73	verb	phrase	3	14	match	patiner	5	1	p	0.93196
690.8791	0.0	[response]	73	verb	phrase	3	15	match	patiner	5	1	p	0.93196
700.3424	0.0	+	74	noun	list	3	1	match	tablier	5	1	p	0.62532
700.8922	0.2	vndbgk	74	noun	list	3	2	match	tablier	5	1	p	0.62532
701.0921	0.0	+	74	noun	list	3	3	match	tablier	5	1	p	0.62532
701.4919	0.2	mthp	74	noun	list	3	4	match	tablier	5	1	p	0.62532
701.6918	0.0	+	74	noun	list	3	5	match	tablier	5	1	p	0.62532
702.0917	0.2	leur	74	noun	list	3	6	match	tablier	5	1	p	0.62532
702.2916	0.0	+	74	noun	list	3	7	match	tablier	5	1	p	0.62532
702.6914	0.2	plus	74	noun	list	3	8	match	tablier	5	1	p	0.62532
702.8913	0.0	+	74	noun	list	3	9	match	tablier	5	1	p	0.62532
703.2911	0.2	tablier	74	noun	list	3	10	match	tablier	5	1	p	0.62532
703.491	0.0	+	74	noun	list	3	11	match	tablier	5	1	p	0.62532
703.8908	0.0	+	74	noun	list	3	12	match	tablier	5	1	p	0.62532
705.8899	0.0	TABLIER	74	noun	list	3	13	match	tablier	5	1	p	0.62532
706.573	0.0	+	74	noun	list	3	14	match	tablier	5	1	p	0.62532
706.5153	0.0	[response]	74	noun	list	3	15	match	tablier	5	1	p	0.62532
708.2896	0.0	+	75	verb	phrase	3	1	match	va	3	1	p	0.51011
708.8386	0.2	jplh	75	verb	phrase	3	2	match	va	3	1	p	0.51011
709.0385	0.0	+	75	verb	phrase	3	3	match	va	3	1	p	0.51011
709.4383	0.2	cdsf	75	verb	phrase	3	4	match	va	3	1	p	0.51011
709.6382	0.0	+	75	verb	phrase	3	5	match	va	3	1	p	0.51011
710.0381	0.2	va	75	verb	phrase	3	6	match	va	3	1	p	0.51011
710.2379999999999	0.0	+	75	verb	phrase	3	7	match	va	3	1	p	0.51011
710.6378	0.2	trop	75	verb	phrase	3	8	match	va	3	1	p	0.51011
710.8377	0.0	+	75	verb	phrase	3	9	match	va	3	1	p	0.51011
711.2375	0.2	danser	75	verb	phrase	3	10	match	va	3	1	p	0.51011
711.4374	0.0	+	75	verb	phrase	3	11	match	va	3	1	p	0.51011
711.8371999999999	0.0	+	75	verb	phrase	3	12	match	va	3	1	p	0.51011
713.8363	0.0	VA	75	verb	phrase	3	13	match	va	3	1	p	0.51011
714.4027	0.0	+	75	verb	phrase	3	14	match	va	3	1	p	0.51011
714.3465000000001	0.0	[response]	75	verb	phrase	3	15	match	va	3	1	p	0.51011
716.2352999999999	0.0	+	76	verb	list	3	1	nomatch	blanc	-1	1	y	0.72877
716.785	0.2	lmxdtw	76	verb	list	3	2	nomatch	blanc	-1	1	y	0.72877
716.9854	0.0	+	76	verb	list	3	3	nomatch	blanc	-1	1	y	0.72877
717.3847	0.2	gbpr	76	verb	list	3	4	nomatch	blanc	-1	1	y	0.72877
717.5846	0.0	+	76	verb	list	3	5	nomatch	blanc	-1	1	y	0.72877
717.9845	0.2	son	76	verb	list	3	6	nomatch	blanc	-1	1	y	0.72877
718.1844	0.0	+	76	verb	list	3	7	nomatch	blanc	-1	1	y	0.72877
718.5842	0.2	nager	76	verb	list	3	8	nomatch	blanc	-1	1	y	0.72877
718.7841	0.0	+	76	verb	list	3	9	nomatch	blanc	-1	1	y	0.72877
719.1839	0.2	vert	76	verb	list	3	10	nomatch	blanc	-1	1	y	0.72877
719.3838	0.0	+	76	verb	list	3	11	nomatch	blanc	-1	1	y	0.72877
719.7837	0.0	+	76	verb	list	3	12	nomatch	blanc	-1	1	y	0.72877
721.7994	0.0	BLANC	76	verb	list	3	13	nomatch	blanc	-1	1	y	0.72877
722.5824	0.0	+	76	verb	list	3	14	nomatch	blanc	-1	1	y	0.72877
722.5282	0.0	[response]	76	verb	list	3	15	nomatch	blanc	-1	1	y	0.72877
724.1983	0.0	+	77	verb	list	4	1	nomatch	bleu	-1	1	y	0.61215
724.7481	0.2	fws	77	verb	list	4	2	nomatch	bleu	-1	1	y	0.61215
724.948	0.0	+	77	verb	list	4	3	nomatch	bleu	-1	1	y	0.61215
725.3478	0.2	sans	77	verb	list	4	4	nomatch	bleu	-1	1	y	0.61215
725.5477	0.0	+	77	verb	list	4	5	nomatch	bleu	-1	1	y	0.61215
725.9475	0.2	peut	77	verb	list	4	6	nomatch	bleu	-1	1	y	0.61215
726.1474	0.0	+	77	verb	list	4	7	nomatch	bleu	-1	1	y	0.61215
726.5472	0.2	petit	77	verb	list	4	8	nomatch	bleu	-1	1	y	0.61215
726.7471	0.0	+	77	verb	list	4	9	nomatch	bleu	-1	1	y	0.61215
727.147	0.2	danser	77	verb	list	4	10	nomatch	bleu	-1	1	y	0.61215
727.3469	0.0	+	77	verb	list	4	11	nomatch	bleu	-1	1	y	0.61215
727.7467	0.0	+	77	verb	list	4	12	nomatch	bleu	-1	1	y	0.61215
729.7458	0.0	BLEU	77	verb	list	4	13	nomatch	bleu	-1	1	y	0.61215
730.4122	0.0	+	77	verb	list	4	14	nomatch	bleu	-1	1	y	0.61215
730.3579	0.0	[response]	77	verb	list	4	15	nomatch	bleu	-1	1	y	0.61215
732.1447	0.0	+	78	verb	list	2	1	nomatch	vert	-1	1	y	0.76851
732.6945	0.2	cmlzn	78	verb	list	2	2	nomatch	vert	-1	1	y	0.76851
732.8944	0.0	+	78	verb	list	2	3	nomatch	vert	-1	1	y	0.76851
733.2942	0.2	wlmq	78	verb	list	2	4	nomatch	vert	-1	1	y	0.76851
733.4941	0.0	+	78	verb	list	2	5	nomatch	vert	-1	1	y	0.76851
733.8939	0.2	bqm	78	verb	list	2	6	nomatch	vert	-1	1	y	0.76851
734.0938	0.0	+	78	verb	list	2	7	nomatch	vert	-1	1	y	0.76851
734.4936	0.2	jongler	78	verb	list	2	8	nomatch	vert	-1	1	y	0.76851
734.6935	0.0	+	78	verb	list	2	9	nomatch	vert	-1	1	y	0.76851
735.0934	0.2	rouge	78	verb	list	2	10	nomatch	vert	-1	1	y	0.76851
735.2933	0.0	+	78	verb	list	2	11	nomatch	vert	-1	1	y	0.76851
735.6931	0.0	+	78	verb	list	2	12	nomatch	vert	-1	1	y	0.76851
737.6922	0.0	VERT	78	verb	list	2	13	nomatch	vert	-1	1	y	0.76851
738.5252	0.0	+	78	verb	list	2	14	nomatch	vert	-1	1	y	0.76851
738.4607	0.0	[response]	78	verb	list	2	15	nomatch	vert	-1	1	y	0.76851
748.0875	0.0	+	79	verb	list	1	1	nomatch	parader	-1	1	y	0.60152
748.6372	0.2	fwgmtnv	79	verb	list	1	2	nomatch	parader	-1	1	y	0.60152
748.8371	0.0	+	79	verb	list	1	3	nomatch	parader	-1	1	y	0.60152
749.237	0.2	ntmd	79	verb	list	1	4	nomatch	parader	-1	1	y	0.60152
749.4369	0.0	+	79	verb	list	1	5	nomatch	parader	-1	1	y	0.60152
749.8367	0.2	hljn	79	verb	list	1	6	nomatch	parader	-1	1	y	0.60152
750.0366	0.0	+	79	verb	list	1	7	nomatch	parader	-1	1	y	0.60152
750.4364	0.2	dcxhnmz	79	verb	list	1	8	nomatch	parader	-1	1	y	0.60152
750.6363	0.0	+	79	verb	list	1	9	nomatch	parader	-1	1	y	0.60152
751.0361	0.2	rouler	79	verb	list	1	10	nomatch	parader	-1	1	y	0.60152
751.2361	0.0	+	79	verb	list	1	11	nomatch	parader	-1	1	y	0.60152
751.6359	0.0	+	79	verb	list	1	12	nomatch	parader	-1	1	y	0.60152
753.635	0.0	PARADER	79	verb	list	1	13	nomatch	parader	-1	1	y	0.60152
754.3013	0.0	+	79	verb	list	1	14	nomatch	parader	-1	1	y	0.60152
754.2365	0.0	[response]	79	verb	list	1	15	nomatch	parader	-1	1	y	0.60152
756.0339	0.0	+	80	verb	list	1	1	match	blanc	5	1	p	0.37946
756.5837	0.2	xjwsng	80	verb	list	1	2	match	blanc	5	1	p	0.37946
756.7836	0.0	+	80	verb	list	1	3	match	blanc	5	1	p	0.37946
757.2	0.2	rdft	80	verb	list	1	4	match	blanc	5	1	p	0.37946
757.3999	0.0	+	80	verb	list	1	5	match	blanc	5	1	p	0.37946
757.7997	0.2	bqm	80	verb	list	1	6	match	blanc	5	1	p	0.37946
757.9997	0.0	+	80	verb	list	1	7	match	blanc	5	1	p	0.37946
758.3995	0.2	pltczgd	80	verb	list	1	8	match	blanc	5	1	p	0.37946
758.5994	0.0	+	80	verb	list	1	9	match	blanc	5	1	p	0.37946
758.9992	0.2	blanc	80	verb	list	1	10	match	blanc	5	1	p	0.37946
759.1991	0.0	+	80	verb	list	1	11	match	blanc	5	1	p	0.37946
759.5989	0.0	+	80	verb	list	1	12	match	blanc	5	1	p	0.37946
761.598	0.0	BLANC	80	verb	list	1	13	match	blanc	5	1	p	0.37946
762.0312	0.0	+	80	verb	list	1	14	match	blanc	5	1	p	0.37946
763.9969	0.0	+	80	verb	list	1	15	match	blanc	5	1	p	0.37946
765.0132	0.0	+	80	verb	list	1	16	match	blanc	5	1	p	0.37946
765.1131	0.0	+	80	verb	list	1	17	match	blanc	5	1	p	0.37946
766.5125	0.0	+	80	verb	list	1	18	match	blanc	5	1	p	0.37946
766.6124	0.0	+	80	verb	list	1	19	match	blanc	5	1	p	0.37946
767.9951	0.0	+	80	verb	list	1	20	match	blanc	5	1	p	0.37946
768.0951	0.0	+	80	verb	list	1	21	match	blanc	5	1	p	0.37946
769.5110999999999	0.0	+	80	verb	list	1	22	match	blanc	5	1	p	0.37946
769.6111	0.0	+	80	verb	list	1	23	match	blanc	5	1	p	0.37946
771.0104	0.0	+	80	verb	list	1	24	match	blanc	5	1	p	0.37946
771.1104	0.0	+	80	verb	list	1	25	match	blanc	5	1	p	0.37946
772.5098	0.0	+	80	verb	list	1	26	match	blanc	5	1	p	0.37946
772.6097	0.0	+	80	verb	list	1	27	match	blanc	5	1	p	0.37946
774.0091	0.0	+	80	verb	list	1	28	match	blanc	5	1	p	0.37946
774.109	0.0	+	80	verb	list	1	29	match	blanc	5	1	p	0.37946
775.5083999999999	0.0	+	80	verb	list	1	30	match	blanc	5	1	p	0.37946
775.6083	0.0	+	80	verb	list	1	31	match	blanc	5	1	p	0.37946
777.0077	0.0	+	80	verb	list	1	32	match	blanc	5	1	p	0.37946
777.1077	0.0	+	80	verb	list	1	33	match	blanc	5	1	p	0.37946
778.507	0.0	+	80	verb	list	1	34	match	blanc	5	1	p	0.37946
778.607	0.0	+	80	verb	list	1	35	match	blanc	5	1	p	0.37946
786.6533	0.0	+	80	verb	list	1	36	match	blanc	5	1	p	0.37946
761.9775	0.0	[response]	80	verb	list	1	37	match	blanc	5	1	p	0.37946
