onset	duration	stim	trial_number	trial_type	trial_structure	trial_length	sequential_position	probe_type	probe	probe_position	response_correct	response_key	response_time
0.06029999999999802	0.0	+	1	noun	phrase	4	1	nomatch	beaucoup	-1	1	y	0.55609
0.5433999999999983	0.2	nxtl	1	noun	phrase	4	2	nomatch	beaucoup	-1	1	y	0.55609
0.7432999999999979	0.0	+	1	noun	phrase	4	3	nomatch	beaucoup	-1	1	y	0.55609
1.143099999999997	0.2	pour	1	noun	phrase	4	4	nomatch	beaucoup	-1	1	y	0.55609
1.3429999999999964	0.0	+	1	noun	phrase	4	5	nomatch	beaucoup	-1	1	y	0.55609
1.7428999999999988	0.2	leur	1	noun	phrase	4	6	nomatch	beaucoup	-1	1	y	0.55609
1.9427999999999983	0.0	+	1	noun	phrase	4	7	nomatch	beaucoup	-1	1	y	0.55609
2.3425999999999974	0.2	petit	1	noun	phrase	4	8	nomatch	beaucoup	-1	1	y	0.55609
2.542499999999997	0.0	+	1	noun	phrase	4	9	nomatch	beaucoup	-1	1	y	0.55609
2.942299999999996	0.2	cendrier	1	noun	phrase	4	10	nomatch	beaucoup	-1	1	y	0.55609
3.1422000000000025	0.0	+	1	noun	phrase	4	11	nomatch	beaucoup	-1	1	y	0.55609
3.542099999999998	0.0	+	1	noun	phrase	4	12	nomatch	beaucoup	-1	1	y	0.55609
5.5411	0.0	BEAUCOUP	1	noun	phrase	4	13	nomatch	beaucoup	-1	1	y	0.55609
6.157499999999999	0.0	+	1	noun	phrase	4	14	nomatch	beaucoup	-1	1	y	0.55609
6.097200000000001	0.0	[response]	1	noun	phrase	4	15	nomatch	beaucoup	-1	1	y	0.55609
7.939999999999998	0.0	+	2	noun	phrase	4	1	match	vert	5	1	p	0.45402
8.489800000000002	0.2	pqnkb	2	noun	phrase	4	2	match	vert	5	1	p	0.45402
8.689700000000002	0.0	+	2	noun	phrase	4	3	match	vert	5	1	p	0.45402
9.089500000000001	0.2	avec	2	noun	phrase	4	4	match	vert	5	1	p	0.45402
9.2894	0.0	+	2	noun	phrase	4	5	match	vert	5	1	p	0.45402
9.6892	0.2	son	2	noun	phrase	4	6	match	vert	5	1	p	0.45402
9.889200000000002	0.0	+	2	noun	phrase	4	7	match	vert	5	1	p	0.45402
10.289000000000001	0.2	boîtier	2	noun	phrase	4	8	match	vert	5	1	p	0.45402
10.488900000000001	0.0	+	2	noun	phrase	4	9	match	vert	5	1	p	0.45402
10.8887	0.2	vert	2	noun	phrase	4	10	match	vert	5	1	p	0.45402
11.0886	0.0	+	2	noun	phrase	4	11	match	vert	5	1	p	0.45402
11.488399999999999	0.0	+	2	noun	phrase	4	12	match	vert	5	1	p	0.45402
13.487499999999997	0.0	VERT	2	noun	phrase	4	13	match	vert	5	1	p	0.45402
14.003999999999998	0.0	+	2	noun	phrase	4	14	match	vert	5	1	p	0.45402
13.941499999999998	0.0	[response]	2	noun	phrase	4	15	match	vert	5	1	p	0.45402
15.886499999999998	0.0	+	3	verb	list	3	1	match	doit	3	1	p	0.37129
16.4362	0.2	csv	3	verb	list	3	2	match	doit	3	1	p	0.37129
16.6361	0.0	+	3	verb	list	3	3	match	doit	3	1	p	0.37129
17.035899999999998	0.2	lzd	3	verb	list	3	4	match	doit	3	1	p	0.37129
17.235799999999998	0.0	+	3	verb	list	3	5	match	doit	3	1	p	0.37129
17.6357	0.2	doit	3	verb	list	3	6	match	doit	3	1	p	0.37129
17.8356	0.0	+	3	verb	list	3	7	match	doit	3	1	p	0.37129
18.2354	0.2	petit	3	verb	list	3	8	match	doit	3	1	p	0.37129
18.435299999999998	0.0	+	3	verb	list	3	9	match	doit	3	1	p	0.37129
18.835099999999997	0.2	galoper	3	verb	list	3	10	match	doit	3	1	p	0.37129
19.034999999999997	0.0	+	3	verb	list	3	11	match	doit	3	1	p	0.37129
19.434800000000003	0.0	+	3	verb	list	3	12	match	doit	3	1	p	0.37129
21.4339	0.0	DOIT	3	verb	list	3	13	match	doit	3	1	p	0.37129
21.8671	0.0	+	3	verb	list	3	14	match	doit	3	1	p	0.37129
21.805200000000006	0.0	[response]	3	verb	list	3	15	match	doit	3	1	p	0.37129
31.845899999999993	0.0	+	4	noun	phrase	3	1	nomatch	son	-1	1	y	0.61725
32.395599999999995	0.2	gbdpfcz	4	noun	phrase	3	2	nomatch	son	-1	1	y	0.61725
32.595499999999994	0.0	+	4	noun	phrase	3	3	nomatch	son	-1	1	y	0.61725
32.9954	0.2	ntmd	4	noun	phrase	3	4	nomatch	son	-1	1	y	0.61725
33.195299999999996	0.0	+	4	noun	phrase	3	5	nomatch	son	-1	1	y	0.61725
33.595099999999995	0.2	leur	4	noun	phrase	3	6	nomatch	son	-1	1	y	0.61725
33.794999999999995	0.0	+	4	noun	phrase	3	7	nomatch	son	-1	1	y	0.61725
34.194799999999994	0.2	rocher	4	noun	phrase	3	8	nomatch	son	-1	1	y	0.61725
34.39469999999999	0.0	+	4	noun	phrase	3	9	nomatch	son	-1	1	y	0.61725
34.79449999999999	0.2	rouge	4	noun	phrase	3	10	nomatch	son	-1	1	y	0.61725
34.994499999999995	0.0	+	4	noun	phrase	3	11	nomatch	son	-1	1	y	0.61725
35.394299999999994	0.0	+	4	noun	phrase	3	12	nomatch	son	-1	1	y	0.61725
37.39339999999999	0.0	SON	4	noun	phrase	3	13	nomatch	son	-1	1	y	0.61725
38.0764	0.0	+	4	noun	phrase	3	14	nomatch	son	-1	1	y	0.61725
38.010600000000004	0.0	[response]	4	noun	phrase	3	15	nomatch	son	-1	1	y	0.61725
39.792300000000004	0.0	+	5	noun	phrase	1	1	nomatch	sablier	-1	1	y	0.46886
40.342000000000006	0.2	nqpzw	5	noun	phrase	1	2	nomatch	sablier	-1	1	y	0.46886
40.541900000000005	0.0	+	5	noun	phrase	1	3	nomatch	sablier	-1	1	y	0.46886
40.94179999999999	0.2	vzck	5	noun	phrase	1	4	nomatch	sablier	-1	1	y	0.46886
41.14169999999999	0.0	+	5	noun	phrase	1	5	nomatch	sablier	-1	1	y	0.46886
41.54149999999999	0.2	bqm	5	noun	phrase	1	6	nomatch	sablier	-1	1	y	0.46886
41.741400000000006	0.0	+	5	noun	phrase	1	7	nomatch	sablier	-1	1	y	0.46886
42.141200000000005	0.2	phzd	5	noun	phrase	1	8	nomatch	sablier	-1	1	y	0.46886
42.341100000000004	0.0	+	5	noun	phrase	1	9	nomatch	sablier	-1	1	y	0.46886
42.7409	0.2	cendrier	5	noun	phrase	1	10	nomatch	sablier	-1	1	y	0.46886
42.9408	0.0	+	5	noun	phrase	1	11	nomatch	sablier	-1	1	y	0.46886
43.340700000000005	0.0	+	5	noun	phrase	1	12	nomatch	sablier	-1	1	y	0.46886
45.339800000000004	0.0	SABLIER	5	noun	phrase	1	13	nomatch	sablier	-1	1	y	0.46886
45.872800000000005	0.0	+	5	noun	phrase	1	14	nomatch	sablier	-1	1	y	0.46886
45.808600000000006	0.0	[response]	5	noun	phrase	1	15	nomatch	sablier	-1	1	y	0.46886
47.7387	0.0	+	6	noun	phrase	4	1	nomatch	blanc	-1	1	y	0.61225
48.2884	0.2	vjr	6	noun	phrase	4	2	nomatch	blanc	-1	1	y	0.61225
48.4883	0.0	+	6	noun	phrase	4	3	nomatch	blanc	-1	1	y	0.61225
48.888200000000005	0.2	pour	6	noun	phrase	4	4	nomatch	blanc	-1	1	y	0.61225
49.088100000000004	0.0	+	6	noun	phrase	4	5	nomatch	blanc	-1	1	y	0.61225
49.4879	0.2	mon	6	noun	phrase	4	6	nomatch	blanc	-1	1	y	0.61225
49.6878	0.0	+	6	noun	phrase	4	7	nomatch	blanc	-1	1	y	0.61225
50.0876	0.2	rocher	6	noun	phrase	4	8	nomatch	blanc	-1	1	y	0.61225
50.2875	0.0	+	6	noun	phrase	4	9	nomatch	blanc	-1	1	y	0.61225
50.6873	0.2	rouge	6	noun	phrase	4	10	nomatch	blanc	-1	1	y	0.61225
50.8873	0.0	+	6	noun	phrase	4	11	nomatch	blanc	-1	1	y	0.61225
51.2871	0.0	+	6	noun	phrase	4	12	nomatch	blanc	-1	1	y	0.61225
53.2862	0.0	BLANC	6	noun	phrase	4	13	nomatch	blanc	-1	1	y	0.61225
53.95249999999999	0.0	+	6	noun	phrase	4	14	nomatch	blanc	-1	1	y	0.61225
53.8984	0.0	[response]	6	noun	phrase	4	15	nomatch	blanc	-1	1	y	0.61225
55.6851	0.0	+	7	noun	phrase	1	1	match	grenier	5	1	p	0.35617
56.2348	0.2	rcsdz	7	noun	phrase	1	2	match	grenier	5	1	p	0.35617
56.4347	0.0	+	7	noun	phrase	1	3	match	grenier	5	1	p	0.35617
56.8345	0.2	ptkf	7	noun	phrase	1	4	match	grenier	5	1	p	0.35617
57.0345	0.0	+	7	noun	phrase	1	5	match	grenier	5	1	p	0.35617
57.4343	0.2	bwgs	7	noun	phrase	1	6	match	grenier	5	1	p	0.35617
57.6342	0.0	+	7	noun	phrase	1	7	match	grenier	5	1	p	0.35617
58.034	0.2	bqwt	7	noun	phrase	1	8	match	grenier	5	1	p	0.35617
58.2339	0.0	+	7	noun	phrase	1	9	match	grenier	5	1	p	0.35617
58.6338	0.2	grenier	7	noun	phrase	1	10	match	grenier	5	1	p	0.35617
58.8336	0.0	+	7	noun	phrase	1	11	match	grenier	5	1	p	0.35617
59.250099999999996	0.0	+	7	noun	phrase	1	12	match	grenier	5	1	p	0.35617
61.249199999999995	0.0	GRENIER	7	noun	phrase	1	13	match	grenier	5	1	p	0.35617
61.665699999999994	0.0	+	7	noun	phrase	1	14	match	grenier	5	1	p	0.35617
61.605399999999996	0.0	[response]	7	noun	phrase	1	15	match	grenier	5	1	p	0.35617
63.64809999999999	0.0	+	8	noun	phrase	1	1	nomatch	grand	-1	1	y	0.84366
64.1979	0.2	flzcrn	8	noun	phrase	1	2	nomatch	grand	-1	1	y	0.84366
64.39779999999999	0.0	+	8	noun	phrase	1	3	nomatch	grand	-1	1	y	0.84366
64.79759999999999	0.2	psvm	8	noun	phrase	1	4	nomatch	grand	-1	1	y	0.84366
64.9975	0.0	+	8	noun	phrase	1	5	nomatch	grand	-1	1	y	0.84366
65.3973	0.2	gbl	8	noun	phrase	1	6	nomatch	grand	-1	1	y	0.84366
65.59719999999999	0.0	+	8	noun	phrase	1	7	nomatch	grand	-1	1	y	0.84366
65.99709999999999	0.2	dbcsxtr	8	noun	phrase	1	8	nomatch	grand	-1	1	y	0.84366
66.197	0.0	+	8	noun	phrase	1	9	nomatch	grand	-1	1	y	0.84366
66.5968	0.2	beau	8	noun	phrase	1	10	nomatch	grand	-1	1	y	0.84366
66.79669999999999	0.0	+	8	noun	phrase	1	11	nomatch	grand	-1	1	y	0.84366
67.19649999999999	0.0	+	8	noun	phrase	1	12	nomatch	grand	-1	1	y	0.84366
69.19560000000001	0.0	GRAND	8	noun	phrase	1	13	nomatch	grand	-1	1	y	0.84366
70.0952	0.0	+	8	noun	phrase	1	14	nomatch	grand	-1	1	y	0.84366
70.0393	0.0	[response]	8	noun	phrase	1	15	nomatch	grand	-1	1	y	0.84366
71.59450000000001	0.0	+	9	verb	list	1	1	nomatch	mon	-1	1	y	0.46805
72.14429999999999	0.2	hwtrz	9	verb	list	1	2	nomatch	mon	-1	1	y	0.46805
72.3442	0.0	+	9	verb	list	1	3	nomatch	mon	-1	1	y	0.46805
72.744	0.2	mrn	9	verb	list	1	4	nomatch	mon	-1	1	y	0.46805
72.94389999999999	0.0	+	9	verb	list	1	5	nomatch	mon	-1	1	y	0.46805
73.34370000000001	0.2	bqm	9	verb	list	1	6	nomatch	mon	-1	1	y	0.46805
73.5436	0.0	+	9	verb	list	1	7	nomatch	mon	-1	1	y	0.46805
73.9435	0.2	lhdrnpz	9	verb	list	1	8	nomatch	mon	-1	1	y	0.46805
74.14339999999999	0.0	+	9	verb	list	1	9	nomatch	mon	-1	1	y	0.46805
74.54320000000001	0.2	blanc	9	verb	list	1	10	nomatch	mon	-1	1	y	0.46805
74.7431	0.0	+	9	verb	list	1	11	nomatch	mon	-1	1	y	0.46805
75.1429	0.0	+	9	verb	list	1	12	nomatch	mon	-1	1	y	0.46805
77.142	0.0	MON	9	verb	list	1	13	nomatch	mon	-1	1	y	0.46805
77.67509999999999	0.0	+	9	verb	list	1	14	nomatch	mon	-1	1	y	0.46805
77.61009999999999	0.0	[response]	9	verb	list	1	15	nomatch	mon	-1	1	y	0.46805
79.5409	0.0	+	10	noun	list	1	1	nomatch	doit	-1	1	y	0.62326
80.0907	0.2	wlgzs	10	noun	list	1	2	nomatch	doit	-1	1	y	0.62326
80.29060000000001	0.0	+	10	noun	list	1	3	nomatch	doit	-1	1	y	0.62326
80.69040000000001	0.2	ptkf	10	noun	list	1	4	nomatch	doit	-1	1	y	0.62326
80.8903	0.0	+	10	noun	list	1	5	nomatch	doit	-1	1	y	0.62326
81.2901	0.2	cpqb	10	noun	list	1	6	nomatch	doit	-1	1	y	0.62326
81.49000000000001	0.0	+	10	noun	list	1	7	nomatch	doit	-1	1	y	0.62326
81.88990000000001	0.2	drpm	10	noun	list	1	8	nomatch	doit	-1	1	y	0.62326
82.0898	0.0	+	10	noun	list	1	9	nomatch	doit	-1	1	y	0.62326
82.4896	0.2	boîtier	10	noun	list	1	10	nomatch	doit	-1	1	y	0.62326
82.68950000000001	0.0	+	10	noun	list	1	11	nomatch	doit	-1	1	y	0.62326
83.08930000000001	0.0	+	10	noun	list	1	12	nomatch	doit	-1	1	y	0.62326
85.08839999999998	0.0	DOIT	10	noun	list	1	13	nomatch	doit	-1	1	y	0.62326
85.7714	0.0	+	10	noun	list	1	14	nomatch	doit	-1	1	y	0.62326
85.71169999999998	0.0	[response]	10	noun	list	1	15	nomatch	doit	-1	1	y	0.62326
87.4873	0.0	+	11	noun	phrase	1	1	nomatch	rouge	-1	1	y	0.52574
88.03709999999998	0.2	gtxb	11	noun	phrase	1	2	nomatch	rouge	-1	1	y	0.52574
88.237	0.0	+	11	noun	phrase	1	3	nomatch	rouge	-1	1	y	0.52574
88.6368	0.2	vzck	11	noun	phrase	1	4	nomatch	rouge	-1	1	y	0.52574
88.83669999999998	0.0	+	11	noun	phrase	1	5	nomatch	rouge	-1	1	y	0.52574
89.23649999999998	0.2	bwgs	11	noun	phrase	1	6	nomatch	rouge	-1	1	y	0.52574
89.43709999999999	0.0	+	11	noun	phrase	1	7	nomatch	rouge	-1	1	y	0.52574
89.83619999999999	0.2	mcbnkh	11	noun	phrase	1	8	nomatch	rouge	-1	1	y	0.52574
90.03619999999998	0.0	+	11	noun	phrase	1	9	nomatch	rouge	-1	1	y	0.52574
90.43599999999998	0.2	vert	11	noun	phrase	1	10	nomatch	rouge	-1	1	y	0.52574
90.63589999999999	0.0	+	11	noun	phrase	1	11	nomatch	rouge	-1	1	y	0.52574
91.03569999999999	0.0	+	11	noun	phrase	1	12	nomatch	rouge	-1	1	y	0.52574
93.03479999999999	0.0	ROUGE	11	noun	phrase	1	13	nomatch	rouge	-1	1	y	0.52574
93.61789999999999	0.0	+	11	noun	phrase	1	14	nomatch	rouge	-1	1	y	0.52574
93.5606	0.0	[response]	11	noun	phrase	1	15	nomatch	rouge	-1	1	y	0.52574
95.43369999999999	0.0	+	12	noun	list	1	1	nomatch	tard	-1	1	y	0.44947
96.0001	0.2	xbtg	12	noun	list	1	2	nomatch	tard	-1	1	y	0.44947
96.19999999999999	0.0	+	12	noun	list	1	3	nomatch	tard	-1	1	y	0.44947
96.59989999999999	0.2	gxsd	12	noun	list	1	4	nomatch	tard	-1	1	y	0.44947
96.7998	0.0	+	12	noun	list	1	5	nomatch	tard	-1	1	y	0.44947
97.1996	0.2	cpqb	12	noun	list	1	6	nomatch	tard	-1	1	y	0.44947
97.39949999999999	0.0	+	12	noun	list	1	7	nomatch	tard	-1	1	y	0.44947
97.79929999999999	0.2	chxltgs	12	noun	list	1	8	nomatch	tard	-1	1	y	0.44947
97.9992	0.0	+	12	noun	list	1	9	nomatch	tard	-1	1	y	0.44947
98.399	0.2	ainsi	12	noun	list	1	10	nomatch	tard	-1	1	y	0.44947
98.59899999999999	0.0	+	12	noun	list	1	11	nomatch	tard	-1	1	y	0.44947
98.99879999999999	0.0	+	12	noun	list	1	12	nomatch	tard	-1	1	y	0.44947
100.99789999999999	0.0	TARD	12	noun	list	1	13	nomatch	tard	-1	1	y	0.44947
101.51429999999999	0.0	+	12	noun	list	1	14	nomatch	tard	-1	1	y	0.44947
101.44730000000001	0.0	[response]	12	noun	list	1	15	nomatch	tard	-1	1	y	0.44947
103.39679999999998	0.0	+	13	noun	list	3	1	nomatch	trop	-1	1	y	0.56181
103.94649999999999	0.2	ntvck	13	noun	list	3	2	nomatch	trop	-1	1	y	0.56181
104.1464	0.0	+	13	noun	list	3	3	nomatch	trop	-1	1	y	0.56181
104.5463	0.2	mrn	13	noun	list	3	4	nomatch	trop	-1	1	y	0.56181
104.74619999999999	0.0	+	13	noun	list	3	5	nomatch	trop	-1	1	y	0.56181
105.14599999999999	0.2	son	13	noun	list	3	6	nomatch	trop	-1	1	y	0.56181
105.3459	0.0	+	13	noun	list	3	7	nomatch	trop	-1	1	y	0.56181
105.7457	0.2	moins	13	noun	list	3	8	nomatch	trop	-1	1	y	0.56181
105.94559999999998	0.0	+	13	noun	list	3	9	nomatch	trop	-1	1	y	0.56181
106.34539999999998	0.2	grenier	13	noun	list	3	10	nomatch	trop	-1	1	y	0.56181
106.5454	0.0	+	13	noun	list	3	11	nomatch	trop	-1	1	y	0.56181
106.9452	0.0	+	13	noun	list	3	12	nomatch	trop	-1	1	y	0.56181
108.9443	0.0	TROP	13	noun	list	3	13	nomatch	trop	-1	1	y	0.56181
109.5607	0.0	+	13	noun	list	3	14	nomatch	trop	-1	1	y	0.56181
109.50610000000003	0.0	[response]	13	noun	list	3	15	nomatch	trop	-1	1	y	0.56181
111.3432	0.0	+	14	verb	phrase	3	1	nomatch	sans	-1	1	y	0.5354
111.8929	0.2	vxghc	14	verb	phrase	3	2	nomatch	sans	-1	1	y	0.5354
112.09279999999998	0.0	+	14	verb	phrase	3	3	nomatch	sans	-1	1	y	0.5354
112.49269999999999	0.2	wzvq	14	verb	phrase	3	4	nomatch	sans	-1	1	y	0.5354
112.6926	0.0	+	14	verb	phrase	3	5	nomatch	sans	-1	1	y	0.5354
113.0924	0.2	peut	14	verb	phrase	3	6	nomatch	sans	-1	1	y	0.5354
113.29229999999998	0.0	+	14	verb	phrase	3	7	nomatch	sans	-1	1	y	0.5354
113.69209999999998	0.2	mieux	14	verb	phrase	3	8	nomatch	sans	-1	1	y	0.5354
113.892	0.0	+	14	verb	phrase	3	9	nomatch	sans	-1	1	y	0.5354
114.2918	0.2	nager	14	verb	phrase	3	10	nomatch	sans	-1	1	y	0.5354
114.49169999999998	0.0	+	14	verb	phrase	3	11	nomatch	sans	-1	1	y	0.5354
114.89159999999998	0.0	+	14	verb	phrase	3	12	nomatch	sans	-1	1	y	0.5354
116.89069999999998	0.0	SANS	14	verb	phrase	3	13	nomatch	sans	-1	1	y	0.5354
117.4904	0.0	+	14	verb	phrase	3	14	nomatch	sans	-1	1	y	0.5354
117.42609999999999	0.0	[response]	14	verb	phrase	3	15	nomatch	sans	-1	1	y	0.5354
119.28959999999998	0.0	+	15	noun	list	1	1	nomatch	tablier	-1	1	y	0.42888
119.83929999999998	0.2	rscl	15	noun	list	1	2	nomatch	tablier	-1	1	y	0.42888
120.0392	0.0	+	15	noun	list	1	3	nomatch	tablier	-1	1	y	0.42888
120.439	0.2	ntmd	15	noun	list	1	4	nomatch	tablier	-1	1	y	0.42888
120.63899999999998	0.0	+	15	noun	list	1	5	nomatch	tablier	-1	1	y	0.42888
121.03879999999998	0.2	cpqb	15	noun	list	1	6	nomatch	tablier	-1	1	y	0.42888
121.2387	0.0	+	15	noun	list	1	7	nomatch	tablier	-1	1	y	0.42888
121.6385	0.2	wjcf	15	noun	list	1	8	nomatch	tablier	-1	1	y	0.42888
121.83839999999998	0.0	+	15	noun	list	1	9	nomatch	tablier	-1	1	y	0.42888
122.2382	0.2	voilier	15	noun	list	1	10	nomatch	tablier	-1	1	y	0.42888
122.4382	0.0	+	15	noun	list	1	11	nomatch	tablier	-1	1	y	0.42888
122.838	0.0	+	15	noun	list	1	12	nomatch	tablier	-1	1	y	0.42888
124.83709999999999	0.0	TABLIER	15	noun	list	1	13	nomatch	tablier	-1	1	y	0.42888
125.3202	0.0	+	15	noun	list	1	14	nomatch	tablier	-1	1	y	0.42888
125.26589999999999	0.0	[response]	15	noun	list	1	15	nomatch	tablier	-1	1	y	0.42888
127.23599999999999	0.0	+	16	verb	list	2	1	match	vert	5	1	p	0.40081
127.78569999999999	0.2	fzb	16	verb	list	2	2	match	vert	5	1	p	0.40081
127.9856	0.0	+	16	verb	list	2	3	match	vert	5	1	p	0.40081
128.3854	0.2	mrn	16	verb	list	2	4	match	vert	5	1	p	0.40081
128.5854	0.0	+	16	verb	list	2	5	match	vert	5	1	p	0.40081
128.9852	0.2	bqm	16	verb	list	2	6	match	vert	5	1	p	0.40081
129.1851	0.0	+	16	verb	list	2	7	match	vert	5	1	p	0.40081
129.5849	0.2	chasser	16	verb	list	2	8	match	vert	5	1	p	0.40081
129.7848	0.0	+	16	verb	list	2	9	match	vert	5	1	p	0.40081
130.1846	0.2	vert	16	verb	list	2	10	match	vert	5	1	p	0.40081
130.3845	0.0	+	16	verb	list	2	11	match	vert	5	1	p	0.40081
130.7844	0.0	+	16	verb	list	2	12	match	vert	5	1	p	0.40081
132.8001	0.0	VERT	16	verb	list	2	13	match	vert	5	1	p	0.40081
133.26659999999998	0.0	+	16	verb	list	2	14	match	vert	5	1	p	0.40081
133.20090000000002	0.0	[response]	16	verb	list	2	15	match	vert	5	1	p	0.40081
143.19539999999998	0.0	+	17	noun	list	1	1	match	trop	5	1	p	0.79673
143.74519999999998	0.2	fmsxw	17	noun	list	1	2	match	trop	5	1	p	0.79673
143.9451	0.0	+	17	noun	list	1	3	match	trop	5	1	p	0.79673
144.3449	0.2	wzvq	17	noun	list	1	4	match	trop	5	1	p	0.79673
144.54479999999998	0.0	+	17	noun	list	1	5	match	trop	5	1	p	0.79673
144.94459999999998	0.2	gbl	17	noun	list	1	6	match	trop	5	1	p	0.79673
145.1445	0.0	+	17	noun	list	1	7	match	trop	5	1	p	0.79673
145.5443	0.2	lwrtjf	17	noun	list	1	8	match	trop	5	1	p	0.79673
145.74429999999998	0.0	+	17	noun	list	1	9	match	trop	5	1	p	0.79673
146.14409999999998	0.2	trop	17	noun	list	1	10	match	trop	5	1	p	0.79673
146.344	0.0	+	17	noun	list	1	11	match	trop	5	1	p	0.79673
146.7438	0.0	+	17	noun	list	1	12	match	trop	5	1	p	0.79673
148.7429	0.0	TROP	17	noun	list	1	13	match	trop	5	1	p	0.79673
149.5925	0.0	+	17	noun	list	1	14	match	trop	5	1	p	0.79673
149.53959999999998	0.0	[response]	17	noun	list	1	15	match	trop	5	1	p	0.79673
151.1418	0.0	+	18	noun	phrase	3	1	match	son	3	1	p	0.56727
151.6915	0.2	trnkwb	18	noun	phrase	3	2	match	son	3	1	p	0.56727
151.89149999999998	0.0	+	18	noun	phrase	3	3	match	son	3	1	p	0.56727
152.29129999999998	0.2	kgzb	18	noun	phrase	3	4	match	son	3	1	p	0.56727
152.4912	0.0	+	18	noun	phrase	3	5	match	son	3	1	p	0.56727
152.891	0.2	son	18	noun	phrase	3	6	match	son	3	1	p	0.56727
153.0909	0.0	+	18	noun	phrase	3	7	match	son	3	1	p	0.56727
153.4907	0.2	sablier	18	noun	phrase	3	8	match	son	3	1	p	0.56727
153.6906	0.0	+	18	noun	phrase	3	9	match	son	3	1	p	0.56727
154.0905	0.2	rouge	18	noun	phrase	3	10	match	son	3	1	p	0.56727
154.2904	0.0	+	18	noun	phrase	3	11	match	son	3	1	p	0.56727
154.6902	0.0	+	18	noun	phrase	3	12	match	son	3	1	p	0.56727
156.6893	0.0	SON	18	noun	phrase	3	13	match	son	3	1	p	0.56727
157.32229999999998	0.0	+	18	noun	phrase	3	14	match	son	3	1	p	0.56727
157.2566	0.0	[response]	18	noun	phrase	3	15	match	son	3	1	p	0.56727
159.0882	0.0	+	19	verb	list	4	1	match	rouler	5	1	p	0.48932
159.6379	0.2	wkdf	19	verb	list	4	2	match	rouler	5	1	p	0.48932
159.8379	0.0	+	19	verb	list	4	3	match	rouler	5	1	p	0.48932
160.2377	0.2	dans	19	verb	list	4	4	match	rouler	5	1	p	0.48932
160.4376	0.0	+	19	verb	list	4	5	match	rouler	5	1	p	0.48932
160.8374	0.2	doit	19	verb	list	4	6	match	rouler	5	1	p	0.48932
161.0373	0.0	+	19	verb	list	4	7	match	rouler	5	1	p	0.48932
161.4371	0.2	nouveau	19	verb	list	4	8	match	rouler	5	1	p	0.48932
161.637	0.0	+	19	verb	list	4	9	match	rouler	5	1	p	0.48932
162.0369	0.2	rouler	19	verb	list	4	10	match	rouler	5	1	p	0.48932
162.2368	0.0	+	19	verb	list	4	11	match	rouler	5	1	p	0.48932
162.6366	0.0	+	19	verb	list	4	12	match	rouler	5	1	p	0.48932
164.63569999999999	0.0	ROULER	19	verb	list	4	13	match	rouler	5	1	p	0.48932
165.1854	0.0	+	19	verb	list	4	14	match	rouler	5	1	p	0.48932
165.125	0.0	[response]	19	verb	list	4	15	match	rouler	5	1	p	0.48932
167.03459999999998	0.0	+	20	noun	phrase	4	1	match	sablier	4	1	p	0.61745
167.5844	0.2	rtxdl	20	noun	phrase	4	2	match	sablier	4	1	p	0.61745
167.7842	0.0	+	20	noun	phrase	4	3	match	sablier	4	1	p	0.61745
168.1841	0.2	sous	20	noun	phrase	4	4	match	sablier	4	1	p	0.61745
168.384	0.0	+	20	noun	phrase	4	5	match	sablier	4	1	p	0.61745
168.78379999999999	0.2	son	20	noun	phrase	4	6	match	sablier	4	1	p	0.61745
168.9837	0.0	+	20	noun	phrase	4	7	match	sablier	4	1	p	0.61745
169.3836	0.2	sablier	20	noun	phrase	4	8	match	sablier	4	1	p	0.61745
169.6001	0.0	+	20	noun	phrase	4	9	match	sablier	4	1	p	0.61745
169.9999	0.2	bleu	20	noun	phrase	4	10	match	sablier	4	1	p	0.61745
170.19979999999998	0.0	+	20	noun	phrase	4	11	match	sablier	4	1	p	0.61745
170.59959999999998	0.0	+	20	noun	phrase	4	12	match	sablier	4	1	p	0.61745
172.59869999999998	0.0	SABLIER	20	noun	phrase	4	13	match	sablier	4	1	p	0.61745
173.2818	0.0	+	20	noun	phrase	4	14	match	sablier	4	1	p	0.61745
173.2162	0.0	[response]	20	noun	phrase	4	15	match	sablier	4	1	p	0.61745
174.9976	0.0	+	21	noun	list	4	1	nomatch	parader	-1	1	y	0.93472
175.54739999999998	0.2	xhp	21	noun	list	4	2	nomatch	parader	-1	1	y	0.93472
175.7473	0.0	+	21	noun	list	4	3	nomatch	parader	-1	1	y	0.93472
176.1471	0.2	marc	21	noun	list	4	4	nomatch	parader	-1	1	y	0.93472
176.34699999999998	0.0	+	21	noun	list	4	5	nomatch	parader	-1	1	y	0.93472
176.74689999999998	0.2	mon	21	noun	list	4	6	nomatch	parader	-1	1	y	0.93472
176.9468	0.0	+	21	noun	list	4	7	nomatch	parader	-1	1	y	0.93472
177.3466	0.2	plus	21	noun	list	4	8	nomatch	parader	-1	1	y	0.93472
177.54649999999998	0.0	+	21	noun	list	4	9	nomatch	parader	-1	1	y	0.93472
177.94629999999998	0.2	grenier	21	noun	list	4	10	nomatch	parader	-1	1	y	0.93472
178.1462	0.0	+	21	noun	list	4	11	nomatch	parader	-1	1	y	0.93472
178.546	0.0	+	21	noun	list	4	12	nomatch	parader	-1	1	y	0.93472
180.5451	0.0	PARADER	21	noun	list	4	13	nomatch	parader	-1	1	y	0.93472
181.5447	0.0	+	21	noun	list	4	14	nomatch	parader	-1	1	y	0.93472
181.47979999999998	0.0	[response]	21	noun	list	4	15	nomatch	parader	-1	1	y	0.93472
182.944	0.0	+	22	noun	list	1	1	nomatch	luc	-1	1	y	0.78377
183.4938	0.2	lhrv	22	noun	list	1	2	nomatch	luc	-1	1	y	0.78377
183.69369999999998	0.0	+	22	noun	list	1	3	nomatch	luc	-1	1	y	0.78377
184.0935	0.2	vzck	22	noun	list	1	4	nomatch	luc	-1	1	y	0.78377
184.2934	0.0	+	22	noun	list	1	5	nomatch	luc	-1	1	y	0.78377
184.6933	0.2	hljn	22	noun	list	1	6	nomatch	luc	-1	1	y	0.78377
184.89319999999998	0.0	+	22	noun	list	1	7	nomatch	luc	-1	1	y	0.78377
185.29299999999998	0.2	hkvgz	22	noun	list	1	8	nomatch	luc	-1	1	y	0.78377
185.4929	0.0	+	22	noun	list	1	9	nomatch	luc	-1	1	y	0.78377
185.8927	0.2	panier	22	noun	list	1	10	nomatch	luc	-1	1	y	0.78377
186.0926	0.0	+	22	noun	list	1	11	nomatch	luc	-1	1	y	0.78377
186.49249999999998	0.0	+	22	noun	list	1	12	nomatch	luc	-1	1	y	0.78377
188.4915	0.0	LUC	22	noun	list	1	13	nomatch	luc	-1	1	y	0.78377
189.3412	0.0	+	22	noun	list	1	14	nomatch	luc	-1	1	y	0.78377
189.27530000000002	0.0	[response]	22	noun	list	1	15	nomatch	luc	-1	1	y	0.78377
190.8904	0.0	+	23	noun	phrase	2	1	match	vieux	4	1	p	0.6566
191.4402	0.2	nvj	23	noun	phrase	2	2	match	vieux	4	1	p	0.6566
191.6401	0.0	+	23	noun	phrase	2	3	match	vieux	4	1	p	0.6566
192.0399	0.2	gxsd	23	noun	phrase	2	4	match	vieux	4	1	p	0.6566
192.2398	0.0	+	23	noun	phrase	2	5	match	vieux	4	1	p	0.6566
192.6397	0.2	bwgs	23	noun	phrase	2	6	match	vieux	4	1	p	0.6566
192.8396	0.0	+	23	noun	phrase	2	7	match	vieux	4	1	p	0.6566
193.2394	0.2	vieux	23	noun	phrase	2	8	match	vieux	4	1	p	0.6566
193.4393	0.0	+	23	noun	phrase	2	9	match	vieux	4	1	p	0.6566
193.8391	0.2	voilier	23	noun	phrase	2	10	match	vieux	4	1	p	0.6566
194.039	0.0	+	23	noun	phrase	2	11	match	vieux	4	1	p	0.6566
194.4389	0.0	+	23	noun	phrase	2	12	match	vieux	4	1	p	0.6566
196.43789999999998	0.0	VIEUX	23	noun	phrase	2	13	match	vieux	4	1	p	0.6566
197.15429999999998	0.0	+	23	noun	phrase	2	14	match	vieux	4	1	p	0.6566
197.09449999999998	0.0	[response]	23	noun	phrase	2	15	match	vieux	4	1	p	0.6566
198.83689999999999	0.0	+	24	noun	list	4	1	match	cendrier	5	1	p	0.56808
199.3866	0.2	ptxglr	24	noun	list	4	2	match	cendrier	5	1	p	0.56808
199.5865	0.0	+	24	noun	list	4	3	match	cendrier	5	1	p	0.56808
199.9863	0.2	jade	24	noun	list	4	4	match	cendrier	5	1	p	0.56808
200.18619999999999	0.0	+	24	noun	list	4	5	match	cendrier	5	1	p	0.56808
200.5861	0.2	son	24	noun	list	4	6	match	cendrier	5	1	p	0.56808
200.786	0.0	+	24	noun	list	4	7	match	cendrier	5	1	p	0.56808
201.1858	0.2	trop	24	noun	list	4	8	match	cendrier	5	1	p	0.56808
201.38569999999999	0.0	+	24	noun	list	4	9	match	cendrier	5	1	p	0.56808
201.78549999999998	0.2	cendrier	24	noun	list	4	10	match	cendrier	5	1	p	0.56808
201.9854	0.0	+	24	noun	list	4	11	match	cendrier	5	1	p	0.56808
202.3852	0.0	+	24	noun	list	4	12	match	cendrier	5	1	p	0.56808
204.3843	0.0	CENDRIER	24	noun	list	4	13	match	cendrier	5	1	p	0.56808
205.01739999999998	0.0	+	24	noun	list	4	14	match	cendrier	5	1	p	0.56808
204.95239999999998	0.0	[response]	24	noun	list	4	15	match	cendrier	5	1	p	0.56808
206.79989999999998	0.0	+	25	noun	list	1	1	match	tard	5	1	p	0.41279
207.34969999999998	0.2	rbcp	25	noun	list	1	2	match	tard	5	1	p	0.41279
207.5496	0.0	+	25	noun	list	1	3	match	tard	5	1	p	0.41279
207.9494	0.2	psvm	25	noun	list	1	4	match	tard	5	1	p	0.41279
208.14929999999998	0.0	+	25	noun	list	1	5	match	tard	5	1	p	0.41279
208.54909999999998	0.2	cpqb	25	noun	list	1	6	match	tard	5	1	p	0.41279
208.749	0.0	+	25	noun	list	1	7	match	tard	5	1	p	0.41279
209.1488	0.2	xnhgzpmv	25	noun	list	1	8	match	tard	5	1	p	0.41279
209.34869999999998	0.0	+	25	noun	list	1	9	match	tard	5	1	p	0.41279
209.74859999999998	0.2	tard	25	noun	list	1	10	match	tard	5	1	p	0.41279
209.9485	0.0	+	25	noun	list	1	11	match	tard	5	1	p	0.41279
210.3483	0.0	+	25	noun	list	1	12	match	tard	5	1	p	0.41279
212.3474	0.0	TARD	25	noun	list	1	13	match	tard	5	1	p	0.41279
212.8139	0.0	+	25	noun	list	1	14	match	tard	5	1	p	0.41279
212.7602	0.0	[response]	25	noun	list	1	15	match	tard	5	1	p	0.41279
214.74630000000002	0.0	+	26	noun	phrase	1	1	nomatch	son	-1	1	y	0.52293
215.29609999999997	0.2	ghfdnw	26	noun	phrase	1	2	nomatch	son	-1	1	y	0.52293
215.49599999999998	0.0	+	26	noun	phrase	1	3	nomatch	son	-1	1	y	0.52293
215.8958	0.2	ntmd	26	noun	phrase	1	4	nomatch	son	-1	1	y	0.52293
216.09569999999997	0.0	+	26	noun	phrase	1	5	nomatch	son	-1	1	y	0.52293
216.4955	0.2	bqm	26	noun	phrase	1	6	nomatch	son	-1	1	y	0.52293
216.6954	0.0	+	26	noun	phrase	1	7	nomatch	son	-1	1	y	0.52293
217.09519999999998	0.2	sjkf	26	noun	phrase	1	8	nomatch	son	-1	1	y	0.52293
217.29519999999997	0.0	+	26	noun	phrase	1	9	nomatch	son	-1	1	y	0.52293
217.695	0.2	tablier	26	noun	phrase	1	10	nomatch	son	-1	1	y	0.52293
217.8949	0.0	+	26	noun	phrase	1	11	nomatch	son	-1	1	y	0.52293
218.29469999999998	0.0	+	26	noun	phrase	1	12	nomatch	son	-1	1	y	0.52293
220.29379999999998	0.0	SON	26	noun	phrase	1	13	nomatch	son	-1	1	y	0.52293
220.87689999999998	0.0	+	26	noun	phrase	1	14	nomatch	son	-1	1	y	0.52293
220.81670000000003	0.0	[response]	26	noun	phrase	1	15	nomatch	son	-1	1	y	0.52293
222.6927	0.0	+	27	noun	list	4	1	nomatch	blanc	-1	1	y	0.70451
223.2425	0.2	mjtdp	27	noun	list	4	2	nomatch	blanc	-1	1	y	0.70451
223.44239999999996	0.0	+	27	noun	list	4	3	nomatch	blanc	-1	1	y	0.70451
223.8422	0.2	vers	27	noun	list	4	4	nomatch	blanc	-1	1	y	0.70451
224.0421	0.0	+	27	noun	list	4	5	nomatch	blanc	-1	1	y	0.70451
224.44189999999998	0.2	doit	27	noun	list	4	6	nomatch	blanc	-1	1	y	0.70451
224.6418	0.0	+	27	noun	list	4	7	nomatch	blanc	-1	1	y	0.70451
225.04160000000002	0.2	cendrier	27	noun	list	4	8	nomatch	blanc	-1	1	y	0.70451
225.2416	0.0	+	27	noun	list	4	9	nomatch	blanc	-1	1	y	0.70451
225.64139999999998	0.2	ainsi	27	noun	list	4	10	nomatch	blanc	-1	1	y	0.70451
225.8413	0.0	+	27	noun	list	4	11	nomatch	blanc	-1	1	y	0.70451
226.24110000000002	0.0	+	27	noun	list	4	12	nomatch	blanc	-1	1	y	0.70451
228.24020000000002	0.0	BLANC	27	noun	list	4	13	nomatch	blanc	-1	1	y	0.70451
229.00650000000002	0.0	+	27	noun	list	4	14	nomatch	blanc	-1	1	y	0.70451
228.9447	0.0	[response]	27	noun	list	4	15	nomatch	blanc	-1	1	y	0.70451
230.63909999999998	0.0	+	28	noun	list	2	1	match	boîtier	5	1	p	0.4831
231.1889	0.2	qcwdz	28	noun	list	2	2	match	boîtier	5	1	p	0.4831
231.3888	0.0	+	28	noun	list	2	3	match	boîtier	5	1	p	0.4831
231.78859999999997	0.2	mthp	28	noun	list	2	4	match	boîtier	5	1	p	0.4831
231.9885	0.0	+	28	noun	list	2	5	match	boîtier	5	1	p	0.4831
232.38830000000002	0.2	bwgs	28	noun	list	2	6	match	boîtier	5	1	p	0.4831
232.58819999999997	0.0	+	28	noun	list	2	7	match	boîtier	5	1	p	0.4831
232.988	0.2	trop	28	noun	list	2	8	match	boîtier	5	1	p	0.4831
233.1879	0.0	+	28	noun	list	2	9	match	boîtier	5	1	p	0.4831
233.58780000000002	0.2	boîtier	28	noun	list	2	10	match	boîtier	5	1	p	0.4831
233.78769999999997	0.0	+	28	noun	list	2	11	match	boîtier	5	1	p	0.4831
234.1875	0.0	+	28	noun	list	2	12	match	boîtier	5	1	p	0.4831
236.1866	0.0	BOÎTIER	28	noun	list	2	13	match	boîtier	5	1	p	0.4831
236.73629999999997	0.0	+	28	noun	list	2	14	match	boîtier	5	1	p	0.4831
236.66969999999998	0.0	[response]	28	noun	list	2	15	match	boîtier	5	1	p	0.4831
238.58549999999997	0.0	+	29	verb	phrase	4	1	match	peut	3	1	p	0.5114
239.1352	0.2	pnjtw	29	verb	phrase	4	2	match	peut	3	1	p	0.5114
239.3352	0.0	+	29	verb	phrase	4	3	match	peut	3	1	p	0.5114
239.735	0.2	paul	29	verb	phrase	4	4	match	peut	3	1	p	0.5114
239.93489999999997	0.0	+	29	verb	phrase	4	5	match	peut	3	1	p	0.5114
240.3347	0.2	peut	29	verb	phrase	4	6	match	peut	3	1	p	0.5114
240.5346	0.0	+	29	verb	phrase	4	7	match	peut	3	1	p	0.5114
240.93439999999998	0.2	danser	29	verb	phrase	4	8	match	peut	3	1	p	0.5114
241.1343	0.0	+	29	verb	phrase	4	9	match	peut	3	1	p	0.5114
241.5342	0.2	tôt	29	verb	phrase	4	10	match	peut	3	1	p	0.5114
241.7341	0.0	+	29	verb	phrase	4	11	match	peut	3	1	p	0.5114
242.13389999999998	0.0	+	29	verb	phrase	4	12	match	peut	3	1	p	0.5114
244.1497	0.0	PEUT	29	verb	phrase	4	13	match	peut	3	1	p	0.5114
244.71609999999998	0.0	+	29	verb	phrase	4	14	match	peut	3	1	p	0.5114
244.661	0.0	[response]	29	verb	phrase	4	15	match	peut	3	1	p	0.5114
246.54859999999996	0.0	+	30	noun	list	2	1	match	tablier	4	1	p	0.40347
247.0983	0.2	bjpcs	30	noun	list	2	2	match	tablier	4	1	p	0.40347
247.2982	0.0	+	30	noun	list	2	3	match	tablier	4	1	p	0.40347
247.69799999999998	0.2	ntmd	30	noun	list	2	4	match	tablier	4	1	p	0.40347
247.8979	0.0	+	30	noun	list	2	5	match	tablier	4	1	p	0.40347
248.2978	0.2	vh	30	noun	list	2	6	match	tablier	4	1	p	0.40347
248.4977	0.0	+	30	noun	list	2	7	match	tablier	4	1	p	0.40347
248.89749999999998	0.2	tablier	30	noun	list	2	8	match	tablier	4	1	p	0.40347
249.0974	0.0	+	30	noun	list	2	9	match	tablier	4	1	p	0.40347
249.49719999999996	0.2	vite	30	noun	list	2	10	match	tablier	4	1	p	0.40347
249.6972	0.0	+	30	noun	list	2	11	match	tablier	4	1	p	0.40347
250.0969	0.0	+	30	noun	list	2	12	match	tablier	4	1	p	0.40347
252.096	0.0	TABLIER	30	noun	list	2	13	match	tablier	4	1	p	0.40347
252.5625	0.0	+	30	noun	list	2	14	match	tablier	4	1	p	0.40347
252.49950000000007	0.0	[response]	30	noun	list	2	15	match	tablier	4	1	p	0.40347
254.49489999999997	0.0	+	31	noun	list	4	1	nomatch	trop	-1	1	y	1.1554000000000002
255.04469999999998	0.2	sjnx	31	noun	list	4	2	nomatch	trop	-1	1	y	1.1554000000000002
255.2446	0.0	+	31	noun	list	4	3	nomatch	trop	-1	1	y	1.1554000000000002
255.64440000000002	0.2	avec	31	noun	list	4	4	nomatch	trop	-1	1	y	1.1554000000000002
255.84429999999998	0.0	+	31	noun	list	4	5	nomatch	trop	-1	1	y	1.1554000000000002
256.2442	0.2	va	31	noun	list	4	6	nomatch	trop	-1	1	y	1.1554000000000002
256.4441	0.0	+	31	noun	list	4	7	nomatch	trop	-1	1	y	1.1554000000000002
256.8439	0.2	sablier	31	noun	list	4	8	nomatch	trop	-1	1	y	1.1554000000000002
257.0438	0.0	+	31	noun	list	4	9	nomatch	trop	-1	1	y	1.1554000000000002
257.4436	0.2	tard	31	noun	list	4	10	nomatch	trop	-1	1	y	1.1554000000000002
257.6435	0.0	+	31	noun	list	4	11	nomatch	trop	-1	1	y	1.1554000000000002
258.0434	0.0	+	31	noun	list	4	12	nomatch	trop	-1	1	y	1.1554000000000002
260.0424	0.0	TROP	31	noun	list	4	13	nomatch	trop	-1	1	y	1.1554000000000002
261.2586	0.0	+	31	noun	list	4	14	nomatch	trop	-1	1	y	1.1554000000000002
261.1978	0.0	[response]	31	noun	list	4	15	nomatch	trop	-1	1	y	1.1554000000000002
262.4414	0.0	+	32	noun	phrase	1	1	match	rouge	5	1	p	0.40897000000000006
262.9911	0.2	fbtrzkg	32	noun	phrase	1	2	match	rouge	5	1	p	0.40897000000000006
263.191	0.0	+	32	noun	phrase	1	3	match	rouge	5	1	p	0.40897000000000006
263.5908	0.2	ptkf	32	noun	phrase	1	4	match	rouge	5	1	p	0.40897000000000006
263.7907	0.0	+	32	noun	phrase	1	5	match	rouge	5	1	p	0.40897000000000006
264.1906	0.2	bqm	32	noun	phrase	1	6	match	rouge	5	1	p	0.40897000000000006
264.3905	0.0	+	32	noun	phrase	1	7	match	rouge	5	1	p	0.40897000000000006
264.7903	0.2	chxltgs	32	noun	phrase	1	8	match	rouge	5	1	p	0.40897000000000006
264.9902	0.0	+	32	noun	phrase	1	9	match	rouge	5	1	p	0.40897000000000006
265.39	0.2	rouge	32	noun	phrase	1	10	match	rouge	5	1	p	0.40897000000000006
265.5899	0.0	+	32	noun	phrase	1	11	match	rouge	5	1	p	0.40897000000000006
265.98969999999997	0.0	+	32	noun	phrase	1	12	match	rouge	5	1	p	0.40897000000000006
267.98879999999997	0.0	ROUGE	32	noun	phrase	1	13	match	rouge	5	1	p	0.40897000000000006
268.45529999999997	0.0	+	32	noun	phrase	1	14	match	rouge	5	1	p	0.40897000000000006
268.3978	0.0	[response]	32	noun	phrase	1	15	match	rouge	5	1	p	0.40897000000000006
270.3877	0.0	+	33	noun	phrase	3	1	match	vieux	4	1	p	0.46744
270.9375	0.2	wdgm	33	noun	phrase	3	2	match	vieux	4	1	p	0.46744
271.1374	0.0	+	33	noun	phrase	3	3	match	vieux	4	1	p	0.46744
271.5372	0.2	lzd	33	noun	phrase	3	4	match	vieux	4	1	p	0.46744
271.7371	0.0	+	33	noun	phrase	3	5	match	vieux	4	1	p	0.46744
272.137	0.2	son	33	noun	phrase	3	6	match	vieux	4	1	p	0.46744
272.3369	0.0	+	33	noun	phrase	3	7	match	vieux	4	1	p	0.46744
272.7367	0.2	vieux	33	noun	phrase	3	8	match	vieux	4	1	p	0.46744
272.9366	0.0	+	33	noun	phrase	3	9	match	vieux	4	1	p	0.46744
273.33639999999997	0.2	voilier	33	noun	phrase	3	10	match	vieux	4	1	p	0.46744
273.5363	0.0	+	33	noun	phrase	3	11	match	vieux	4	1	p	0.46744
273.9361	0.0	+	33	noun	phrase	3	12	match	vieux	4	1	p	0.46744
275.9352	0.0	VIEUX	33	noun	phrase	3	13	match	vieux	4	1	p	0.46744
276.4683	0.0	+	33	noun	phrase	3	14	match	vieux	4	1	p	0.46744
276.4027	0.0	[response]	33	noun	phrase	3	15	match	vieux	4	1	p	0.46744
278.3342	0.0	+	34	noun	list	2	1	nomatch	rocher	-1	1	y	0.53108
278.8839	0.2	wrnzkq	34	noun	list	2	2	nomatch	rocher	-1	1	y	0.53108
279.0838	0.0	+	34	noun	list	2	3	nomatch	rocher	-1	1	y	0.53108
279.4837	0.2	psvm	34	noun	list	2	4	nomatch	rocher	-1	1	y	0.53108
279.6837	0.0	+	34	noun	list	2	5	nomatch	rocher	-1	1	y	0.53108
280.09999999999997	0.2	cpqb	34	noun	list	2	6	nomatch	rocher	-1	1	y	0.53108
280.2999	0.0	+	34	noun	list	2	7	nomatch	rocher	-1	1	y	0.53108
280.6997	0.2	sablier	34	noun	list	2	8	nomatch	rocher	-1	1	y	0.53108
280.8997	0.0	+	34	noun	list	2	9	nomatch	rocher	-1	1	y	0.53108
281.29949999999997	0.2	loin	34	noun	list	2	10	nomatch	rocher	-1	1	y	0.53108
281.4994	0.0	+	34	noun	list	2	11	nomatch	rocher	-1	1	y	0.53108
281.8992	0.0	+	34	noun	list	2	12	nomatch	rocher	-1	1	y	0.53108
283.8983	0.0	ROCHER	34	noun	list	2	13	nomatch	rocher	-1	1	y	0.53108
284.4814	0.0	+	34	noun	list	2	14	nomatch	rocher	-1	1	y	0.53108
284.4294	0.0	[response]	34	noun	list	2	15	nomatch	rocher	-1	1	y	0.53108
286.2972	0.0	+	35	verb	phrase	1	1	nomatch	tard	-1	1	y	0.52165
286.847	0.2	ghcrl	35	verb	phrase	1	2	nomatch	tard	-1	1	y	0.52165
287.0469	0.0	+	35	verb	phrase	1	3	nomatch	tard	-1	1	y	0.52165
287.44669999999996	0.2	mthp	35	verb	phrase	1	4	nomatch	tard	-1	1	y	0.52165
287.6466	0.0	+	35	verb	phrase	1	5	nomatch	tard	-1	1	y	0.52165
288.0464	0.2	vh	35	verb	phrase	1	6	nomatch	tard	-1	1	y	0.52165
288.2463	0.0	+	35	verb	phrase	1	7	nomatch	tard	-1	1	y	0.52165
288.6461	0.2	jwdcmvn	35	verb	phrase	1	8	nomatch	tard	-1	1	y	0.52165
288.846	0.0	+	35	verb	phrase	1	9	nomatch	tard	-1	1	y	0.52165
289.2459	0.2	ainsi	35	verb	phrase	1	10	nomatch	tard	-1	1	y	0.52165
289.4458	0.0	+	35	verb	phrase	1	11	nomatch	tard	-1	1	y	0.52165
289.8456	0.0	+	35	verb	phrase	1	12	nomatch	tard	-1	1	y	0.52165
291.8447	0.0	TARD	35	verb	phrase	1	13	nomatch	tard	-1	1	y	0.52165
292.4278	0.0	+	35	verb	phrase	1	14	nomatch	tard	-1	1	y	0.52165
292.36629999999997	0.0	[response]	35	verb	phrase	1	15	nomatch	tard	-1	1	y	0.52165
294.2436	0.0	+	36	verb	phrase	4	1	nomatch	doit	-1	1	y	0.64697
294.7934	0.2	zgxblv	36	verb	phrase	4	2	nomatch	doit	-1	1	y	0.64697
294.9933	0.0	+	36	verb	phrase	4	3	nomatch	doit	-1	1	y	0.64697
295.3931	0.2	jade	36	verb	phrase	4	4	nomatch	doit	-1	1	y	0.64697
295.593	0.0	+	36	verb	phrase	4	5	nomatch	doit	-1	1	y	0.64697
295.9928	0.2	va	36	verb	phrase	4	6	nomatch	doit	-1	1	y	0.64697
296.1927	0.0	+	36	verb	phrase	4	7	nomatch	doit	-1	1	y	0.64697
296.5925	0.2	nager	36	verb	phrase	4	8	nomatch	doit	-1	1	y	0.64697
296.7924	0.0	+	36	verb	phrase	4	9	nomatch	doit	-1	1	y	0.64697
297.1923	0.2	vite	36	verb	phrase	4	10	nomatch	doit	-1	1	y	0.64697
297.3922	0.0	+	36	verb	phrase	4	11	nomatch	doit	-1	1	y	0.64697
297.792	0.0	+	36	verb	phrase	4	12	nomatch	doit	-1	1	y	0.64697
299.7911	0.0	DOIT	36	verb	phrase	4	13	nomatch	doit	-1	1	y	0.64697
300.4908	0.0	+	36	verb	phrase	4	14	nomatch	doit	-1	1	y	0.64697
300.4381	0.0	[response]	36	verb	phrase	4	15	nomatch	doit	-1	1	y	0.64697
302.19	0.0	+	37	verb	list	1	1	match	rouler	5	1	p	0.45791
302.73969999999997	0.2	thvs	37	verb	list	1	2	match	rouler	5	1	p	0.45791
302.9397	0.0	+	37	verb	list	1	3	match	rouler	5	1	p	0.45791
303.3395	0.2	mthp	37	verb	list	1	4	match	rouler	5	1	p	0.45791
303.5394	0.0	+	37	verb	list	1	5	match	rouler	5	1	p	0.45791
303.93919999999997	0.2	gbl	37	verb	list	1	6	match	rouler	5	1	p	0.45791
304.1391	0.0	+	37	verb	list	1	7	match	rouler	5	1	p	0.45791
304.5389	0.2	rzwvd	37	verb	list	1	8	match	rouler	5	1	p	0.45791
304.7389	0.0	+	37	verb	list	1	9	match	rouler	5	1	p	0.45791
305.1387	0.2	rouler	37	verb	list	1	10	match	rouler	5	1	p	0.45791
305.3386	0.0	+	37	verb	list	1	11	match	rouler	5	1	p	0.45791
305.7384	0.0	+	37	verb	list	1	12	match	rouler	5	1	p	0.45791
307.7375	0.0	ROULER	37	verb	list	1	13	match	rouler	5	1	p	0.45791
308.2539	0.0	+	37	verb	list	1	14	match	rouler	5	1	p	0.45791
308.1954	0.0	[response]	37	verb	list	1	15	match	rouler	5	1	p	0.45791
310.1364	0.0	+	38	verb	phrase	4	1	nomatch	jade	-1	0	p	0.58524
310.6862	0.2	dcbgmr	38	verb	phrase	4	2	nomatch	jade	-1	0	p	0.58524
310.88599999999997	0.0	+	38	verb	phrase	4	3	nomatch	jade	-1	0	p	0.58524
311.28589999999997	0.2	yves	38	verb	phrase	4	4	nomatch	jade	-1	0	p	0.58524
311.4858	0.0	+	38	verb	phrase	4	5	nomatch	jade	-1	0	p	0.58524
311.8856	0.2	va	38	verb	phrase	4	6	nomatch	jade	-1	0	p	0.58524
312.08549999999997	0.0	+	38	verb	phrase	4	7	nomatch	jade	-1	0	p	0.58524
312.4853	0.2	trop	38	verb	phrase	4	8	nomatch	jade	-1	0	p	0.58524
312.6852	0.0	+	38	verb	phrase	4	9	nomatch	jade	-1	0	p	0.58524
313.0851	0.2	parader	38	verb	phrase	4	10	nomatch	jade	-1	0	p	0.58524
313.28499999999997	0.0	+	38	verb	phrase	4	11	nomatch	jade	-1	0	p	0.58524
313.6848	0.0	+	38	verb	phrase	4	12	nomatch	jade	-1	0	p	0.58524
315.6839	0.0	JADE	38	verb	phrase	4	13	nomatch	jade	-1	0	p	0.58524
316.3336	0.0	+	38	verb	phrase	4	14	nomatch	jade	-1	0	p	0.58524
316.2691	0.0	[response]	38	verb	phrase	4	15	nomatch	jade	-1	0	p	0.58524
318.0995	0.0	+	39	noun	phrase	1	1	match	blanc	5	1	p	0.39459
318.6492	0.2	wgbftj	39	noun	phrase	1	2	match	blanc	5	1	p	0.39459
318.84909999999996	0.0	+	39	noun	phrase	1	3	match	blanc	5	1	p	0.39459
319.2489	0.2	lzd	39	noun	phrase	1	4	match	blanc	5	1	p	0.39459
319.4489	0.0	+	39	noun	phrase	1	5	match	blanc	5	1	p	0.39459
319.8487	0.2	bwgs	39	noun	phrase	1	6	match	blanc	5	1	p	0.39459
320.04859999999996	0.0	+	39	noun	phrase	1	7	match	blanc	5	1	p	0.39459
320.4484	0.2	mplvtsb	39	noun	phrase	1	8	match	blanc	5	1	p	0.39459
320.6483	0.0	+	39	noun	phrase	1	9	match	blanc	5	1	p	0.39459
321.0481	0.2	blanc	39	noun	phrase	1	10	match	blanc	5	1	p	0.39459
321.248	0.0	+	39	noun	phrase	1	11	match	blanc	5	1	p	0.39459
321.6478	0.0	+	39	noun	phrase	1	12	match	blanc	5	1	p	0.39459
323.6469	0.0	BLANC	39	noun	phrase	1	13	match	blanc	5	1	p	0.39459
324.0967	0.0	+	39	noun	phrase	1	14	match	blanc	5	1	p	0.39459
324.0415	0.0	[response]	39	noun	phrase	1	15	match	blanc	5	1	p	0.39459
326.0459	0.0	+	40	noun	list	3	1	match	plus	4	1	p	0.87225
326.5956	0.2	pksrcj	40	noun	list	3	2	match	plus	4	1	p	0.87225
326.7955	0.0	+	40	noun	list	3	3	match	plus	4	1	p	0.87225
327.1953	0.2	wzvq	40	noun	list	3	4	match	plus	4	1	p	0.87225
327.3952	0.0	+	40	noun	list	3	5	match	plus	4	1	p	0.87225
327.7951	0.2	son	40	noun	list	3	6	match	plus	4	1	p	0.87225
327.995	0.0	+	40	noun	list	3	7	match	plus	4	1	p	0.87225
328.3948	0.2	plus	40	noun	list	3	8	match	plus	4	1	p	0.87225
328.5947	0.0	+	40	noun	list	3	9	match	plus	4	1	p	0.87225
328.9945	0.2	voilier	40	noun	list	3	10	match	plus	4	1	p	0.87225
329.1944	0.0	+	40	noun	list	3	11	match	plus	4	1	p	0.87225
329.5942	0.0	+	40	noun	list	3	12	match	plus	4	1	p	0.87225
331.5933	0.0	PLUS	40	noun	list	3	13	match	plus	4	1	p	0.87225
332.5262	0.0	+	40	noun	list	3	14	match	plus	4	1	p	0.87225
332.4656	0.0	[response]	40	noun	list	3	15	match	plus	4	1	p	0.87225
333.9923	0.0	+	41	verb	list	2	1	match	grand	4	1	p	0.44665
334.542	0.2	jsgkv	41	verb	list	2	2	match	grand	4	1	p	0.44665
334.7419	0.0	+	41	verb	list	2	3	match	grand	4	1	p	0.44665
335.1417	0.2	ntmd	41	verb	list	2	4	match	grand	4	1	p	0.44665
335.34159999999997	0.0	+	41	verb	list	2	5	match	grand	4	1	p	0.44665
335.7415	0.2	cpqb	41	verb	list	2	6	match	grand	4	1	p	0.44665
335.9414	0.0	+	41	verb	list	2	7	match	grand	4	1	p	0.44665
336.3412	0.2	grand	41	verb	list	2	8	match	grand	4	1	p	0.44665
336.5411	0.0	+	41	verb	list	2	9	match	grand	4	1	p	0.44665
336.9409	0.2	galoper	41	verb	list	2	10	match	grand	4	1	p	0.44665
337.1408	0.0	+	41	verb	list	2	11	match	grand	4	1	p	0.44665
337.5406	0.0	+	41	verb	list	2	12	match	grand	4	1	p	0.44665
339.5398	0.0	GRAND	41	verb	list	2	13	match	grand	4	1	p	0.44665
340.0395	0.0	+	41	verb	list	2	14	match	grand	4	1	p	0.44665
339.9865	0.0	[response]	41	verb	list	2	15	match	grand	4	1	p	0.44665
341.9386	0.0	+	42	noun	list	3	1	match	son	3	1	p	0.51477
342.4884	0.2	rfw	42	noun	list	3	2	match	son	3	1	p	0.51477
342.68829999999997	0.0	+	42	noun	list	3	3	match	son	3	1	p	0.51477
343.0881	0.2	wzvq	42	noun	list	3	4	match	son	3	1	p	0.51477
343.288	0.0	+	42	noun	list	3	5	match	son	3	1	p	0.51477
343.6879	0.2	son	42	noun	list	3	6	match	son	3	1	p	0.51477
343.88779999999997	0.0	+	42	noun	list	3	7	match	son	3	1	p	0.51477
344.2876	0.2	moins	42	noun	list	3	8	match	son	3	1	p	0.51477
344.4875	0.0	+	42	noun	list	3	9	match	son	3	1	p	0.51477
344.8873	0.2	panier	42	noun	list	3	10	match	son	3	1	p	0.51477
345.0872	0.0	+	42	noun	list	3	11	match	son	3	1	p	0.51477
345.48699999999997	0.0	+	42	noun	list	3	12	match	son	3	1	p	0.51477
347.48609999999996	0.0	SON	42	noun	list	3	13	match	son	3	1	p	0.51477
348.0525	0.0	+	42	noun	list	3	14	match	son	3	1	p	0.51477
348.0009	0.0	[response]	42	noun	list	3	15	match	son	3	1	p	0.51477
349.88509999999997	0.0	+	43	verb	phrase	2	1	match	chasser	5	1	p	0.41974
350.4348	0.2	shdvcmw	43	verb	phrase	2	2	match	chasser	5	1	p	0.41974
350.6347	0.0	+	43	verb	phrase	2	3	match	chasser	5	1	p	0.41974
351.0345	0.2	mthp	43	verb	phrase	2	4	match	chasser	5	1	p	0.41974
351.2344	0.0	+	43	verb	phrase	2	5	match	chasser	5	1	p	0.41974
351.63419999999996	0.2	vh	43	verb	phrase	2	6	match	chasser	5	1	p	0.41974
351.8342	0.0	+	43	verb	phrase	2	7	match	chasser	5	1	p	0.41974
352.2341	0.2	trop	43	verb	phrase	2	8	match	chasser	5	1	p	0.41974
352.4339	0.0	+	43	verb	phrase	2	9	match	chasser	5	1	p	0.41974
352.83369999999996	0.2	chasser	43	verb	phrase	2	10	match	chasser	5	1	p	0.41974
353.0336	0.0	+	43	verb	phrase	2	11	match	chasser	5	1	p	0.41974
353.4501	0.0	+	43	verb	phrase	2	12	match	chasser	5	1	p	0.41974
355.4492	0.0	CHASSER	43	verb	phrase	2	13	match	chasser	5	1	p	0.41974
355.9323	0.0	+	43	verb	phrase	2	14	match	chasser	5	1	p	0.41974
355.8689	0.0	[response]	43	verb	phrase	2	15	match	chasser	5	1	p	0.41974
357.8481	0.0	+	44	verb	phrase	1	1	match	tard	5	1	p	0.42942
358.3979	0.2	wtsb	44	verb	phrase	1	2	match	tard	5	1	p	0.42942
358.5978	0.0	+	44	verb	phrase	1	3	match	tard	5	1	p	0.42942
358.9976	0.2	wlmq	44	verb	phrase	1	4	match	tard	5	1	p	0.42942
359.1975	0.0	+	44	verb	phrase	1	5	match	tard	5	1	p	0.42942
359.5973	0.2	cpqb	44	verb	phrase	1	6	match	tard	5	1	p	0.42942
359.7972	0.0	+	44	verb	phrase	1	7	match	tard	5	1	p	0.42942
360.197	0.2	rhntpd	44	verb	phrase	1	8	match	tard	5	1	p	0.42942
360.397	0.0	+	44	verb	phrase	1	9	match	tard	5	1	p	0.42942
360.7968	0.2	tard	44	verb	phrase	1	10	match	tard	5	1	p	0.42942
360.9967	0.0	+	44	verb	phrase	1	11	match	tard	5	1	p	0.42942
361.3965	0.0	+	44	verb	phrase	1	12	match	tard	5	1	p	0.42942
363.3956	0.0	TARD	44	verb	phrase	1	13	match	tard	5	1	p	0.42942
363.8787	0.0	+	44	verb	phrase	1	14	match	tard	5	1	p	0.42942
363.825	0.0	[response]	44	verb	phrase	1	15	match	tard	5	1	p	0.42942
365.79449999999997	0.0	+	45	verb	phrase	1	1	match	parader	5	1	p	0.36893000000000004
366.3443	0.2	fmvbr	45	verb	phrase	1	2	match	parader	5	1	p	0.36893000000000004
366.5442	0.0	+	45	verb	phrase	1	3	match	parader	5	1	p	0.36893000000000004
366.944	0.2	mrn	45	verb	phrase	1	4	match	parader	5	1	p	0.36893000000000004
367.1439	0.0	+	45	verb	phrase	1	5	match	parader	5	1	p	0.36893000000000004
367.5437	0.2	hljn	45	verb	phrase	1	6	match	parader	5	1	p	0.36893000000000004
367.7436	0.0	+	45	verb	phrase	1	7	match	parader	5	1	p	0.36893000000000004
368.1434	0.2	hcpnv	45	verb	phrase	1	8	match	parader	5	1	p	0.36893000000000004
368.3434	0.0	+	45	verb	phrase	1	9	match	parader	5	1	p	0.36893000000000004
368.7432	0.2	parader	45	verb	phrase	1	10	match	parader	5	1	p	0.36893000000000004
368.9431	0.0	+	45	verb	phrase	1	11	match	parader	5	1	p	0.36893000000000004
369.3429	0.0	+	45	verb	phrase	1	12	match	parader	5	1	p	0.36893000000000004
371.342	0.0	PARADER	45	verb	phrase	1	13	match	parader	5	1	p	0.36893000000000004
371.7751	0.0	+	45	verb	phrase	1	14	match	parader	5	1	p	0.36893000000000004
371.71090000000004	0.0	[response]	45	verb	phrase	1	15	match	parader	5	1	p	0.36893000000000004
373.7409	0.0	+	46	noun	phrase	2	1	match	boîtier	5	1	p	0.37596000000000007
374.2907	0.2	vpqcfns	46	noun	phrase	2	2	match	boîtier	5	1	p	0.37596000000000007
374.4906	0.0	+	46	noun	phrase	2	3	match	boîtier	5	1	p	0.37596000000000007
374.8904	0.2	kgzb	46	noun	phrase	2	4	match	boîtier	5	1	p	0.37596000000000007
375.0903	0.0	+	46	noun	phrase	2	5	match	boîtier	5	1	p	0.37596000000000007
375.4901	0.2	bqm	46	noun	phrase	2	6	match	boîtier	5	1	p	0.37596000000000007
375.69	0.0	+	46	noun	phrase	2	7	match	boîtier	5	1	p	0.37596000000000007
376.08979999999997	0.2	grand	46	noun	phrase	2	8	match	boîtier	5	1	p	0.37596000000000007
376.2898	0.0	+	46	noun	phrase	2	9	match	boîtier	5	1	p	0.37596000000000007
376.6898	0.2	boîtier	46	noun	phrase	2	10	match	boîtier	5	1	p	0.37596000000000007
376.8895	0.0	+	46	noun	phrase	2	11	match	boîtier	5	1	p	0.37596000000000007
377.28929999999997	0.0	+	46	noun	phrase	2	12	match	boîtier	5	1	p	0.37596000000000007
379.28839999999997	0.0	BOÎTIER	46	noun	phrase	2	13	match	boîtier	5	1	p	0.37596000000000007
379.7215	0.0	+	46	noun	phrase	2	14	match	boîtier	5	1	p	0.37596000000000007
379.6644	0.0	[response]	46	noun	phrase	2	15	match	boîtier	5	1	p	0.37596000000000007
381.68739999999997	0.0	+	47	verb	list	2	1	match	bleu	5	1	p	0.35754
382.23699999999997	0.2	wbv	47	verb	list	2	2	match	bleu	5	1	p	0.35754
382.437	0.0	+	47	verb	list	2	3	match	bleu	5	1	p	0.35754
382.8368	0.2	gbpr	47	verb	list	2	4	match	bleu	5	1	p	0.35754
383.0367	0.0	+	47	verb	list	2	5	match	bleu	5	1	p	0.35754
383.43649999999997	0.2	gbl	47	verb	list	2	6	match	bleu	5	1	p	0.35754
383.6364	0.0	+	47	verb	list	2	7	match	bleu	5	1	p	0.35754
384.0362	0.2	parader	47	verb	list	2	8	match	bleu	5	1	p	0.35754
384.23609999999996	0.0	+	47	verb	list	2	9	match	bleu	5	1	p	0.35754
384.63599999999997	0.2	bleu	47	verb	list	2	10	match	bleu	5	1	p	0.35754
384.8359	0.0	+	47	verb	list	2	11	match	bleu	5	1	p	0.35754
385.2357	0.0	+	47	verb	list	2	12	match	bleu	5	1	p	0.35754
387.2348	0.0	BLEU	47	verb	list	2	13	match	bleu	5	1	p	0.35754
387.6513	0.0	+	47	verb	list	2	14	match	bleu	5	1	p	0.35754
387.59229999999997	0.0	[response]	47	verb	list	2	15	match	bleu	5	1	p	0.35754
389.6339	0.0	+	48	verb	list	1	1	nomatch	grand	-1	1	y	0.40900000000000003
390.2001	0.2	mkxfg	48	verb	list	1	2	nomatch	grand	-1	1	y	0.40900000000000003
390.4	0.0	+	48	verb	list	1	3	nomatch	grand	-1	1	y	0.40900000000000003
390.7998	0.2	ptkf	48	verb	list	1	4	nomatch	grand	-1	1	y	0.40900000000000003
390.9997	0.0	+	48	verb	list	1	5	nomatch	grand	-1	1	y	0.40900000000000003
391.39959999999996	0.2	hljn	48	verb	list	1	6	nomatch	grand	-1	1	y	0.40900000000000003
391.5995	0.0	+	48	verb	list	1	7	nomatch	grand	-1	1	y	0.40900000000000003
391.9993	0.2	nqdzxlv	48	verb	list	1	8	nomatch	grand	-1	1	y	0.40900000000000003
392.1992	0.0	+	48	verb	list	1	9	nomatch	grand	-1	1	y	0.40900000000000003
392.599	0.2	vieux	48	verb	list	1	10	nomatch	grand	-1	1	y	0.40900000000000003
392.7989	0.0	+	48	verb	list	1	11	nomatch	grand	-1	1	y	0.40900000000000003
393.1987	0.0	+	48	verb	list	1	12	nomatch	grand	-1	1	y	0.40900000000000003
395.1978	0.0	GRAND	48	verb	list	1	13	nomatch	grand	-1	1	y	0.40900000000000003
395.66429999999997	0.0	+	48	verb	list	1	14	nomatch	grand	-1	1	y	0.40900000000000003
395.60679999999996	0.0	[response]	48	verb	list	1	15	nomatch	grand	-1	1	y	0.40900000000000003
405.5931	0.0	+	49	verb	phrase	1	1	match	patiner	5	1	p	0.38531
406.1429	0.2	bpx	49	verb	phrase	1	2	match	patiner	5	1	p	0.38531
406.3428	0.0	+	49	verb	phrase	1	3	match	patiner	5	1	p	0.38531
406.7426	0.2	mrn	49	verb	phrase	1	4	match	patiner	5	1	p	0.38531
406.9425	0.0	+	49	verb	phrase	1	5	match	patiner	5	1	p	0.38531
407.34229999999997	0.2	cpqb	49	verb	phrase	1	6	match	patiner	5	1	p	0.38531
407.5422	0.0	+	49	verb	phrase	1	7	match	patiner	5	1	p	0.38531
407.9421	0.2	drpm	49	verb	phrase	1	8	match	patiner	5	1	p	0.38531
408.142	0.0	+	49	verb	phrase	1	9	match	patiner	5	1	p	0.38531
408.54179999999997	0.2	patiner	49	verb	phrase	1	10	match	patiner	5	1	p	0.38531
408.7417	0.0	+	49	verb	phrase	1	11	match	patiner	5	1	p	0.38531
409.1415	0.0	+	49	verb	phrase	1	12	match	patiner	5	1	p	0.38531
411.1406	0.0	PATINER	49	verb	phrase	1	13	match	patiner	5	1	p	0.38531
411.5904	0.0	+	49	verb	phrase	1	14	match	patiner	5	1	p	0.38531
411.52590000000004	0.0	[response]	49	verb	phrase	1	15	match	patiner	5	1	p	0.38531
413.5395	0.0	+	50	noun	phrase	2	1	nomatch	sans	-1	1	y	0.74148
414.0893	0.2	krjqbzd	50	noun	phrase	2	2	nomatch	sans	-1	1	y	0.74148
414.2892	0.0	+	50	noun	phrase	2	3	nomatch	sans	-1	1	y	0.74148
414.68899999999996	0.2	vzck	50	noun	phrase	2	4	nomatch	sans	-1	1	y	0.74148
414.8889	0.0	+	50	noun	phrase	2	5	nomatch	sans	-1	1	y	0.74148
415.2887	0.2	bwgs	50	noun	phrase	2	6	nomatch	sans	-1	1	y	0.74148
415.4886	0.0	+	50	noun	phrase	2	7	nomatch	sans	-1	1	y	0.74148
415.88849999999996	0.2	tablier	50	noun	phrase	2	8	nomatch	sans	-1	1	y	0.74148
416.0884	0.0	+	50	noun	phrase	2	9	nomatch	sans	-1	1	y	0.74148
416.4882	0.2	rouge	50	noun	phrase	2	10	nomatch	sans	-1	1	y	0.74148
416.6881	0.0	+	50	noun	phrase	2	11	nomatch	sans	-1	1	y	0.74148
417.0879	0.0	+	50	noun	phrase	2	12	nomatch	sans	-1	1	y	0.74148
419.087	0.0	SANS	50	noun	phrase	2	13	nomatch	sans	-1	1	y	0.74148
419.8866	0.0	+	50	noun	phrase	2	14	nomatch	sans	-1	1	y	0.74148
419.8285000000001	0.0	[response]	50	noun	phrase	2	15	nomatch	sans	-1	1	y	0.74148
421.4859	0.0	+	51	noun	phrase	3	1	match	son	3	1	p	0.38574
422.0357	0.2	djb	51	noun	phrase	3	2	match	son	3	1	p	0.38574
422.2356	0.0	+	51	noun	phrase	3	3	match	son	3	1	p	0.38574
422.6354	0.2	ptkf	51	noun	phrase	3	4	match	son	3	1	p	0.38574
422.8353	0.0	+	51	noun	phrase	3	5	match	son	3	1	p	0.38574
423.2351	0.2	son	51	noun	phrase	3	6	match	son	3	1	p	0.38574
423.435	0.0	+	51	noun	phrase	3	7	match	son	3	1	p	0.38574
423.8348	0.2	grenier	51	noun	phrase	3	8	match	son	3	1	p	0.38574
424.0348	0.0	+	51	noun	phrase	3	9	match	son	3	1	p	0.38574
424.4346	0.2	blanc	51	noun	phrase	3	10	match	son	3	1	p	0.38574
424.6345	0.0	+	51	noun	phrase	3	11	match	son	3	1	p	0.38574
425.0343	0.0	+	51	noun	phrase	3	12	match	son	3	1	p	0.38574
427.0503	0.0	SON	51	noun	phrase	3	13	match	son	3	1	p	0.38574
427.49989999999997	0.0	+	51	noun	phrase	3	14	match	son	3	1	p	0.38574
427.4361	0.0	[response]	51	noun	phrase	3	15	match	son	3	1	p	0.38574
429.449	0.0	+	52	verb	phrase	4	1	match	peut	3	1	p	0.37992
429.9987	0.2	lvtgkb	52	verb	phrase	4	2	match	peut	3	1	p	0.37992
430.1986	0.0	+	52	verb	phrase	4	3	match	peut	3	1	p	0.37992
430.5985	0.2	jean	52	verb	phrase	4	4	match	peut	3	1	p	0.37992
430.7984	0.0	+	52	verb	phrase	4	5	match	peut	3	1	p	0.37992
431.1982	0.2	peut	52	verb	phrase	4	6	match	peut	3	1	p	0.37992
431.3981	0.0	+	52	verb	phrase	4	7	match	peut	3	1	p	0.37992
431.79789999999997	0.2	plus	52	verb	phrase	4	8	match	peut	3	1	p	0.37992
431.9978	0.0	+	52	verb	phrase	4	9	match	peut	3	1	p	0.37992
432.3976	0.2	jongler	52	verb	phrase	4	10	match	peut	3	1	p	0.37992
432.5976	0.0	+	52	verb	phrase	4	11	match	peut	3	1	p	0.37992
432.99739999999997	0.0	+	52	verb	phrase	4	12	match	peut	3	1	p	0.37992
434.99649999999997	0.0	PEUT	52	verb	phrase	4	13	match	peut	3	1	p	0.37992
435.4296	0.0	+	52	verb	phrase	4	14	match	peut	3	1	p	0.37992
435.3764	0.0	[response]	52	verb	phrase	4	15	match	peut	3	1	p	0.37992
445.3917	0.0	+	53	verb	phrase	1	1	nomatch	loin	-1	1	y	0.48684
445.9415	0.2	fxg	53	verb	phrase	1	2	nomatch	loin	-1	1	y	0.48684
446.1414	0.0	+	53	verb	phrase	1	3	nomatch	loin	-1	1	y	0.48684
446.5412	0.2	mrn	53	verb	phrase	1	4	nomatch	loin	-1	1	y	0.48684
446.7411	0.0	+	53	verb	phrase	1	5	nomatch	loin	-1	1	y	0.48684
447.141	0.2	cpqb	53	verb	phrase	1	6	nomatch	loin	-1	1	y	0.48684
447.3409	0.0	+	53	verb	phrase	1	7	nomatch	loin	-1	1	y	0.48684
447.7407	0.2	nqdzxlv	53	verb	phrase	1	8	nomatch	loin	-1	1	y	0.48684
447.9406	0.0	+	53	verb	phrase	1	9	nomatch	loin	-1	1	y	0.48684
448.3404	0.2	ainsi	53	verb	phrase	1	10	nomatch	loin	-1	1	y	0.48684
448.5403	0.0	+	53	verb	phrase	1	11	nomatch	loin	-1	1	y	0.48684
448.9401	0.0	+	53	verb	phrase	1	12	nomatch	loin	-1	1	y	0.48684
450.93919999999997	0.0	LOIN	53	verb	phrase	1	13	nomatch	loin	-1	1	y	0.48684
451.489	0.0	+	53	verb	phrase	1	14	nomatch	loin	-1	1	y	0.48684
451.4261	0.0	[response]	53	verb	phrase	1	15	nomatch	loin	-1	1	y	0.48684
461.3345	0.0	+	54	verb	list	1	1	nomatch	peut	-1	1	y	0.40602
461.8843	0.2	dtg	54	verb	list	1	2	nomatch	peut	-1	1	y	0.40602
462.0842	0.0	+	54	verb	list	1	3	nomatch	peut	-1	1	y	0.40602
462.484	0.2	gbpr	54	verb	list	1	4	nomatch	peut	-1	1	y	0.40602
462.6839	0.0	+	54	verb	list	1	5	nomatch	peut	-1	1	y	0.40602
463.08369999999996	0.2	bwgs	54	verb	list	1	6	nomatch	peut	-1	1	y	0.40602
463.2836	0.0	+	54	verb	list	1	7	nomatch	peut	-1	1	y	0.40602
463.7001	0.2	phzd	54	verb	list	1	8	nomatch	peut	-1	1	y	0.40602
463.9	0.0	+	54	verb	list	1	9	nomatch	peut	-1	1	y	0.40602
464.2998	0.2	chasser	54	verb	list	1	10	nomatch	peut	-1	1	y	0.40602
464.4997	0.0	+	54	verb	list	1	11	nomatch	peut	-1	1	y	0.40602
464.89959999999996	0.0	+	54	verb	list	1	12	nomatch	peut	-1	1	y	0.40602
466.8987	0.0	PEUT	54	verb	list	1	13	nomatch	peut	-1	1	y	0.40602
467.36510000000004	0.0	+	54	verb	list	1	14	nomatch	peut	-1	1	y	0.40602
467.30469999999997	0.0	[response]	54	verb	list	1	15	nomatch	peut	-1	1	y	0.40602
477.29400000000004	0.0	+	55	verb	list	4	1	nomatch	leur	-1	1	y	0.62147
477.84369999999996	0.2	rbwptv	55	verb	list	4	2	nomatch	leur	-1	1	y	0.62147
478.0436	0.0	+	55	verb	list	4	3	nomatch	leur	-1	1	y	0.62147
478.44339999999994	0.2	marc	55	verb	list	4	4	nomatch	leur	-1	1	y	0.62147
478.6433	0.0	+	55	verb	list	4	5	nomatch	leur	-1	1	y	0.62147
479.04310000000004	0.2	son	55	verb	list	4	6	nomatch	leur	-1	1	y	0.62147
479.24309999999997	0.0	+	55	verb	list	4	7	nomatch	leur	-1	1	y	0.62147
479.6429	0.2	patiner	55	verb	list	4	8	nomatch	leur	-1	1	y	0.62147
479.84279999999995	0.0	+	55	verb	list	4	9	nomatch	leur	-1	1	y	0.62147
480.2426	0.2	vert	55	verb	list	4	10	nomatch	leur	-1	1	y	0.62147
480.44249999999994	0.0	+	55	verb	list	4	11	nomatch	leur	-1	1	y	0.62147
480.84229999999997	0.0	+	55	verb	list	4	12	nomatch	leur	-1	1	y	0.62147
482.84139999999996	0.0	LEUR	55	verb	list	4	13	nomatch	leur	-1	1	y	0.62147
483.52450000000005	0.0	+	55	verb	list	4	14	nomatch	leur	-1	1	y	0.62147
483.46290000000005	0.0	[response]	55	verb	list	4	15	nomatch	leur	-1	1	y	0.62147
485.24039999999997	0.0	+	56	verb	phrase	2	1	nomatch	panier	-1	1	y	0.59366
485.7901	0.2	tpcwb	56	verb	phrase	2	2	nomatch	panier	-1	1	y	0.59366
485.98999999999995	0.0	+	56	verb	phrase	2	3	nomatch	panier	-1	1	y	0.59366
486.3898	0.2	mrn	56	verb	phrase	2	4	nomatch	panier	-1	1	y	0.59366
486.58969999999994	0.0	+	56	verb	phrase	2	5	nomatch	panier	-1	1	y	0.59366
486.98949999999996	0.2	cpqb	56	verb	phrase	2	6	nomatch	panier	-1	1	y	0.59366
487.1895	0.0	+	56	verb	phrase	2	7	nomatch	panier	-1	1	y	0.59366
487.58930000000004	0.2	parader	56	verb	phrase	2	8	nomatch	panier	-1	1	y	0.59366
487.7892	0.0	+	56	verb	phrase	2	9	nomatch	panier	-1	1	y	0.59366
488.189	0.2	vite	56	verb	phrase	2	10	nomatch	panier	-1	1	y	0.59366
488.3889	0.0	+	56	verb	phrase	2	11	nomatch	panier	-1	1	y	0.59366
488.7887	0.0	+	56	verb	phrase	2	12	nomatch	panier	-1	1	y	0.59366
490.7878	0.0	PANIER	56	verb	phrase	2	13	nomatch	panier	-1	1	y	0.59366
491.43760000000003	0.0	+	56	verb	phrase	2	14	nomatch	panier	-1	1	y	0.59366
491.3815	0.0	[response]	56	verb	phrase	2	15	nomatch	panier	-1	1	y	0.59366
493.18670000000003	0.0	+	57	verb	list	1	1	nomatch	plus	-1	1	y	0.53786
493.73650000000004	0.2	dgcf	57	verb	list	1	2	nomatch	plus	-1	1	y	0.53786
493.9364	0.0	+	57	verb	list	1	3	nomatch	plus	-1	1	y	0.53786
494.3362	0.2	ntmd	57	verb	list	1	4	nomatch	plus	-1	1	y	0.53786
494.5361	0.0	+	57	verb	list	1	5	nomatch	plus	-1	1	y	0.53786
494.9359	0.2	vh	57	verb	list	1	6	nomatch	plus	-1	1	y	0.53786
495.13589999999994	0.0	+	57	verb	list	1	7	nomatch	plus	-1	1	y	0.53786
495.53569999999996	0.2	pkwnqd	57	verb	list	1	8	nomatch	plus	-1	1	y	0.53786
495.73560000000003	0.0	+	57	verb	list	1	9	nomatch	plus	-1	1	y	0.53786
496.13539999999995	0.2	beau	57	verb	list	1	10	nomatch	plus	-1	1	y	0.53786
496.3353	0.0	+	57	verb	list	1	11	nomatch	plus	-1	1	y	0.53786
496.73510000000005	0.0	+	57	verb	list	1	12	nomatch	plus	-1	1	y	0.53786
498.73420000000004	0.0	PLUS	57	verb	list	1	13	nomatch	plus	-1	1	y	0.53786
499.334	0.0	+	57	verb	list	1	14	nomatch	plus	-1	1	y	0.53786
499.2721000000001	0.0	[response]	57	verb	list	1	15	nomatch	plus	-1	1	y	0.53786
501.14979999999997	0.0	+	58	noun	list	1	1	match	boîtier	5	1	p	0.42042
501.6996	0.2	nhsfqcz	58	noun	list	1	2	match	boîtier	5	1	p	0.42042
501.89950000000005	0.0	+	58	noun	list	1	3	match	boîtier	5	1	p	0.42042
502.29929999999996	0.2	mthp	58	noun	list	1	4	match	boîtier	5	1	p	0.42042
502.49920000000003	0.0	+	58	noun	list	1	5	match	boîtier	5	1	p	0.42042
502.89899999999994	0.2	gbl	58	noun	list	1	6	match	boîtier	5	1	p	0.42042
503.0989	0.0	+	58	noun	list	1	7	match	boîtier	5	1	p	0.42042
503.49870000000004	0.2	thfl	58	noun	list	1	8	match	boîtier	5	1	p	0.42042
503.6987	0.0	+	58	noun	list	1	9	match	boîtier	5	1	p	0.42042
504.0985	0.2	boîtier	58	noun	list	1	10	match	boîtier	5	1	p	0.42042
504.29839999999996	0.0	+	58	noun	list	1	11	match	boîtier	5	1	p	0.42042
504.6982	0.0	+	58	noun	list	1	12	match	boîtier	5	1	p	0.42042
506.6973	0.0	BOÎTIER	58	noun	list	1	13	match	boîtier	5	1	p	0.42042
507.1804	0.0	+	58	noun	list	1	14	match	boîtier	5	1	p	0.42042
507.11769999999996	0.0	[response]	58	noun	list	1	15	match	boîtier	5	1	p	0.42042
509.0962	0.0	+	59	verb	phrase	3	1	nomatch	loin	-1	1	y	0.52571
509.64590000000004	0.2	nrfjh	59	verb	phrase	3	2	nomatch	loin	-1	1	y	0.52571
509.8459	0.0	+	59	verb	phrase	3	3	nomatch	loin	-1	1	y	0.52571
510.2457	0.2	mrn	59	verb	phrase	3	4	nomatch	loin	-1	1	y	0.52571
510.44559999999996	0.0	+	59	verb	phrase	3	5	nomatch	loin	-1	1	y	0.52571
510.8454	0.2	doit	59	verb	phrase	3	6	nomatch	loin	-1	1	y	0.52571
511.04529999999994	0.0	+	59	verb	phrase	3	7	nomatch	loin	-1	1	y	0.52571
511.44509999999997	0.2	chasser	59	verb	phrase	3	8	nomatch	loin	-1	1	y	0.52571
511.64500000000004	0.0	+	59	verb	phrase	3	9	nomatch	loin	-1	1	y	0.52571
512.0449000000001	0.2	tard	59	verb	phrase	3	10	nomatch	loin	-1	1	y	0.52571
512.2448	0.0	+	59	verb	phrase	3	11	nomatch	loin	-1	1	y	0.52571
512.6446000000001	0.0	+	59	verb	phrase	3	12	nomatch	loin	-1	1	y	0.52571
514.6437000000001	0.0	LOIN	59	verb	phrase	3	13	nomatch	loin	-1	1	y	0.52571
515.2268	0.0	+	59	verb	phrase	3	14	nomatch	loin	-1	1	y	0.52571
515.1694	0.0	[response]	59	verb	phrase	3	15	nomatch	loin	-1	1	y	0.52571
525.0390000000001	0.0	+	60	verb	list	1	1	match	parader	5	1	p	1.03
525.5887	0.2	vctbflk	60	verb	list	1	2	match	parader	5	1	p	1.03
525.7886000000001	0.0	+	60	verb	list	1	3	match	parader	5	1	p	1.03
526.1884	0.2	ntmd	60	verb	list	1	4	match	parader	5	1	p	1.03
526.3883000000001	0.0	+	60	verb	list	1	5	match	parader	5	1	p	1.03
526.7882000000001	0.2	hljn	60	verb	list	1	6	match	parader	5	1	p	1.03
526.9881	0.0	+	60	verb	list	1	7	match	parader	5	1	p	1.03
527.3879000000001	0.2	wdhpv	60	verb	list	1	8	match	parader	5	1	p	1.03
527.5878	0.0	+	60	verb	list	1	9	match	parader	5	1	p	1.03
527.9876	0.2	parader	60	verb	list	1	10	match	parader	5	1	p	1.03
528.1875	0.0	+	60	verb	list	1	11	match	parader	5	1	p	1.03
528.5874	0.0	+	60	verb	list	1	12	match	parader	5	1	p	1.03
530.5865	0.0	PARADER	60	verb	list	1	13	match	parader	5	1	p	1.03
531.6693	0.0	+	60	verb	list	1	14	match	parader	5	1	p	1.03
531.6164	0.0	[response]	60	verb	list	1	15	match	parader	5	1	p	1.03
556.9911000000001	0.0	+	61	verb	list	3	1	nomatch	leur	-1	1	y	0.58973
557.5409000000001	0.2	fpvbjdg	61	verb	list	3	2	nomatch	leur	-1	1	y	0.58973
557.7408	0.0	+	61	verb	list	3	3	nomatch	leur	-1	1	y	0.58973
558.1406000000001	0.2	mrn	61	verb	list	3	4	nomatch	leur	-1	1	y	0.58973
558.3405	0.0	+	61	verb	list	3	5	nomatch	leur	-1	1	y	0.58973
558.7404	0.2	son	61	verb	list	3	6	nomatch	leur	-1	1	y	0.58973
558.9403000000001	0.0	+	61	verb	list	3	7	nomatch	leur	-1	1	y	0.58973
559.3401	0.2	galoper	61	verb	list	3	8	nomatch	leur	-1	1	y	0.58973
559.5400000000001	0.0	+	61	verb	list	3	9	nomatch	leur	-1	1	y	0.58973
559.9398000000001	0.2	rouge	61	verb	list	3	10	nomatch	leur	-1	1	y	0.58973
560.1397000000001	0.0	+	61	verb	list	3	11	nomatch	leur	-1	1	y	0.58973
560.5395000000001	0.0	+	61	verb	list	3	12	nomatch	leur	-1	1	y	0.58973
562.5386000000001	0.0	LEUR	61	verb	list	3	13	nomatch	leur	-1	1	y	0.58973
563.1884	0.0	+	61	verb	list	3	14	nomatch	leur	-1	1	y	0.58973
563.1284	0.0	[response]	61	verb	list	3	15	nomatch	leur	-1	1	y	0.58973
564.9375	0.0	+	62	verb	phrase	1	1	match	parader	5	1	p	0.39252
565.4873	0.2	rsnzv	62	verb	phrase	1	2	match	parader	5	1	p	0.39252
565.6873	0.0	+	62	verb	phrase	1	3	match	parader	5	1	p	0.39252
566.0870000000001	0.2	gbpr	62	verb	phrase	1	4	match	parader	5	1	p	0.39252
566.2869000000001	0.0	+	62	verb	phrase	1	5	match	parader	5	1	p	0.39252
566.6867000000001	0.2	hljn	62	verb	phrase	1	6	match	parader	5	1	p	0.39252
566.8867	0.0	+	62	verb	phrase	1	7	match	parader	5	1	p	0.39252
567.2865	0.2	nzxl	62	verb	phrase	1	8	match	parader	5	1	p	0.39252
567.4864	0.0	+	62	verb	phrase	1	9	match	parader	5	1	p	0.39252
567.8862	0.2	parader	62	verb	phrase	1	10	match	parader	5	1	p	0.39252
568.0861000000001	0.0	+	62	verb	phrase	1	11	match	parader	5	1	p	0.39252
568.4866000000001	0.0	+	62	verb	phrase	1	12	match	parader	5	1	p	0.39252
570.485	0.0	PARADER	62	verb	phrase	1	13	match	parader	5	1	p	0.39252
570.9348	0.0	+	62	verb	phrase	1	14	match	parader	5	1	p	0.39252
570.8776	0.0	[response]	62	verb	phrase	1	15	match	parader	5	1	p	0.39252
572.884	0.0	+	63	noun	phrase	1	1	nomatch	grand	-1	1	y	0.426
573.4338	0.2	chfjqpg	63	noun	phrase	1	2	nomatch	grand	-1	1	y	0.426
573.6336	0.0	+	63	noun	phrase	1	3	nomatch	grand	-1	1	y	0.426
574.0501	0.2	psvm	63	noun	phrase	1	4	nomatch	grand	-1	1	y	0.426
574.25	0.0	+	63	noun	phrase	1	5	nomatch	grand	-1	1	y	0.426
574.6498	0.2	gbl	63	noun	phrase	1	6	nomatch	grand	-1	1	y	0.426
574.8497000000001	0.0	+	63	noun	phrase	1	7	nomatch	grand	-1	1	y	0.426
575.2495	0.2	nbcqh	63	noun	phrase	1	8	nomatch	grand	-1	1	y	0.426
575.4495000000001	0.0	+	63	noun	phrase	1	9	nomatch	grand	-1	1	y	0.426
575.8493000000001	0.2	sablier	63	noun	phrase	1	10	nomatch	grand	-1	1	y	0.426
576.0492	0.0	+	63	noun	phrase	1	11	nomatch	grand	-1	1	y	0.426
576.4490000000001	0.0	+	63	noun	phrase	1	12	nomatch	grand	-1	1	y	0.426
578.4481000000001	0.0	GRAND	63	noun	phrase	1	13	nomatch	grand	-1	1	y	0.426
578.9312000000001	0.0	+	63	noun	phrase	1	14	nomatch	grand	-1	1	y	0.426
578.8741	0.0	[response]	63	noun	phrase	1	15	nomatch	grand	-1	1	y	0.426
580.8470000000001	0.0	+	64	verb	list	4	1	match	son	3	1	p	0.39358
581.3967	0.2	vkdbxr	64	verb	list	4	2	match	son	3	1	p	0.39358
581.5967	0.0	+	64	verb	list	4	3	match	son	3	1	p	0.39358
581.9965000000001	0.2	jean	64	verb	list	4	4	match	son	3	1	p	0.39358
582.1964	0.0	+	64	verb	list	4	5	match	son	3	1	p	0.39358
582.5962000000001	0.2	son	64	verb	list	4	6	match	son	3	1	p	0.39358
582.7961	0.0	+	64	verb	list	4	7	match	son	3	1	p	0.39358
583.1959	0.2	rouler	64	verb	list	4	8	match	son	3	1	p	0.39358
583.3959000000001	0.0	+	64	verb	list	4	9	match	son	3	1	p	0.39358
583.7957	0.2	rouge	64	verb	list	4	10	match	son	3	1	p	0.39358
583.9956000000001	0.0	+	64	verb	list	4	11	match	son	3	1	p	0.39358
584.3954	0.0	+	64	verb	list	4	12	match	son	3	1	p	0.39358
586.3945	0.0	SON	64	verb	list	4	13	match	son	3	1	p	0.39358
586.8443000000001	0.0	+	64	verb	list	4	14	match	son	3	1	p	0.39358
586.7881000000001	0.0	[response]	64	verb	list	4	15	match	son	3	1	p	0.39358
588.7934	0.0	+	65	verb	phrase	3	1	match	plus	4	1	p	0.39502
589.3431	0.2	skfbrj	65	verb	phrase	3	2	match	plus	4	1	p	0.39502
589.5431000000001	0.0	+	65	verb	phrase	3	3	match	plus	4	1	p	0.39502
589.9429	0.2	mthp	65	verb	phrase	3	4	match	plus	4	1	p	0.39502
590.1428000000001	0.0	+	65	verb	phrase	3	5	match	plus	4	1	p	0.39502
590.5426	0.2	va	65	verb	phrase	3	6	match	plus	4	1	p	0.39502
590.7425000000001	0.0	+	65	verb	phrase	3	7	match	plus	4	1	p	0.39502
591.1423000000001	0.2	plus	65	verb	phrase	3	8	match	plus	4	1	p	0.39502
591.3422	0.0	+	65	verb	phrase	3	9	match	plus	4	1	p	0.39502
591.7421	0.2	chasser	65	verb	phrase	3	10	match	plus	4	1	p	0.39502
591.942	0.0	+	65	verb	phrase	3	11	match	plus	4	1	p	0.39502
592.3418	0.0	+	65	verb	phrase	3	12	match	plus	4	1	p	0.39502
594.3409	0.0	PLUS	65	verb	phrase	3	13	match	plus	4	1	p	0.39502
594.7907	0.0	+	65	verb	phrase	3	14	match	plus	4	1	p	0.39502
594.7359	0.0	[response]	65	verb	phrase	3	15	match	plus	4	1	p	0.39502
596.7398000000001	0.0	+	66	verb	list	1	1	match	bleu	5	1	p	0.35267
597.2895000000001	0.2	ljmvt	66	verb	list	1	2	match	bleu	5	1	p	0.35267
597.4895	0.0	+	66	verb	list	1	3	match	bleu	5	1	p	0.35267
597.8893	0.2	mrn	66	verb	list	1	4	match	bleu	5	1	p	0.35267
598.0892	0.0	+	66	verb	list	1	5	match	bleu	5	1	p	0.35267
598.489	0.2	gbl	66	verb	list	1	6	match	bleu	5	1	p	0.35267
598.6889000000001	0.0	+	66	verb	list	1	7	match	bleu	5	1	p	0.35267
599.0887	0.2	pkwnqd	66	verb	list	1	8	match	bleu	5	1	p	0.35267
599.2886000000001	0.0	+	66	verb	list	1	9	match	bleu	5	1	p	0.35267
599.6885000000001	0.2	bleu	66	verb	list	1	10	match	bleu	5	1	p	0.35267
599.8884	0.0	+	66	verb	list	1	11	match	bleu	5	1	p	0.35267
600.2882000000001	0.0	+	66	verb	list	1	12	match	bleu	5	1	p	0.35267
602.2873000000001	0.0	BLEU	66	verb	list	1	13	match	bleu	5	1	p	0.35267
602.7038	0.0	+	66	verb	list	1	14	match	bleu	5	1	p	0.35267
602.6400000000001	0.0	[response]	66	verb	list	1	15	match	bleu	5	1	p	0.35267
604.6862000000001	0.0	+	67	verb	list	4	1	match	luc	2	1	p	0.51188
605.2359	0.2	sfdwjvp	67	verb	list	4	2	match	luc	2	1	p	0.51188
605.4359000000001	0.0	+	67	verb	list	4	3	match	luc	2	1	p	0.51188
605.8357000000001	0.2	luc	67	verb	list	4	4	match	luc	2	1	p	0.51188
606.0356	0.0	+	67	verb	list	4	5	match	luc	2	1	p	0.51188
606.4354000000001	0.2	mon	67	verb	list	4	6	match	luc	2	1	p	0.51188
606.6353	0.0	+	67	verb	list	4	7	match	luc	2	1	p	0.51188
607.0351	0.2	nager	67	verb	list	4	8	match	luc	2	1	p	0.51188
607.235	0.0	+	67	verb	list	4	9	match	luc	2	1	p	0.51188
607.6349	0.2	noir	67	verb	list	4	10	match	luc	2	1	p	0.51188
607.8348000000001	0.0	+	67	verb	list	4	11	match	luc	2	1	p	0.51188
608.2346	0.0	+	67	verb	list	4	12	match	luc	2	1	p	0.51188
610.2337	0.0	LUC	67	verb	list	4	13	match	luc	2	1	p	0.51188
610.8001	0.0	+	67	verb	list	4	14	match	luc	2	1	p	0.51188
610.7456000000001	0.0	[response]	67	verb	list	4	15	match	luc	2	1	p	0.51188
620.6456000000001	0.0	+	68	verb	list	1	1	nomatch	doit	-1	1	y	0.43186
621.1954000000001	0.2	gls	68	verb	list	1	2	nomatch	doit	-1	1	y	0.43186
621.3953	0.0	+	68	verb	list	1	3	nomatch	doit	-1	1	y	0.43186
621.7951	0.2	gxsd	68	verb	list	1	4	nomatch	doit	-1	1	y	0.43186
621.995	0.0	+	68	verb	list	1	5	nomatch	doit	-1	1	y	0.43186
622.3948	0.2	cpqb	68	verb	list	1	6	nomatch	doit	-1	1	y	0.43186
622.5947000000001	0.0	+	68	verb	list	1	7	nomatch	doit	-1	1	y	0.43186
622.9946000000001	0.2	dcxhnmz	68	verb	list	1	8	nomatch	doit	-1	1	y	0.43186
623.1945000000001	0.0	+	68	verb	list	1	9	nomatch	doit	-1	1	y	0.43186
623.5943000000001	0.2	danser	68	verb	list	1	10	nomatch	doit	-1	1	y	0.43186
623.7942	0.0	+	68	verb	list	1	11	nomatch	doit	-1	1	y	0.43186
624.1940000000001	0.0	+	68	verb	list	1	12	nomatch	doit	-1	1	y	0.43186
626.1931000000001	0.0	DOIT	68	verb	list	1	13	nomatch	doit	-1	1	y	0.43186
626.6762	0.0	+	68	verb	list	1	14	nomatch	doit	-1	1	y	0.43186
626.625	0.0	[response]	68	verb	list	1	15	nomatch	doit	-1	1	y	0.43186
636.5884000000001	0.0	+	69	noun	list	2	1	match	moins	4	1	p	0.39305
637.1381	0.2	cfdwmkg	69	noun	list	2	2	match	moins	4	1	p	0.39305
637.3381	0.0	+	69	noun	list	2	3	match	moins	4	1	p	0.39305
637.7379000000001	0.2	rdft	69	noun	list	2	4	match	moins	4	1	p	0.39305
637.9378	0.0	+	69	noun	list	2	5	match	moins	4	1	p	0.39305
638.3376000000001	0.2	bqm	69	noun	list	2	6	match	moins	4	1	p	0.39305
638.5375	0.0	+	69	noun	list	2	7	match	moins	4	1	p	0.39305
638.9373	0.2	moins	69	noun	list	2	8	match	moins	4	1	p	0.39305
639.1372	0.0	+	69	noun	list	2	9	match	moins	4	1	p	0.39305
639.5371	0.2	panier	69	noun	list	2	10	match	moins	4	1	p	0.39305
639.7370000000001	0.0	+	69	noun	list	2	11	match	moins	4	1	p	0.39305
640.1368	0.0	+	69	noun	list	2	12	match	moins	4	1	p	0.39305
642.1359	0.0	MOINS	69	noun	list	2	13	match	moins	4	1	p	0.39305
642.5857000000001	0.0	+	69	noun	list	2	14	match	moins	4	1	p	0.39305
642.5289	0.0	[response]	69	noun	list	2	15	match	moins	4	1	p	0.39305
644.5348	0.0	+	70	verb	phrase	3	1	nomatch	marc	-1	1	y	0.77651
645.0845	0.2	jfkd	70	verb	phrase	3	2	nomatch	marc	-1	1	y	0.77651
645.2845000000001	0.0	+	70	verb	phrase	3	3	nomatch	marc	-1	1	y	0.77651
645.6843	0.2	mthp	70	verb	phrase	3	4	nomatch	marc	-1	1	y	0.77651
645.8842000000001	0.0	+	70	verb	phrase	3	5	nomatch	marc	-1	1	y	0.77651
646.2840000000001	0.2	peut	70	verb	phrase	3	6	nomatch	marc	-1	1	y	0.77651
646.4839000000001	0.0	+	70	verb	phrase	3	7	nomatch	marc	-1	1	y	0.77651
646.8837000000001	0.2	jongler	70	verb	phrase	3	8	nomatch	marc	-1	1	y	0.77651
647.0836	0.0	+	70	verb	phrase	3	9	nomatch	marc	-1	1	y	0.77651
647.5001000000001	0.2	vite	70	verb	phrase	3	10	nomatch	marc	-1	1	y	0.77651
647.7	0.0	+	70	verb	phrase	3	11	nomatch	marc	-1	1	y	0.77651
648.0998000000001	0.0	+	70	verb	phrase	3	12	nomatch	marc	-1	1	y	0.77651
650.0989000000001	0.0	MARC	70	verb	phrase	3	13	nomatch	marc	-1	1	y	0.77651
650.9319	0.0	+	70	verb	phrase	3	14	nomatch	marc	-1	1	y	0.77651
650.8754	0.0	[response]	70	verb	phrase	3	15	nomatch	marc	-1	1	y	0.77651
660.4942000000001	0.0	+	71	verb	phrase	1	1	match	moins	5	1	p	0.38859
661.0440000000001	0.2	dgzvpf	71	verb	phrase	1	2	match	moins	5	1	p	0.38859
661.2439	0.0	+	71	verb	phrase	1	3	match	moins	5	1	p	0.38859
661.6437000000001	0.2	cdsf	71	verb	phrase	1	4	match	moins	5	1	p	0.38859
661.8436	0.0	+	71	verb	phrase	1	5	match	moins	5	1	p	0.38859
662.2434000000001	0.2	cpqb	71	verb	phrase	1	6	match	moins	5	1	p	0.38859
662.4433	0.0	+	71	verb	phrase	1	7	match	moins	5	1	p	0.38859
662.8432	0.2	pwmcl	71	verb	phrase	1	8	match	moins	5	1	p	0.38859
663.0431000000001	0.0	+	71	verb	phrase	1	9	match	moins	5	1	p	0.38859
663.4429	0.2	moins	71	verb	phrase	1	10	match	moins	5	1	p	0.38859
663.6428000000001	0.0	+	71	verb	phrase	1	11	match	moins	5	1	p	0.38859
664.0426	0.0	+	71	verb	phrase	1	12	match	moins	5	1	p	0.38859
666.0417000000001	0.0	MOINS	71	verb	phrase	1	13	match	moins	5	1	p	0.38859
666.4915000000001	0.0	+	71	verb	phrase	1	14	match	moins	5	1	p	0.38859
666.4303000000001	0.0	[response]	71	verb	phrase	1	15	match	moins	5	1	p	0.38859
676.437	0.0	+	72	verb	list	2	1	nomatch	vert	-1	1	y	0.61423
676.9867	0.2	hklcqw	72	verb	list	2	2	nomatch	vert	-1	1	y	0.61423
677.1866	0.0	+	72	verb	list	2	3	nomatch	vert	-1	1	y	0.61423
677.5865	0.2	rdft	72	verb	list	2	4	nomatch	vert	-1	1	y	0.61423
677.7864000000001	0.0	+	72	verb	list	2	5	nomatch	vert	-1	1	y	0.61423
678.1862000000001	0.2	bwgs	72	verb	list	2	6	nomatch	vert	-1	1	y	0.61423
678.3861	0.0	+	72	verb	list	2	7	nomatch	vert	-1	1	y	0.61423
678.7859000000001	0.2	rouler	72	verb	list	2	8	nomatch	vert	-1	1	y	0.61423
678.9858	0.0	+	72	verb	list	2	9	nomatch	vert	-1	1	y	0.61423
679.3857	0.2	blanc	72	verb	list	2	10	nomatch	vert	-1	1	y	0.61423
679.5856	0.0	+	72	verb	list	2	11	nomatch	vert	-1	1	y	0.61423
679.9854	0.0	+	72	verb	list	2	12	nomatch	vert	-1	1	y	0.61423
681.9845	0.0	VERT	72	verb	list	2	13	nomatch	vert	-1	1	y	0.61423
682.6508	0.0	+	72	verb	list	2	14	nomatch	vert	-1	1	y	0.61423
682.5987	0.0	[response]	72	verb	list	2	15	nomatch	vert	-1	1	y	0.61423
684.4000000000001	0.0	+	73	verb	phrase	1	1	nomatch	chasser	-1	1	y	0.47463
684.9498000000001	0.2	pxh	73	verb	phrase	1	2	nomatch	chasser	-1	1	y	0.47463
685.1497	0.0	+	73	verb	phrase	1	3	nomatch	chasser	-1	1	y	0.47463
685.5495000000001	0.2	wlmq	73	verb	phrase	1	4	nomatch	chasser	-1	1	y	0.47463
685.7494	0.0	+	73	verb	phrase	1	5	nomatch	chasser	-1	1	y	0.47463
686.1493	0.2	cpqb	73	verb	phrase	1	6	nomatch	chasser	-1	1	y	0.47463
686.3492	0.0	+	73	verb	phrase	1	7	nomatch	chasser	-1	1	y	0.47463
686.749	0.2	nzxl	73	verb	phrase	1	8	nomatch	chasser	-1	1	y	0.47463
686.9489000000001	0.0	+	73	verb	phrase	1	9	nomatch	chasser	-1	1	y	0.47463
687.3487	0.2	danser	73	verb	phrase	1	10	nomatch	chasser	-1	1	y	0.47463
687.5486000000001	0.0	+	73	verb	phrase	1	11	nomatch	chasser	-1	1	y	0.47463
687.9484	0.0	+	73	verb	phrase	1	12	nomatch	chasser	-1	1	y	0.47463
689.9475000000001	0.0	CHASSER	73	verb	phrase	1	13	nomatch	chasser	-1	1	y	0.47463
690.4806000000001	0.0	+	73	verb	phrase	1	14	nomatch	chasser	-1	1	y	0.47463
690.4222000000001	0.0	[response]	73	verb	phrase	1	15	nomatch	chasser	-1	1	y	0.47463
700.3428	0.0	+	74	noun	phrase	2	1	nomatch	son	-1	1	y	0.61319
700.8926	0.2	xclzkfh	74	noun	phrase	2	2	nomatch	son	-1	1	y	0.61319
701.0925000000001	0.0	+	74	noun	phrase	2	3	nomatch	son	-1	1	y	0.61319
701.4923	0.2	vzck	74	noun	phrase	2	4	nomatch	son	-1	1	y	0.61319
701.6922000000001	0.0	+	74	noun	phrase	2	5	nomatch	son	-1	1	y	0.61319
702.0920000000001	0.2	bwgs	74	noun	phrase	2	6	nomatch	son	-1	1	y	0.61319
702.2919	0.0	+	74	noun	phrase	2	7	nomatch	son	-1	1	y	0.61319
702.6918000000001	0.2	panier	74	noun	phrase	2	8	nomatch	son	-1	1	y	0.61319
702.8917	0.0	+	74	noun	phrase	2	9	nomatch	son	-1	1	y	0.61319
703.2915	0.2	noir	74	noun	phrase	2	10	nomatch	son	-1	1	y	0.61319
703.4914	0.0	+	74	noun	phrase	2	11	nomatch	son	-1	1	y	0.61319
703.8912	0.0	+	74	noun	phrase	2	12	nomatch	son	-1	1	y	0.61319
705.8903	0.0	SON	74	noun	phrase	2	13	nomatch	son	-1	1	y	0.61319
706.5567000000001	0.0	+	74	noun	phrase	2	14	nomatch	son	-1	1	y	0.61319
706.5035	0.0	[response]	74	noun	phrase	2	15	nomatch	son	-1	1	y	0.61319
708.2892	0.0	+	75	verb	list	3	1	match	petit	4	1	p	0.47462000000000004
708.839	0.2	pfn	75	verb	list	3	2	match	petit	4	1	p	0.47462000000000004
709.0389	0.0	+	75	verb	list	3	3	match	petit	4	1	p	0.47462000000000004
709.4387	0.2	gxsd	75	verb	list	3	4	match	petit	4	1	p	0.47462000000000004
709.6386	0.0	+	75	verb	list	3	5	match	petit	4	1	p	0.47462000000000004
710.0384	0.2	doit	75	verb	list	3	6	match	petit	4	1	p	0.47462000000000004
710.2383000000001	0.0	+	75	verb	list	3	7	match	petit	4	1	p	0.47462000000000004
710.6382000000001	0.2	petit	75	verb	list	3	8	match	petit	4	1	p	0.47462000000000004
710.8381	0.0	+	75	verb	list	3	9	match	petit	4	1	p	0.47462000000000004
711.2379000000001	0.2	jongler	75	verb	list	3	10	match	petit	4	1	p	0.47462000000000004
711.4378	0.0	+	75	verb	list	3	11	match	petit	4	1	p	0.47462000000000004
711.8376000000001	0.0	+	75	verb	list	3	12	match	petit	4	1	p	0.47462000000000004
713.8367000000001	0.0	PETIT	75	verb	list	3	13	match	petit	4	1	p	0.47462000000000004
714.3698	0.0	+	75	verb	list	3	14	match	petit	4	1	p	0.47462000000000004
714.3113000000001	0.0	[response]	75	verb	list	3	15	match	petit	4	1	p	0.47462000000000004
716.2356000000001	0.0	+	76	noun	list	1	1	nomatch	tard	-1	1	y	0.35927
716.7854000000001	0.2	jqr	76	noun	list	1	2	nomatch	tard	-1	1	y	0.35927
716.9854	0.0	+	76	noun	list	1	3	nomatch	tard	-1	1	y	0.35927
717.3851000000001	0.2	ntmd	76	noun	list	1	4	nomatch	tard	-1	1	y	0.35927
717.585	0.0	+	76	noun	list	1	5	nomatch	tard	-1	1	y	0.35927
717.9848000000001	0.2	cpqb	76	noun	list	1	6	nomatch	tard	-1	1	y	0.35927
718.1847	0.0	+	76	noun	list	1	7	nomatch	tard	-1	1	y	0.35927
718.5846	0.2	lwrtjf	76	noun	list	1	8	nomatch	tard	-1	1	y	0.35927
718.7845000000001	0.0	+	76	noun	list	1	9	nomatch	tard	-1	1	y	0.35927
719.1843	0.2	vite	76	noun	list	1	10	nomatch	tard	-1	1	y	0.35927
719.3842000000001	0.0	+	76	noun	list	1	11	nomatch	tard	-1	1	y	0.35927
719.7840000000001	0.0	+	76	noun	list	1	12	nomatch	tard	-1	1	y	0.35927
721.7998	0.0	TARD	76	noun	list	1	13	nomatch	tard	-1	1	y	0.35927
722.2162000000001	0.0	+	76	noun	list	1	14	nomatch	tard	-1	1	y	0.35927
722.1590000000001	0.0	[response]	76	noun	list	1	15	nomatch	tard	-1	1	y	0.35927
724.1987	0.0	+	77	verb	phrase	2	1	match	plus	4	1	p	0.37387000000000004
724.7484000000001	0.2	kzght	77	verb	phrase	2	2	match	plus	4	1	p	0.37387000000000004
724.9483	0.0	+	77	verb	phrase	2	3	match	plus	4	1	p	0.37387000000000004
725.3481	0.2	cdsf	77	verb	phrase	2	4	match	plus	4	1	p	0.37387000000000004
725.5481000000001	0.0	+	77	verb	phrase	2	5	match	plus	4	1	p	0.37387000000000004
725.9479	0.2	vh	77	verb	phrase	2	6	match	plus	4	1	p	0.37387000000000004
726.1478000000001	0.0	+	77	verb	phrase	2	7	match	plus	4	1	p	0.37387000000000004
726.5476000000001	0.2	plus	77	verb	phrase	2	8	match	plus	4	1	p	0.37387000000000004
726.7475000000001	0.0	+	77	verb	phrase	2	9	match	plus	4	1	p	0.37387000000000004
727.1473000000001	0.2	nager	77	verb	phrase	2	10	match	plus	4	1	p	0.37387000000000004
727.3472	0.0	+	77	verb	phrase	2	11	match	plus	4	1	p	0.37387000000000004
727.7471	0.0	+	77	verb	phrase	2	12	match	plus	4	1	p	0.37387000000000004
729.7462	0.0	PLUS	77	verb	phrase	2	13	match	plus	4	1	p	0.37387000000000004
730.1793	0.0	+	77	verb	phrase	2	14	match	plus	4	1	p	0.37387000000000004
730.12	0.0	[response]	77	verb	phrase	2	15	match	plus	4	1	p	0.37387000000000004
732.1451000000001	0.0	+	78	verb	phrase	2	1	match	trop	4	1	p	0.40219
732.6948000000001	0.2	sbwrv	78	verb	phrase	2	2	match	trop	4	1	p	0.40219
732.8947000000001	0.0	+	78	verb	phrase	2	3	match	trop	4	1	p	0.40219
733.2946000000001	0.2	gbpr	78	verb	phrase	2	4	match	trop	4	1	p	0.40219
733.4945	0.0	+	78	verb	phrase	2	5	match	trop	4	1	p	0.40219
733.8943	0.2	cpqb	78	verb	phrase	2	6	match	trop	4	1	p	0.40219
734.0942	0.0	+	78	verb	phrase	2	7	match	trop	4	1	p	0.40219
734.494	0.2	trop	78	verb	phrase	2	8	match	trop	4	1	p	0.40219
734.6939000000001	0.0	+	78	verb	phrase	2	9	match	trop	4	1	p	0.40219
735.0937	0.2	galoper	78	verb	phrase	2	10	match	trop	4	1	p	0.40219
735.2936000000001	0.0	+	78	verb	phrase	2	11	match	trop	4	1	p	0.40219
735.6935000000001	0.0	+	78	verb	phrase	2	12	match	trop	4	1	p	0.40219
737.6926000000001	0.0	TROP	78	verb	phrase	2	13	match	trop	4	1	p	0.40219
738.1590000000001	0.0	+	78	verb	phrase	2	14	match	trop	4	1	p	0.40219
738.0947000000001	0.0	[response]	78	verb	phrase	2	15	match	trop	4	1	p	0.40219
748.0878	0.0	+	79	noun	list	3	1	match	cendrier	4	1	p	0.40004
748.6376	0.2	kfghz	79	noun	list	3	2	match	cendrier	4	1	p	0.40004
748.8375000000001	0.0	+	79	noun	list	3	3	match	cendrier	4	1	p	0.40004
749.2373	0.2	vzck	79	noun	list	3	4	match	cendrier	4	1	p	0.40004
749.4372000000001	0.0	+	79	noun	list	3	5	match	cendrier	4	1	p	0.40004
749.8371000000001	0.2	doit	79	noun	list	3	6	match	cendrier	4	1	p	0.40004
750.037	0.0	+	79	noun	list	3	7	match	cendrier	4	1	p	0.40004
750.4368000000001	0.2	cendrier	79	noun	list	3	8	match	cendrier	4	1	p	0.40004
750.6367	0.0	+	79	noun	list	3	9	match	cendrier	4	1	p	0.40004
751.0365	0.2	tôt	79	noun	list	3	10	match	cendrier	4	1	p	0.40004
751.2364	0.0	+	79	noun	list	3	11	match	cendrier	4	1	p	0.40004
751.6362	0.0	+	79	noun	list	3	12	match	cendrier	4	1	p	0.40004
753.6353	0.0	CENDRIER	79	noun	list	3	13	match	cendrier	4	1	p	0.40004
754.1018	0.0	+	79	noun	list	3	14	match	cendrier	4	1	p	0.40004
754.0354000000001	0.0	[response]	79	noun	list	3	15	match	cendrier	4	1	p	0.40004
756.0342	0.0	+	80	verb	list	3	1	nomatch	va	-1	1	y	0.58645
756.5840000000001	0.2	scwpkt	80	verb	list	3	2	nomatch	va	-1	1	y	0.58645
756.7839	0.0	+	80	verb	list	3	3	nomatch	va	-1	1	y	0.58645
757.1837	0.2	cdsf	80	verb	list	3	4	nomatch	va	-1	1	y	0.58645
757.3836	0.0	+	80	verb	list	3	5	nomatch	va	-1	1	y	0.58645
757.8001	0.2	son	80	verb	list	3	6	nomatch	va	-1	1	y	0.58645
758.0	0.0	+	80	verb	list	3	7	nomatch	va	-1	1	y	0.58645
758.3998	0.2	parader	80	verb	list	3	8	nomatch	va	-1	1	y	0.58645
758.5997000000001	0.0	+	80	verb	list	3	9	nomatch	va	-1	1	y	0.58645
758.9996000000001	0.2	bleu	80	verb	list	3	10	nomatch	va	-1	1	y	0.58645
759.1995000000001	0.0	+	80	verb	list	3	11	nomatch	va	-1	1	y	0.58645
759.5993000000001	0.0	+	80	verb	list	3	12	nomatch	va	-1	1	y	0.58645
761.5984000000001	0.0	VA	80	verb	list	3	13	nomatch	va	-1	1	y	0.58645
762.2481	0.0	+	80	verb	list	3	14	nomatch	va	-1	1	y	0.58645
763.9973	0.0	+	80	verb	list	3	15	nomatch	va	-1	1	y	0.58645
765.0135	0.0	+	80	verb	list	3	16	nomatch	va	-1	1	y	0.58645
765.1135	0.0	+	80	verb	list	3	17	nomatch	va	-1	1	y	0.58645
766.5128000000001	0.0	+	80	verb	list	3	18	nomatch	va	-1	1	y	0.58645
766.6128	0.0	+	80	verb	list	3	19	nomatch	va	-1	1	y	0.58645
768.0122	0.0	+	80	verb	list	3	20	nomatch	va	-1	1	y	0.58645
768.1121	0.0	+	80	verb	list	3	21	nomatch	va	-1	1	y	0.58645
769.5115000000001	0.0	+	80	verb	list	3	22	nomatch	va	-1	1	y	0.58645
769.6114	0.0	+	80	verb	list	3	23	nomatch	va	-1	1	y	0.58645
771.0108	0.0	+	80	verb	list	3	24	nomatch	va	-1	1	y	0.58645
771.1107000000001	0.0	+	80	verb	list	3	25	nomatch	va	-1	1	y	0.58645
772.5101000000001	0.0	+	80	verb	list	3	26	nomatch	va	-1	1	y	0.58645
772.6101000000001	0.0	+	80	verb	list	3	27	nomatch	va	-1	1	y	0.58645
774.0094	0.0	+	80	verb	list	3	28	nomatch	va	-1	1	y	0.58645
774.1094	0.0	+	80	verb	list	3	29	nomatch	va	-1	1	y	0.58645
775.5088000000001	0.0	+	80	verb	list	3	30	nomatch	va	-1	1	y	0.58645
775.6087	0.0	+	80	verb	list	3	31	nomatch	va	-1	1	y	0.58645
777.0081	0.0	+	80	verb	list	3	32	nomatch	va	-1	1	y	0.58645
777.1080000000001	0.0	+	80	verb	list	3	33	nomatch	va	-1	1	y	0.58645
778.5074000000001	0.0	+	80	verb	list	3	34	nomatch	va	-1	1	y	0.58645
778.6073	0.0	+	80	verb	list	3	35	nomatch	va	-1	1	y	0.58645
788.1697	0.0	+	80	verb	list	3	36	nomatch	va	-1	1	y	0.58645
762.1848	0.0	[response]	80	verb	list	3	37	nomatch	va	-1	1	y	0.58645
