onset	duration	stim	trial_number	trial_type	trial_structure	trial_length	sequential_position	probe_type	probe	probe_position	response_correct	response_key	response_time
0.061700000000001864	0.0	+	1	noun	list	4	1	nomatch	peut	-1	1	y	0.57465
0.5448999999999984	0.2	xczjnh	1	noun	list	4	2	nomatch	peut	-1	1	y	0.57465
0.7447999999999979	0.0	+	1	noun	list	4	3	nomatch	peut	-1	1	y	0.57465
1.144600000000004	0.2	avec	1	noun	list	4	4	nomatch	peut	-1	1	y	0.57465
1.3445000000000036	0.0	+	1	noun	list	4	5	nomatch	peut	-1	1	y	0.57465
1.7443000000000026	0.2	doit	1	noun	list	4	6	nomatch	peut	-1	1	y	0.57465
1.9442000000000021	0.0	+	1	noun	list	4	7	nomatch	peut	-1	1	y	0.57465
2.344000000000001	0.2	tablier	1	noun	list	4	8	nomatch	peut	-1	1	y	0.57465
2.544000000000004	0.0	+	1	noun	list	4	9	nomatch	peut	-1	1	y	0.57465
2.943800000000003	0.2	vite	1	noun	list	4	10	nomatch	peut	-1	1	y	0.57465
3.1437000000000026	0.0	+	1	noun	list	4	11	nomatch	peut	-1	1	y	0.57465
3.5435000000000016	0.0	+	1	noun	list	4	12	nomatch	peut	-1	1	y	0.57465
5.5426	0.0	PEUT	1	noun	list	4	13	nomatch	peut	-1	1	y	0.57465
6.175600000000003	0.0	+	1	noun	list	4	14	nomatch	peut	-1	1	y	0.57465
6.1173	0.0	[response]	1	noun	list	4	15	nomatch	peut	-1	1	y	0.57465
7.941499999999998	0.0	+	2	noun	list	1	1	match	tôt	5	1	p	0.50759
8.491300000000003	0.2	jnwdqs	2	noun	list	1	2	match	tôt	5	1	p	0.50759
8.691200000000002	0.0	+	2	noun	list	1	3	match	tôt	5	1	p	0.50759
9.091000000000001	0.2	vzck	2	noun	list	1	4	match	tôt	5	1	p	0.50759
9.2909	0.0	+	2	noun	list	1	5	match	tôt	5	1	p	0.50759
9.6907	0.2	vh	2	noun	list	1	6	match	tôt	5	1	p	0.50759
9.8906	0.0	+	2	noun	list	1	7	match	tôt	5	1	p	0.50759
10.290399999999998	0.2	nwbfdgm	2	noun	list	1	8	match	tôt	5	1	p	0.50759
10.490400000000001	0.0	+	2	noun	list	1	9	match	tôt	5	1	p	0.50759
10.8902	0.2	tôt	2	noun	list	1	10	match	tôt	5	1	p	0.50759
11.0901	0.0	+	2	noun	list	1	11	match	tôt	5	1	p	0.50759
11.489899999999999	0.0	+	2	noun	list	1	12	match	tôt	5	1	p	0.50759
13.488999999999997	0.0	TÔT	2	noun	list	1	13	match	tôt	5	1	p	0.50759
14.055399999999999	0.0	+	2	noun	list	1	14	match	tôt	5	1	p	0.50759
13.996600000000008	0.0	[response]	2	noun	list	1	15	match	tôt	5	1	p	0.50759
15.887899999999995	0.0	+	3	noun	phrase	4	1	nomatch	son	-1	1	y	0.66179
16.4377	0.2	tnhmb	3	noun	phrase	4	2	nomatch	son	-1	1	y	0.66179
16.6376	0.0	+	3	noun	phrase	4	3	nomatch	son	-1	1	y	0.66179
17.037399999999998	0.2	sans	3	noun	phrase	4	4	nomatch	son	-1	1	y	0.66179
17.237299999999998	0.0	+	3	noun	phrase	4	5	nomatch	son	-1	1	y	0.66179
17.637099999999997	0.2	leur	3	noun	phrase	4	6	nomatch	son	-1	1	y	0.66179
17.836999999999996	0.0	+	3	noun	phrase	4	7	nomatch	son	-1	1	y	0.66179
18.236799999999995	0.2	nouveau	3	noun	phrase	4	8	nomatch	son	-1	1	y	0.66179
18.436699999999995	0.0	+	3	noun	phrase	4	9	nomatch	son	-1	1	y	0.66179
18.836599999999997	0.2	grenier	3	noun	phrase	4	10	nomatch	son	-1	1	y	0.66179
19.036499999999997	0.0	+	3	noun	phrase	4	11	nomatch	son	-1	1	y	0.66179
19.436299999999996	0.0	+	3	noun	phrase	4	12	nomatch	son	-1	1	y	0.66179
21.435399999999994	0.0	SON	3	noun	phrase	4	13	nomatch	son	-1	1	y	0.66179
22.151699999999998	0.0	+	3	noun	phrase	4	14	nomatch	son	-1	1	y	0.66179
22.097200000000008	0.0	[response]	3	noun	phrase	4	15	nomatch	son	-1	1	y	0.66179
23.834300000000006	0.0	+	4	noun	list	3	1	nomatch	plus	-1	1	y	0.5046
24.384099999999997	0.2	gdb	4	noun	list	3	2	nomatch	plus	-1	1	y	0.5046
24.583999999999996	0.0	+	4	noun	list	3	3	nomatch	plus	-1	1	y	0.5046
24.983799999999995	0.2	vzck	4	noun	list	3	4	nomatch	plus	-1	1	y	0.5046
25.183699999999995	0.0	+	4	noun	list	3	5	nomatch	plus	-1	1	y	0.5046
25.583500000000008	0.2	va	4	noun	list	3	6	nomatch	plus	-1	1	y	0.5046
25.800100000000008	0.0	+	4	noun	list	3	7	nomatch	plus	-1	1	y	0.5046
26.199900000000007	0.2	voilier	4	noun	list	3	8	nomatch	plus	-1	1	y	0.5046
26.399800000000006	0.0	+	4	noun	list	3	9	nomatch	plus	-1	1	y	0.5046
26.799600000000005	0.2	loin	4	noun	list	3	10	nomatch	plus	-1	1	y	0.5046
26.999500000000005	0.0	+	4	noun	list	3	11	nomatch	plus	-1	1	y	0.5046
27.399300000000004	0.0	+	4	noun	list	3	12	nomatch	plus	-1	1	y	0.5046
29.398400000000002	0.0	PLUS	4	noun	list	3	13	nomatch	plus	-1	1	y	0.5046
29.964800000000004	0.0	+	4	noun	list	3	14	nomatch	plus	-1	1	y	0.5046
29.903000000000013	0.0	[response]	4	noun	list	3	15	nomatch	plus	-1	1	y	0.5046
31.797400000000003	0.0	+	5	verb	list	4	1	match	peut	3	1	p	0.58419
32.347100000000005	0.2	rgvm	5	verb	list	4	2	match	peut	3	1	p	0.58419
32.547000000000004	0.0	+	5	verb	list	4	3	match	peut	3	1	p	0.58419
32.9468	0.2	pour	5	verb	list	4	4	match	peut	3	1	p	0.58419
33.1467	0.0	+	5	verb	list	4	5	match	peut	3	1	p	0.58419
33.546600000000005	0.2	peut	5	verb	list	4	6	match	peut	3	1	p	0.58419
33.746500000000005	0.0	+	5	verb	list	4	7	match	peut	3	1	p	0.58419
34.146300000000004	0.2	vieux	5	verb	list	4	8	match	peut	3	1	p	0.58419
34.3462	0.0	+	5	verb	list	4	9	match	peut	3	1	p	0.58419
34.746	0.2	chasser	5	verb	list	4	10	match	peut	3	1	p	0.58419
34.9459	0.0	+	5	verb	list	4	11	match	peut	3	1	p	0.58419
35.3457	0.0	+	5	verb	list	4	12	match	peut	3	1	p	0.58419
37.3448	0.0	PEUT	5	verb	list	4	13	match	peut	3	1	p	0.58419
37.9946	0.0	+	5	verb	list	4	14	match	peut	3	1	p	0.58419
37.928999999999995	0.0	[response]	5	verb	list	4	15	match	peut	3	1	p	0.58419
47.740199999999994	0.0	+	6	verb	list	3	1	match	leur	3	1	p	0.43764
48.289899999999996	0.2	gdhkvwb	6	verb	list	3	2	match	leur	3	1	p	0.43764
48.489799999999995	0.0	+	6	verb	list	3	3	match	leur	3	1	p	0.43764
48.889599999999994	0.2	mrn	6	verb	list	3	4	match	leur	3	1	p	0.43764
49.08950000000001	0.0	+	6	verb	list	3	5	match	leur	3	1	p	0.43764
49.489799999999995	0.2	leur	6	verb	list	3	6	match	leur	3	1	p	0.43764
49.689299999999996	0.0	+	6	verb	list	3	7	match	leur	3	1	p	0.43764
50.089099999999995	0.2	danser	6	verb	list	3	8	match	leur	3	1	p	0.43764
50.288999999999994	0.0	+	6	verb	list	3	9	match	leur	3	1	p	0.43764
50.68880000000001	0.2	noir	6	verb	list	3	10	match	leur	3	1	p	0.43764
50.88870000000001	0.0	+	6	verb	list	3	11	match	leur	3	1	p	0.43764
51.288500000000006	0.0	+	6	verb	list	3	12	match	leur	3	1	p	0.43764
53.287600000000005	0.0	LEUR	6	verb	list	3	13	match	leur	3	1	p	0.43764
53.7874	0.0	+	6	verb	list	3	14	match	leur	3	1	p	0.43764
53.7253	0.0	[response]	6	verb	list	3	15	match	leur	3	1	p	0.43764
55.6865	0.0	+	7	noun	phrase	1	1	match	boîtier	5	1	p	0.45915
56.23630000000001	0.2	bvjrkp	7	noun	phrase	1	2	match	boîtier	5	1	p	0.45915
56.43620000000001	0.0	+	7	noun	phrase	1	3	match	boîtier	5	1	p	0.45915
56.836099999999995	0.2	ntmd	7	noun	phrase	1	4	match	boîtier	5	1	p	0.45915
57.035900000000005	0.0	+	7	noun	phrase	1	5	match	boîtier	5	1	p	0.45915
57.435700000000004	0.2	bqm	7	noun	phrase	1	6	match	boîtier	5	1	p	0.45915
57.63570000000001	0.0	+	7	noun	phrase	1	7	match	boîtier	5	1	p	0.45915
58.035500000000006	0.2	wdhpv	7	noun	phrase	1	8	match	boîtier	5	1	p	0.45915
58.235400000000006	0.0	+	7	noun	phrase	1	9	match	boîtier	5	1	p	0.45915
58.635200000000005	0.2	boîtier	7	noun	phrase	1	10	match	boîtier	5	1	p	0.45915
58.835100000000004	0.0	+	7	noun	phrase	1	11	match	boîtier	5	1	p	0.45915
59.2349	0.0	+	7	noun	phrase	1	12	match	boîtier	5	1	p	0.45915
61.234	0.0	BOÎTIER	7	noun	phrase	1	13	match	boîtier	5	1	p	0.45915
61.750400000000006	0.0	+	7	noun	phrase	1	14	match	boîtier	5	1	p	0.45915
61.6932	0.0	[response]	7	noun	phrase	1	15	match	boîtier	5	1	p	0.45915
63.6496	0.0	+	8	verb	list	2	1	match	petit	4	1	p	0.50565
64.1994	0.2	ztgpr	8	verb	list	2	2	match	petit	4	1	p	0.50565
64.39920000000001	0.0	+	8	verb	list	2	3	match	petit	4	1	p	0.50565
64.79910000000001	0.2	ptkf	8	verb	list	2	4	match	petit	4	1	p	0.50565
64.999	0.0	+	8	verb	list	2	5	match	petit	4	1	p	0.50565
65.3988	0.2	hljn	8	verb	list	2	6	match	petit	4	1	p	0.50565
65.59870000000001	0.0	+	8	verb	list	2	7	match	petit	4	1	p	0.50565
65.9985	0.2	petit	8	verb	list	2	8	match	petit	4	1	p	0.50565
66.19839999999999	0.0	+	8	verb	list	2	9	match	petit	4	1	p	0.50565
66.5983	0.2	rouler	8	verb	list	2	10	match	petit	4	1	p	0.50565
66.79820000000001	0.0	+	8	verb	list	2	11	match	petit	4	1	p	0.50565
67.19800000000001	0.0	+	8	verb	list	2	12	match	petit	4	1	p	0.50565
69.1971	0.0	PETIT	8	verb	list	2	13	match	petit	4	1	p	0.50565
69.7635	0.0	+	8	verb	list	2	14	match	petit	4	1	p	0.50565
69.7027	0.0	[response]	8	verb	list	2	15	match	petit	4	1	p	0.50565
71.596	0.0	+	9	noun	phrase	1	1	match	nouveau	5	1	p	0.42659
72.14580000000001	0.2	vlxmrpz	9	noun	phrase	1	2	match	nouveau	5	1	p	0.42659
72.34559999999999	0.0	+	9	noun	phrase	1	3	match	nouveau	5	1	p	0.42659
72.74549999999999	0.2	ntmd	9	noun	phrase	1	4	match	nouveau	5	1	p	0.42659
72.9454	0.0	+	9	noun	phrase	1	5	match	nouveau	5	1	p	0.42659
73.3452	0.2	bwgs	9	noun	phrase	1	6	match	nouveau	5	1	p	0.42659
73.54509999999999	0.0	+	9	noun	phrase	1	7	match	nouveau	5	1	p	0.42659
73.94489999999999	0.2	mcbnkh	9	noun	phrase	1	8	match	nouveau	5	1	p	0.42659
74.1448	0.0	+	9	noun	phrase	1	9	match	nouveau	5	1	p	0.42659
74.5447	0.2	nouveau	9	noun	phrase	1	10	match	nouveau	5	1	p	0.42659
74.74459999999999	0.0	+	9	noun	phrase	1	11	match	nouveau	5	1	p	0.42659
75.14439999999999	0.0	+	9	noun	phrase	1	12	match	nouveau	5	1	p	0.42659
77.14349999999999	0.0	NOUVEAU	9	noun	phrase	1	13	match	nouveau	5	1	p	0.42659
77.6266	0.0	+	9	noun	phrase	1	14	match	nouveau	5	1	p	0.42659
77.5701	0.0	[response]	9	noun	phrase	1	15	match	nouveau	5	1	p	0.42659
79.54239999999999	0.0	+	10	noun	phrase	4	1	nomatch	va	-1	1	y	0.57534
80.09219999999999	0.2	wbrfzv	10	noun	phrase	4	2	nomatch	va	-1	1	y	0.57534
80.2921	0.0	+	10	noun	phrase	4	3	nomatch	va	-1	1	y	0.57534
80.6919	0.2	dans	10	noun	phrase	4	4	nomatch	va	-1	1	y	0.57534
80.89179999999999	0.0	+	10	noun	phrase	4	5	nomatch	va	-1	1	y	0.57534
81.29159999999999	0.2	son	10	noun	phrase	4	6	nomatch	va	-1	1	y	0.57534
81.4915	0.0	+	10	noun	phrase	4	7	nomatch	va	-1	1	y	0.57534
81.8913	0.2	petit	10	noun	phrase	4	8	nomatch	va	-1	1	y	0.57534
82.09119999999999	0.0	+	10	noun	phrase	4	9	nomatch	va	-1	1	y	0.57534
82.49099999999999	0.2	rocher	10	noun	phrase	4	10	nomatch	va	-1	1	y	0.57534
82.691	0.0	+	10	noun	phrase	4	11	nomatch	va	-1	1	y	0.57534
83.0908	0.0	+	10	noun	phrase	4	12	nomatch	va	-1	1	y	0.57534
85.0899	0.0	VA	10	noun	phrase	4	13	nomatch	va	-1	1	y	0.57534
85.72289999999998	0.0	+	10	noun	phrase	4	14	nomatch	va	-1	1	y	0.57534
85.6652	0.0	[response]	10	noun	phrase	4	15	nomatch	va	-1	1	y	0.57534
87.4888	0.0	+	11	noun	phrase	3	1	nomatch	vieux	-1	1	y	0.8533100000000001
88.0386	0.2	rwn	11	noun	phrase	3	2	nomatch	vieux	-1	1	y	0.8533100000000001
88.23849999999999	0.0	+	11	noun	phrase	3	3	nomatch	vieux	-1	1	y	0.8533100000000001
88.63829999999999	0.2	psvm	11	noun	phrase	3	4	nomatch	vieux	-1	1	y	0.8533100000000001
88.8382	0.0	+	11	noun	phrase	3	5	nomatch	vieux	-1	1	y	0.8533100000000001
89.238	0.2	mon	11	noun	phrase	3	6	nomatch	vieux	-1	1	y	0.8533100000000001
89.43789999999998	0.0	+	11	noun	phrase	3	7	nomatch	vieux	-1	1	y	0.8533100000000001
89.83769999999998	0.2	grand	11	noun	phrase	3	8	nomatch	vieux	-1	1	y	0.8533100000000001
90.0376	0.0	+	11	noun	phrase	3	9	nomatch	vieux	-1	1	y	0.8533100000000001
90.4375	0.2	boîtier	11	noun	phrase	3	10	nomatch	vieux	-1	1	y	0.8533100000000001
90.63739999999999	0.0	+	11	noun	phrase	3	11	nomatch	vieux	-1	1	y	0.8533100000000001
91.03719999999998	0.0	+	11	noun	phrase	3	12	nomatch	vieux	-1	1	y	0.8533100000000001
93.03629999999998	0.0	VIEUX	11	noun	phrase	3	13	nomatch	vieux	-1	1	y	0.8533100000000001
93.95249999999999	0.0	+	11	noun	phrase	3	14	nomatch	vieux	-1	1	y	0.8533100000000001
93.8896	0.0	[response]	11	noun	phrase	3	15	nomatch	vieux	-1	1	y	0.8533100000000001
95.43519999999998	0.0	+	12	verb	list	1	1	nomatch	nouveau	-1	1	y	0.49496000000000007
95.98489999999998	0.2	mrvnpk	12	verb	list	1	2	nomatch	nouveau	-1	1	y	0.49496000000000007
96.1848	0.0	+	12	verb	list	1	3	nomatch	nouveau	-1	1	y	0.49496000000000007
96.5847	0.2	wlmq	12	verb	list	1	4	nomatch	nouveau	-1	1	y	0.49496000000000007
96.78459999999998	0.0	+	12	verb	list	1	5	nomatch	nouveau	-1	1	y	0.49496000000000007
97.18439999999998	0.2	bwgs	12	verb	list	1	6	nomatch	nouveau	-1	1	y	0.49496000000000007
97.3843	0.0	+	12	verb	list	1	7	nomatch	nouveau	-1	1	y	0.49496000000000007
97.7841	0.2	jwdcmvn	12	verb	list	1	8	nomatch	nouveau	-1	1	y	0.49496000000000007
97.98399999999998	0.0	+	12	verb	list	1	9	nomatch	nouveau	-1	1	y	0.49496000000000007
98.38389999999998	0.2	rouge	12	verb	list	1	10	nomatch	nouveau	-1	1	y	0.49496000000000007
98.5838	0.0	+	12	verb	list	1	11	nomatch	nouveau	-1	1	y	0.49496000000000007
98.9836	0.0	+	12	verb	list	1	12	nomatch	nouveau	-1	1	y	0.49496000000000007
100.9993	0.0	NOUVEAU	12	verb	list	1	13	nomatch	nouveau	-1	1	y	0.49496000000000007
101.54909999999998	0.0	+	12	verb	list	1	14	nomatch	nouveau	-1	1	y	0.49496000000000007
101.49429999999998	0.0	[response]	12	verb	list	1	15	nomatch	nouveau	-1	1	y	0.49496000000000007
111.3946	0.0	+	13	noun	phrase	2	1	nomatch	parader	-1	1	y	0.50869
111.9444	0.2	frpgwdb	13	noun	phrase	2	2	nomatch	parader	-1	1	y	0.50869
112.14429999999999	0.0	+	13	noun	phrase	2	3	nomatch	parader	-1	1	y	0.50869
112.54409999999999	0.2	vzck	13	noun	phrase	2	4	nomatch	parader	-1	1	y	0.50869
112.744	0.0	+	13	noun	phrase	2	5	nomatch	parader	-1	1	y	0.50869
113.1438	0.2	gbl	13	noun	phrase	2	6	nomatch	parader	-1	1	y	0.50869
113.34379999999999	0.0	+	13	noun	phrase	2	7	nomatch	parader	-1	1	y	0.50869
113.74359999999999	0.2	petit	13	noun	phrase	2	8	nomatch	parader	-1	1	y	0.50869
113.9435	0.0	+	13	noun	phrase	2	9	nomatch	parader	-1	1	y	0.50869
114.3433	0.2	cendrier	13	noun	phrase	2	10	nomatch	parader	-1	1	y	0.50869
114.54319999999998	0.0	+	13	noun	phrase	2	11	nomatch	parader	-1	1	y	0.50869
114.94299999999998	0.0	+	13	noun	phrase	2	12	nomatch	parader	-1	1	y	0.50869
116.94209999999998	0.0	PARADER	13	noun	phrase	2	13	nomatch	parader	-1	1	y	0.50869
117.5085	0.0	+	13	noun	phrase	2	14	nomatch	parader	-1	1	y	0.50869
117.45080000000002	0.0	[response]	13	noun	phrase	2	15	nomatch	parader	-1	1	y	0.50869
119.34100000000001	0.0	+	14	noun	list	3	1	nomatch	nouveau	-1	1	y	0.50536
119.89079999999998	0.2	bkvnr	14	noun	list	3	2	nomatch	nouveau	-1	1	y	0.50536
120.0907	0.0	+	14	noun	list	3	3	nomatch	nouveau	-1	1	y	0.50536
120.4905	0.2	ntmd	14	noun	list	3	4	nomatch	nouveau	-1	1	y	0.50536
120.69039999999998	0.0	+	14	noun	list	3	5	nomatch	nouveau	-1	1	y	0.50536
121.09019999999998	0.2	doit	14	noun	list	3	6	nomatch	nouveau	-1	1	y	0.50536
121.2901	0.0	+	14	noun	list	3	7	nomatch	nouveau	-1	1	y	0.50536
121.69	0.2	grenier	14	noun	list	3	8	nomatch	nouveau	-1	1	y	0.50536
121.88989999999998	0.0	+	14	noun	list	3	9	nomatch	nouveau	-1	1	y	0.50536
122.28969999999998	0.2	tard	14	noun	list	3	10	nomatch	nouveau	-1	1	y	0.50536
122.4896	0.0	+	14	noun	list	3	11	nomatch	nouveau	-1	1	y	0.50536
122.8894	0.0	+	14	noun	list	3	12	nomatch	nouveau	-1	1	y	0.50536
124.8885	0.0	NOUVEAU	14	noun	list	3	13	nomatch	nouveau	-1	1	y	0.50536
125.45489999999998	0.0	+	14	noun	list	3	14	nomatch	nouveau	-1	1	y	0.50536
125.3939	0.0	[response]	14	noun	list	3	15	nomatch	nouveau	-1	1	y	0.50536
135.28379999999999	0.0	+	15	verb	list	1	1	nomatch	cendrier	-1	1	y	0.5542700000000002
135.8338	0.2	znvwtc	15	verb	list	1	2	nomatch	cendrier	-1	1	y	0.5542700000000002
136.0336	0.0	+	15	verb	list	1	3	nomatch	cendrier	-1	1	y	0.5542700000000002
136.44989999999999	0.2	kgzb	15	verb	list	1	4	nomatch	cendrier	-1	1	y	0.5542700000000002
136.6498	0.0	+	15	verb	list	1	5	nomatch	cendrier	-1	1	y	0.5542700000000002
137.0497	0.2	vh	15	verb	list	1	6	nomatch	cendrier	-1	1	y	0.5542700000000002
137.2496	0.0	+	15	verb	list	1	7	nomatch	cendrier	-1	1	y	0.5542700000000002
137.64939999999999	0.2	nbcqh	15	verb	list	1	8	nomatch	cendrier	-1	1	y	0.5542700000000002
137.8493	0.0	+	15	verb	list	1	9	nomatch	cendrier	-1	1	y	0.5542700000000002
138.2491	0.2	chasser	15	verb	list	1	10	nomatch	cendrier	-1	1	y	0.5542700000000002
138.44899999999998	0.0	+	15	verb	list	1	11	nomatch	cendrier	-1	1	y	0.5542700000000002
138.8489	0.0	+	15	verb	list	1	12	nomatch	cendrier	-1	1	y	0.5542700000000002
140.84789999999998	0.0	CENDRIER	15	verb	list	1	13	nomatch	cendrier	-1	1	y	0.5542700000000002
141.46429999999998	0.0	+	15	verb	list	1	14	nomatch	cendrier	-1	1	y	0.5542700000000002
141.4022	0.0	[response]	15	verb	list	1	15	nomatch	cendrier	-1	1	y	0.5542700000000002
143.24689999999998	0.0	+	16	noun	list	1	1	nomatch	tard	-1	1	y	0.44146
143.79659999999998	0.2	gqzvkp	16	noun	list	1	2	nomatch	tard	-1	1	y	0.44146
143.9965	0.0	+	16	noun	list	1	3	nomatch	tard	-1	1	y	0.44146
144.3963	0.2	gbpr	16	noun	list	1	4	nomatch	tard	-1	1	y	0.44146
144.59619999999998	0.0	+	16	noun	list	1	5	nomatch	tard	-1	1	y	0.44146
144.99609999999998	0.2	gbl	16	noun	list	1	6	nomatch	tard	-1	1	y	0.44146
145.196	0.0	+	16	noun	list	1	7	nomatch	tard	-1	1	y	0.44146
145.5958	0.2	hcpnv	16	noun	list	1	8	nomatch	tard	-1	1	y	0.44146
145.79569999999998	0.0	+	16	noun	list	1	9	nomatch	tard	-1	1	y	0.44146
146.19549999999998	0.2	voilier	16	noun	list	1	10	nomatch	tard	-1	1	y	0.44146
146.3954	0.0	+	16	noun	list	1	11	nomatch	tard	-1	1	y	0.44146
146.7952	0.0	+	16	noun	list	1	12	nomatch	tard	-1	1	y	0.44146
148.7943	0.0	TARD	16	noun	list	1	13	nomatch	tard	-1	1	y	0.44146
149.2941	0.0	+	16	noun	list	1	14	nomatch	tard	-1	1	y	0.44146
149.23579999999998	0.0	[response]	16	noun	list	1	15	nomatch	tard	-1	1	y	0.44146
151.1933	0.0	+	17	noun	phrase	2	1	match	grenier	5	1	p	0.64501
151.743	0.2	xdvthj	17	noun	phrase	2	2	match	grenier	5	1	p	0.64501
151.94289999999998	0.0	+	17	noun	phrase	2	3	match	grenier	5	1	p	0.64501
152.3427	0.2	ptkf	17	noun	phrase	2	4	match	grenier	5	1	p	0.64501
152.5427	0.0	+	17	noun	phrase	2	5	match	grenier	5	1	p	0.64501
152.9426	0.2	bqm	17	noun	phrase	2	6	match	grenier	5	1	p	0.64501
153.14239999999998	0.0	+	17	noun	phrase	2	7	match	grenier	5	1	p	0.64501
153.5422	0.2	beau	17	noun	phrase	2	8	match	grenier	5	1	p	0.64501
153.7421	0.0	+	17	noun	phrase	2	9	match	grenier	5	1	p	0.64501
154.1419	0.2	grenier	17	noun	phrase	2	10	match	grenier	5	1	p	0.64501
154.3418	0.0	+	17	noun	phrase	2	11	match	grenier	5	1	p	0.64501
154.7416	0.0	+	17	noun	phrase	2	12	match	grenier	5	1	p	0.64501
156.7408	0.0	GRENIER	17	noun	phrase	2	13	match	grenier	5	1	p	0.64501
157.44039999999998	0.0	+	17	noun	phrase	2	14	match	grenier	5	1	p	0.64501
157.38580000000002	0.0	[response]	17	noun	phrase	2	15	match	grenier	5	1	p	0.64501
159.1397	0.0	+	18	noun	list	4	1	nomatch	cendrier	-1	1	y	0.64673
159.6894	0.2	dkjz	18	noun	list	4	2	nomatch	cendrier	-1	1	y	0.64673
159.8893	0.0	+	18	noun	list	4	3	nomatch	cendrier	-1	1	y	0.64673
160.2891	0.2	avec	18	noun	list	4	4	nomatch	cendrier	-1	1	y	0.64673
160.4891	0.0	+	18	noun	list	4	5	nomatch	cendrier	-1	1	y	0.64673
160.8889	0.2	va	18	noun	list	4	6	nomatch	cendrier	-1	1	y	0.64673
161.0888	0.0	+	18	noun	list	4	7	nomatch	cendrier	-1	1	y	0.64673
161.4886	0.2	boîtier	18	noun	list	4	8	nomatch	cendrier	-1	1	y	0.64673
161.6885	0.0	+	18	noun	list	4	9	nomatch	cendrier	-1	1	y	0.64673
162.0883	0.2	loin	18	noun	list	4	10	nomatch	cendrier	-1	1	y	0.64673
162.2882	0.0	+	18	noun	list	4	11	nomatch	cendrier	-1	1	y	0.64673
162.688	0.0	+	18	noun	list	4	12	nomatch	cendrier	-1	1	y	0.64673
164.6871	0.0	CENDRIER	18	noun	list	4	13	nomatch	cendrier	-1	1	y	0.64673
165.3868	0.0	+	18	noun	list	4	14	nomatch	cendrier	-1	1	y	0.64673
165.3339	0.0	[response]	18	noun	list	4	15	nomatch	cendrier	-1	1	y	0.64673
167.0861	0.0	+	19	noun	phrase	2	1	match	petit	4	1	p	0.57545
167.6358	0.2	mnsdql	19	noun	phrase	2	2	match	petit	4	1	p	0.57545
167.8357	0.0	+	19	noun	phrase	2	3	match	petit	4	1	p	0.57545
168.2355	0.2	psvm	19	noun	phrase	2	4	match	petit	4	1	p	0.57545
168.4354	0.0	+	19	noun	phrase	2	5	match	petit	4	1	p	0.57545
168.8353	0.2	gbl	19	noun	phrase	2	6	match	petit	4	1	p	0.57545
169.0352	0.0	+	19	noun	phrase	2	7	match	petit	4	1	p	0.57545
169.435	0.2	petit	19	noun	phrase	2	8	match	petit	4	1	p	0.57545
169.6349	0.0	+	19	noun	phrase	2	9	match	petit	4	1	p	0.57545
170.0347	0.2	sablier	19	noun	phrase	2	10	match	petit	4	1	p	0.57545
170.2346	0.0	+	19	noun	phrase	2	11	match	petit	4	1	p	0.57545
170.6345	0.0	+	19	noun	phrase	2	12	match	petit	4	1	p	0.57545
172.6336	0.0	PETIT	19	noun	phrase	2	13	match	petit	4	1	p	0.57545
173.26659999999998	0.0	+	19	noun	phrase	2	14	match	petit	4	1	p	0.57545
173.20910000000003	0.0	[response]	19	noun	phrase	2	15	match	petit	4	1	p	0.57545
175.04909999999998	0.0	+	20	verb	phrase	1	1	match	tôt	5	1	p	0.51267
175.5989	0.2	zqsgpkw	20	verb	phrase	1	2	match	tôt	5	1	p	0.51267
175.7988	0.0	+	20	verb	phrase	1	3	match	tôt	5	1	p	0.51267
176.1986	0.2	rdft	20	verb	phrase	1	4	match	tôt	5	1	p	0.51267
176.39849999999998	0.0	+	20	verb	phrase	1	5	match	tôt	5	1	p	0.51267
176.79829999999998	0.2	vh	20	verb	phrase	1	6	match	tôt	5	1	p	0.51267
176.9982	0.0	+	20	verb	phrase	1	7	match	tôt	5	1	p	0.51267
177.3981	0.2	zbrqtpv	20	verb	phrase	1	8	match	tôt	5	1	p	0.51267
177.59799999999998	0.0	+	20	verb	phrase	1	9	match	tôt	5	1	p	0.51267
177.99779999999998	0.2	tôt	20	verb	phrase	1	10	match	tôt	5	1	p	0.51267
178.1977	0.0	+	20	verb	phrase	1	11	match	tôt	5	1	p	0.51267
178.5975	0.0	+	20	verb	phrase	1	12	match	tôt	5	1	p	0.51267
180.5966	0.0	TÔT	20	verb	phrase	1	13	match	tôt	5	1	p	0.51267
181.16299999999998	0.0	+	20	verb	phrase	1	14	match	tôt	5	1	p	0.51267
181.10930000000002	0.0	[response]	20	verb	phrase	1	15	match	tôt	5	1	p	0.51267
182.9955	0.0	+	21	noun	list	1	1	match	grenier	5	1	p	0.34661
183.5453	0.2	gnvptbk	21	noun	list	1	2	match	grenier	5	1	p	0.34661
183.74519999999998	0.0	+	21	noun	list	1	3	match	grenier	5	1	p	0.34661
184.14499999999998	0.2	wzvq	21	noun	list	1	4	match	grenier	5	1	p	0.34661
184.3449	0.0	+	21	noun	list	1	5	match	grenier	5	1	p	0.34661
184.7447	0.2	bwgs	21	noun	list	1	6	match	grenier	5	1	p	0.34661
184.9446	0.0	+	21	noun	list	1	7	match	grenier	5	1	p	0.34661
185.3444	0.2	hcpnv	21	noun	list	1	8	match	grenier	5	1	p	0.34661
185.5444	0.0	+	21	noun	list	1	9	match	grenier	5	1	p	0.34661
185.9442	0.2	grenier	21	noun	list	1	10	match	grenier	5	1	p	0.34661
186.14409999999998	0.0	+	21	noun	list	1	11	match	grenier	5	1	p	0.34661
186.5439	0.0	+	21	noun	list	1	12	match	grenier	5	1	p	0.34661
188.543	0.0	GRENIER	21	noun	list	1	13	match	grenier	5	1	p	0.34661
188.9428	0.0	+	21	noun	list	1	14	match	grenier	5	1	p	0.34661
188.8896	0.0	[response]	21	noun	list	1	15	match	grenier	5	1	p	0.34661
190.9419	0.0	+	22	noun	phrase	1	1	match	panier	5	1	p	0.39977000000000007
191.49169999999998	0.2	rphsm	22	noun	phrase	1	2	match	panier	5	1	p	0.39977000000000007
191.6916	0.0	+	22	noun	phrase	1	3	match	panier	5	1	p	0.39977000000000007
192.0914	0.2	vzck	22	noun	phrase	1	4	match	panier	5	1	p	0.39977000000000007
192.2913	0.0	+	22	noun	phrase	1	5	match	panier	5	1	p	0.39977000000000007
192.6911	0.2	bqm	22	noun	phrase	1	6	match	panier	5	1	p	0.39977000000000007
192.891	0.0	+	22	noun	phrase	1	7	match	panier	5	1	p	0.39977000000000007
193.2908	0.2	dcxhnmz	22	noun	phrase	1	8	match	panier	5	1	p	0.39977000000000007
193.4908	0.0	+	22	noun	phrase	1	9	match	panier	5	1	p	0.39977000000000007
193.8906	0.2	panier	22	noun	phrase	1	10	match	panier	5	1	p	0.39977000000000007
194.0905	0.0	+	22	noun	phrase	1	11	match	panier	5	1	p	0.39977000000000007
194.4903	0.0	+	22	noun	phrase	1	12	match	panier	5	1	p	0.39977000000000007
196.4894	0.0	PANIER	22	noun	phrase	1	13	match	panier	5	1	p	0.39977000000000007
196.95579999999998	0.0	+	22	noun	phrase	1	14	match	panier	5	1	p	0.39977000000000007
196.8892	0.0	[response]	22	noun	phrase	1	15	match	panier	5	1	p	0.39977000000000007
206.88469999999998	0.0	+	23	verb	list	1	1	match	galoper	5	1	p	0.52735
207.4344	0.2	zcvkqg	23	verb	list	1	2	match	galoper	5	1	p	0.52735
207.6344	0.0	+	23	verb	list	1	3	match	galoper	5	1	p	0.52735
208.03419999999997	0.2	lzd	23	verb	list	1	4	match	galoper	5	1	p	0.52735
208.23409999999998	0.0	+	23	verb	list	1	5	match	galoper	5	1	p	0.52735
208.6339	0.2	vh	23	verb	list	1	6	match	galoper	5	1	p	0.52735
208.83379999999997	0.0	+	23	verb	list	1	7	match	galoper	5	1	p	0.52735
209.23369999999997	0.2	wdhpv	23	verb	list	1	8	match	galoper	5	1	p	0.52735
209.43359999999998	0.0	+	23	verb	list	1	9	match	galoper	5	1	p	0.52735
209.85	0.2	galoper	23	verb	list	1	10	match	galoper	5	1	p	0.52735
210.0499	0.0	+	23	verb	list	1	11	match	galoper	5	1	p	0.52735
210.44969999999998	0.0	+	23	verb	list	1	12	match	galoper	5	1	p	0.52735
212.44879999999998	0.0	GALOPER	23	verb	list	1	13	match	galoper	5	1	p	0.52735
213.03189999999998	0.0	+	23	verb	list	1	14	match	galoper	5	1	p	0.52735
212.97619999999998	0.0	[response]	23	verb	list	1	15	match	galoper	5	1	p	0.52735
214.84779999999998	0.0	+	24	noun	phrase	3	1	nomatch	loin	-1	1	y	0.71253
215.3975	0.2	fcpmqzj	24	noun	phrase	3	2	nomatch	loin	-1	1	y	0.71253
215.59740000000002	0.0	+	24	noun	phrase	3	3	nomatch	loin	-1	1	y	0.71253
215.9972	0.2	ptkf	24	noun	phrase	3	4	nomatch	loin	-1	1	y	0.71253
216.1971	0.0	+	24	noun	phrase	3	5	nomatch	loin	-1	1	y	0.71253
216.597	0.2	leur	24	noun	phrase	3	6	nomatch	loin	-1	1	y	0.71253
216.79690000000002	0.0	+	24	noun	phrase	3	7	nomatch	loin	-1	1	y	0.71253
217.1967	0.2	beau	24	noun	phrase	3	8	nomatch	loin	-1	1	y	0.71253
217.39669999999998	0.0	+	24	noun	phrase	3	9	nomatch	loin	-1	1	y	0.71253
217.79639999999998	0.2	tablier	24	noun	phrase	3	10	nomatch	loin	-1	1	y	0.71253
217.9963	0.0	+	24	noun	phrase	3	11	nomatch	loin	-1	1	y	0.71253
218.39610000000002	0.0	+	24	noun	phrase	3	12	nomatch	loin	-1	1	y	0.71253
220.39520000000002	0.0	LOIN	24	noun	phrase	3	13	nomatch	loin	-1	1	y	0.71253
221.1616	0.0	+	24	noun	phrase	3	14	nomatch	loin	-1	1	y	0.71253
221.10779999999997	0.0	[response]	24	noun	phrase	3	15	nomatch	loin	-1	1	y	0.71253
222.79420000000002	0.0	+	25	noun	list	2	1	nomatch	luc	-1	1	y	0.55748
223.3439	0.2	bvxj	25	noun	list	2	2	nomatch	luc	-1	1	y	0.55748
223.5438	0.0	+	25	noun	list	2	3	nomatch	luc	-1	1	y	0.55748
223.94359999999998	0.2	gbpr	25	noun	list	2	4	nomatch	luc	-1	1	y	0.55748
224.1435	0.0	+	25	noun	list	2	5	nomatch	luc	-1	1	y	0.55748
224.5434	0.2	bwgs	25	noun	list	2	6	nomatch	luc	-1	1	y	0.55748
224.7433	0.0	+	25	noun	list	2	7	nomatch	luc	-1	1	y	0.55748
225.14309999999998	0.2	plus	25	noun	list	2	8	nomatch	luc	-1	1	y	0.55748
225.343	0.0	+	25	noun	list	2	9	nomatch	luc	-1	1	y	0.55748
225.74280000000002	0.2	rocher	25	noun	list	2	10	nomatch	luc	-1	1	y	0.55748
225.94269999999997	0.0	+	25	noun	list	2	11	nomatch	luc	-1	1	y	0.55748
226.3425	0.0	+	25	noun	list	2	12	nomatch	luc	-1	1	y	0.55748
228.3416	0.0	LUC	25	noun	list	2	13	nomatch	luc	-1	1	y	0.55748
228.958	0.0	+	25	noun	list	2	14	nomatch	luc	-1	1	y	0.55748
228.8991	0.0	[response]	25	noun	list	2	15	nomatch	luc	-1	1	y	0.55748
230.7406	0.0	+	26	noun	phrase	3	1	match	panier	4	1	p	0.62891
231.29029999999997	0.2	xhstl	26	noun	phrase	3	2	match	panier	4	1	p	0.62891
231.4902	0.0	+	26	noun	phrase	3	3	match	panier	4	1	p	0.62891
231.89000000000001	0.2	ntmd	26	noun	phrase	3	4	match	panier	4	1	p	0.62891
232.08989999999997	0.0	+	26	noun	phrase	3	5	match	panier	4	1	p	0.62891
232.48979999999997	0.2	leur	26	noun	phrase	3	6	match	panier	4	1	p	0.62891
232.6897	0.0	+	26	noun	phrase	3	7	match	panier	4	1	p	0.62891
233.08950000000002	0.2	panier	26	noun	phrase	3	8	match	panier	4	1	p	0.62891
233.28939999999997	0.0	+	26	noun	phrase	3	9	match	panier	4	1	p	0.62891
233.6892	0.2	vert	26	noun	phrase	3	10	match	panier	4	1	p	0.62891
233.8891	0.0	+	26	noun	phrase	3	11	match	panier	4	1	p	0.62891
234.28889999999998	0.0	+	26	noun	phrase	3	12	match	panier	4	1	p	0.62891
236.28799999999998	0.0	PANIER	26	noun	phrase	3	13	match	panier	4	1	p	0.62891
236.9711	0.0	+	26	noun	phrase	3	14	match	panier	4	1	p	0.62891
236.91689999999997	0.0	[response]	26	noun	phrase	3	15	match	panier	4	1	p	0.62891
246.70000000000002	0.0	+	27	verb	phrase	3	1	nomatch	noir	-1	1	y	0.72274
247.2497	0.2	mlr	27	verb	phrase	3	2	nomatch	noir	-1	1	y	0.72274
247.4496	0.0	+	27	verb	phrase	3	3	nomatch	noir	-1	1	y	0.72274
247.8495	0.2	mthp	27	verb	phrase	3	4	nomatch	noir	-1	1	y	0.72274
248.04940000000002	0.0	+	27	verb	phrase	3	5	nomatch	noir	-1	1	y	0.72274
248.4492	0.2	peut	27	verb	phrase	3	6	nomatch	noir	-1	1	y	0.72274
248.6491	0.0	+	27	verb	phrase	3	7	nomatch	noir	-1	1	y	0.72274
249.04889999999997	0.2	moins	27	verb	phrase	3	8	nomatch	noir	-1	1	y	0.72274
249.2488	0.0	+	27	verb	phrase	3	9	nomatch	noir	-1	1	y	0.72274
249.6487	0.2	galoper	27	verb	phrase	3	10	nomatch	noir	-1	1	y	0.72274
249.8486	0.0	+	27	verb	phrase	3	11	nomatch	noir	-1	1	y	0.72274
250.24839999999998	0.0	+	27	verb	phrase	3	12	nomatch	noir	-1	1	y	0.72274
252.24749999999997	0.0	NOIR	27	verb	phrase	3	13	nomatch	noir	-1	1	y	0.72274
253.03040000000001	0.0	+	27	verb	phrase	3	14	nomatch	noir	-1	1	y	0.72274
252.9702	0.0	[response]	27	verb	phrase	3	15	nomatch	noir	-1	1	y	0.72274
254.6464	0.0	+	28	noun	phrase	1	1	match	grand	5	1	p	0.46631
255.19609999999997	0.2	nzvx	28	noun	phrase	1	2	match	grand	5	1	p	0.46631
255.396	0.0	+	28	noun	phrase	1	3	match	grand	5	1	p	0.46631
255.7959	0.2	ntmd	28	noun	phrase	1	4	match	grand	5	1	p	0.46631
255.9958	0.0	+	28	noun	phrase	1	5	match	grand	5	1	p	0.46631
256.3956	0.2	bwgs	28	noun	phrase	1	6	match	grand	5	1	p	0.46631
256.5955	0.0	+	28	noun	phrase	1	7	match	grand	5	1	p	0.46631
256.99530000000004	0.2	xnhgzpmv	28	noun	phrase	1	8	match	grand	5	1	p	0.46631
257.1952	0.0	+	28	noun	phrase	1	9	match	grand	5	1	p	0.46631
257.5951	0.2	grand	28	noun	phrase	1	10	match	grand	5	1	p	0.46631
257.795	0.0	+	28	noun	phrase	1	11	match	grand	5	1	p	0.46631
258.19480000000004	0.0	+	28	noun	phrase	1	12	match	grand	5	1	p	0.46631
260.19390000000004	0.0	GRAND	28	noun	phrase	1	13	match	grand	5	1	p	0.46631
260.72700000000003	0.0	+	28	noun	phrase	1	14	match	grand	5	1	p	0.46631
260.66020000000003	0.0	[response]	28	noun	phrase	1	15	match	grand	5	1	p	0.46631
262.5928	0.0	+	29	verb	phrase	2	1	nomatch	danser	-1	1	y	0.62937
263.14250000000004	0.2	vpfc	29	verb	phrase	2	2	nomatch	danser	-1	1	y	0.62937
263.3424	0.0	+	29	verb	phrase	2	3	nomatch	danser	-1	1	y	0.62937
263.7423	0.2	wzvq	29	verb	phrase	2	4	nomatch	danser	-1	1	y	0.62937
263.9422	0.0	+	29	verb	phrase	2	5	nomatch	danser	-1	1	y	0.62937
264.34200000000004	0.2	hljn	29	verb	phrase	2	6	nomatch	danser	-1	1	y	0.62937
264.5419	0.0	+	29	verb	phrase	2	7	nomatch	danser	-1	1	y	0.62937
264.9417	0.2	moins	29	verb	phrase	2	8	nomatch	danser	-1	1	y	0.62937
265.14160000000004	0.0	+	29	verb	phrase	2	9	nomatch	danser	-1	1	y	0.62937
265.5414	0.2	parader	29	verb	phrase	2	10	nomatch	danser	-1	1	y	0.62937
265.7414	0.0	+	29	verb	phrase	2	11	nomatch	danser	-1	1	y	0.62937
266.1412	0.0	+	29	verb	phrase	2	12	nomatch	danser	-1	1	y	0.62937
268.1403	0.0	DANSER	29	verb	phrase	2	13	nomatch	danser	-1	1	y	0.62937
268.8233	0.0	+	29	verb	phrase	2	14	nomatch	danser	-1	1	y	0.62937
268.7696	0.0	[response]	29	verb	phrase	2	15	nomatch	danser	-1	1	y	0.62937
278.53560000000004	0.0	+	30	verb	list	1	1	nomatch	son	-1	1	y	0.54474
279.0853	0.2	mgfvwz	30	verb	list	1	2	nomatch	son	-1	1	y	0.54474
279.28520000000003	0.0	+	30	verb	list	1	3	nomatch	son	-1	1	y	0.54474
279.685	0.2	gxsd	30	verb	list	1	4	nomatch	son	-1	1	y	0.54474
279.8849	0.0	+	30	verb	list	1	5	nomatch	son	-1	1	y	0.54474
280.2848	0.2	cpqb	30	verb	list	1	6	nomatch	son	-1	1	y	0.54474
280.48470000000003	0.0	+	30	verb	list	1	7	nomatch	son	-1	1	y	0.54474
280.8845	0.2	pwmcl	30	verb	list	1	8	nomatch	son	-1	1	y	0.54474
281.0844	0.0	+	30	verb	list	1	9	nomatch	son	-1	1	y	0.54474
281.48420000000004	0.2	grand	30	verb	list	1	10	nomatch	son	-1	1	y	0.54474
281.6841	0.0	+	30	verb	list	1	11	nomatch	son	-1	1	y	0.54474
282.0839	0.0	+	30	verb	list	1	12	nomatch	son	-1	1	y	0.54474
284.09970000000004	0.0	SON	30	verb	list	1	13	nomatch	son	-1	1	y	0.54474
284.6994	0.0	+	30	verb	list	1	14	nomatch	son	-1	1	y	0.54474
284.6444	0.0	[response]	30	verb	list	1	15	nomatch	son	-1	1	y	0.54474
286.4986	0.0	+	31	verb	phrase	1	1	nomatch	trop	-1	1	y	0.46657
287.0484	0.2	zxm	31	verb	phrase	1	2	nomatch	trop	-1	1	y	0.46657
287.24830000000003	0.0	+	31	verb	phrase	1	3	nomatch	trop	-1	1	y	0.46657
287.6481	0.2	mrn	31	verb	phrase	1	4	nomatch	trop	-1	1	y	0.46657
287.848	0.0	+	31	verb	phrase	1	5	nomatch	trop	-1	1	y	0.46657
288.24780000000004	0.2	hljn	31	verb	phrase	1	6	nomatch	trop	-1	1	y	0.46657
288.4477	0.0	+	31	verb	phrase	1	7	nomatch	trop	-1	1	y	0.46657
288.8475	0.2	pltczgd	31	verb	phrase	1	8	nomatch	trop	-1	1	y	0.46657
289.0475	0.0	+	31	verb	phrase	1	9	nomatch	trop	-1	1	y	0.46657
289.44730000000004	0.2	plus	31	verb	phrase	1	10	nomatch	trop	-1	1	y	0.46657
289.6472	0.0	+	31	verb	phrase	1	11	nomatch	trop	-1	1	y	0.46657
290.047	0.0	+	31	verb	phrase	1	12	nomatch	trop	-1	1	y	0.46657
292.0461	0.0	TROP	31	verb	phrase	1	13	nomatch	trop	-1	1	y	0.46657
292.5792	0.0	+	31	verb	phrase	1	14	nomatch	trop	-1	1	y	0.46657
292.51270000000005	0.0	[response]	31	verb	phrase	1	15	nomatch	trop	-1	1	y	0.46657
294.44500000000005	0.0	+	32	noun	phrase	1	1	match	tablier	5	1	p	0.98862
294.9948	0.2	qlncrs	32	noun	phrase	1	2	match	tablier	5	1	p	0.98862
295.1947	0.0	+	32	noun	phrase	1	3	match	tablier	5	1	p	0.98862
295.59450000000004	0.2	kgzb	32	noun	phrase	1	4	match	tablier	5	1	p	0.98862
295.7944	0.0	+	32	noun	phrase	1	5	match	tablier	5	1	p	0.98862
296.1942	0.2	gbl	32	noun	phrase	1	6	match	tablier	5	1	p	0.98862
296.39410000000004	0.0	+	32	noun	phrase	1	7	match	tablier	5	1	p	0.98862
296.7939	0.2	tqrn	32	noun	phrase	1	8	match	tablier	5	1	p	0.98862
296.9939	0.0	+	32	noun	phrase	1	9	match	tablier	5	1	p	0.98862
297.3937	0.2	tablier	32	noun	phrase	1	10	match	tablier	5	1	p	0.98862
297.59360000000004	0.0	+	32	noun	phrase	1	11	match	tablier	5	1	p	0.98862
297.9934	0.0	+	32	noun	phrase	1	12	match	tablier	5	1	p	0.98862
299.9925	0.0	TABLIER	32	noun	phrase	1	13	match	tablier	5	1	p	0.98862
301.04200000000003	0.0	+	32	noun	phrase	1	14	match	tablier	5	1	p	0.98862
300.9811	0.0	[response]	32	noun	phrase	1	15	match	tablier	5	1	p	0.98862
302.39140000000003	0.0	+	33	noun	list	3	1	nomatch	beaucoup	-1	1	y	0.61494
302.94120000000004	0.2	lhjdkqf	33	noun	list	3	2	nomatch	beaucoup	-1	1	y	0.61494
303.1411	0.0	+	33	noun	list	3	3	nomatch	beaucoup	-1	1	y	0.61494
303.5409	0.2	cdsf	33	noun	list	3	4	nomatch	beaucoup	-1	1	y	0.61494
303.74080000000004	0.0	+	33	noun	list	3	5	nomatch	beaucoup	-1	1	y	0.61494
304.1406	0.2	leur	33	noun	list	3	6	nomatch	beaucoup	-1	1	y	0.61494
304.3405	0.0	+	33	noun	list	3	7	nomatch	beaucoup	-1	1	y	0.61494
304.7404	0.2	mieux	33	noun	list	3	8	nomatch	beaucoup	-1	1	y	0.61494
304.94030000000004	0.0	+	33	noun	list	3	9	nomatch	beaucoup	-1	1	y	0.61494
305.3401	0.2	sablier	33	noun	list	3	10	nomatch	beaucoup	-1	1	y	0.61494
305.54	0.0	+	33	noun	list	3	11	nomatch	beaucoup	-1	1	y	0.61494
305.93980000000005	0.0	+	33	noun	list	3	12	nomatch	beaucoup	-1	1	y	0.61494
307.939	0.0	BEAUCOUP	33	noun	list	3	13	nomatch	beaucoup	-1	1	y	0.61494
308.6053	0.0	+	33	noun	list	3	14	nomatch	beaucoup	-1	1	y	0.61494
308.5539	0.0	[response]	33	noun	list	3	15	nomatch	beaucoup	-1	1	y	0.61494
310.3378	0.0	+	34	verb	phrase	2	1	nomatch	nager	-1	1	y	1.1389
310.8876	0.2	nmtfx	34	verb	phrase	2	2	nomatch	nager	-1	1	y	1.1389
311.08750000000003	0.0	+	34	verb	phrase	2	3	nomatch	nager	-1	1	y	1.1389
311.4873	0.2	mrn	34	verb	phrase	2	4	nomatch	nager	-1	1	y	1.1389
311.6872	0.0	+	34	verb	phrase	2	5	nomatch	nager	-1	1	y	1.1389
312.08700000000005	0.2	cpqb	34	verb	phrase	2	6	nomatch	nager	-1	1	y	1.1389
312.2869	0.0	+	34	verb	phrase	2	7	nomatch	nager	-1	1	y	1.1389
312.68670000000003	0.2	chasser	34	verb	phrase	2	8	nomatch	nager	-1	1	y	1.1389
312.8867	0.0	+	34	verb	phrase	2	9	nomatch	nager	-1	1	y	1.1389
313.28650000000005	0.2	ainsi	34	verb	phrase	2	10	nomatch	nager	-1	1	y	1.1389
313.4864	0.0	+	34	verb	phrase	2	11	nomatch	nager	-1	1	y	1.1389
313.88620000000003	0.0	+	34	verb	phrase	2	12	nomatch	nager	-1	1	y	1.1389
315.88530000000003	0.0	NAGER	34	verb	phrase	2	13	nomatch	nager	-1	1	y	1.1389
317.08480000000003	0.0	+	34	verb	phrase	2	14	nomatch	nager	-1	1	y	1.1389
317.0242	0.0	[response]	34	verb	phrase	2	15	nomatch	nager	-1	1	y	1.1389
318.2842	0.0	+	35	noun	phrase	1	1	nomatch	moins	-1	1	y	0.42208
318.834	0.2	wtczd	35	noun	phrase	1	2	nomatch	moins	-1	1	y	0.42208
319.0339	0.0	+	35	noun	phrase	1	3	nomatch	moins	-1	1	y	0.42208
319.43370000000004	0.2	gxsd	35	noun	phrase	1	4	nomatch	moins	-1	1	y	0.42208
319.6336	0.0	+	35	noun	phrase	1	5	nomatch	moins	-1	1	y	0.42208
320.05010000000004	0.2	bqm	35	noun	phrase	1	6	nomatch	moins	-1	1	y	0.42208
320.25	0.0	+	35	noun	phrase	1	7	nomatch	moins	-1	1	y	0.42208
320.6498	0.2	rzwvd	35	noun	phrase	1	8	nomatch	moins	-1	1	y	0.42208
320.84970000000004	0.0	+	35	noun	phrase	1	9	nomatch	moins	-1	1	y	0.42208
321.2495	0.2	rocher	35	noun	phrase	1	10	nomatch	moins	-1	1	y	0.42208
321.4494	0.0	+	35	noun	phrase	1	11	nomatch	moins	-1	1	y	0.42208
321.8493	0.0	+	35	noun	phrase	1	12	nomatch	moins	-1	1	y	0.42208
323.8483	0.0	MOINS	35	noun	phrase	1	13	nomatch	moins	-1	1	y	0.42208
324.3315	0.0	+	35	noun	phrase	1	14	nomatch	moins	-1	1	y	0.42208
324.2704	0.0	[response]	35	noun	phrase	1	15	nomatch	moins	-1	1	y	0.42208
326.2473	0.0	+	36	verb	list	3	1	match	mon	3	1	p	0.60679
326.797	0.2	crp	36	verb	list	3	2	match	mon	3	1	p	0.60679
326.99690000000004	0.0	+	36	verb	list	3	3	match	mon	3	1	p	0.60679
327.39680000000004	0.2	rdft	36	verb	list	3	4	match	mon	3	1	p	0.60679
327.5966	0.0	+	36	verb	list	3	5	match	mon	3	1	p	0.60679
327.9965	0.2	mon	36	verb	list	3	6	match	mon	3	1	p	0.60679
328.19640000000004	0.0	+	36	verb	list	3	7	match	mon	3	1	p	0.60679
328.5962	0.2	patiner	36	verb	list	3	8	match	mon	3	1	p	0.60679
328.7961	0.0	+	36	verb	list	3	9	match	mon	3	1	p	0.60679
329.1959	0.2	rouge	36	verb	list	3	10	match	mon	3	1	p	0.60679
329.3958	0.0	+	36	verb	list	3	11	match	mon	3	1	p	0.60679
329.7957	0.0	+	36	verb	list	3	12	match	mon	3	1	p	0.60679
331.79470000000003	0.0	MON	36	verb	list	3	13	match	mon	3	1	p	0.60679
332.46110000000004	0.0	+	36	verb	list	3	14	match	mon	3	1	p	0.60679
332.4015	0.0	[response]	36	verb	list	3	15	match	mon	3	1	p	0.60679
334.19370000000004	0.0	+	37	noun	list	2	1	nomatch	son	-1	1	y	0.82417
334.7434	0.2	nxms	37	noun	list	2	2	nomatch	son	-1	1	y	0.82417
334.9433	0.0	+	37	noun	list	2	3	nomatch	son	-1	1	y	0.82417
335.34310000000005	0.2	lzd	37	noun	list	2	4	nomatch	son	-1	1	y	0.82417
335.54310000000004	0.0	+	37	noun	list	2	5	nomatch	son	-1	1	y	0.82417
335.9429	0.2	hljn	37	noun	list	2	6	nomatch	son	-1	1	y	0.82417
336.1428	0.0	+	37	noun	list	2	7	nomatch	son	-1	1	y	0.82417
336.54260000000005	0.2	grenier	37	noun	list	2	8	nomatch	son	-1	1	y	0.82417
336.7425	0.0	+	37	noun	list	2	9	nomatch	son	-1	1	y	0.82417
337.14230000000003	0.2	tard	37	noun	list	2	10	nomatch	son	-1	1	y	0.82417
337.34220000000005	0.0	+	37	noun	list	2	11	nomatch	son	-1	1	y	0.82417
337.74210000000005	0.0	+	37	noun	list	2	12	nomatch	son	-1	1	y	0.82417
339.74120000000005	0.0	SON	37	noun	list	2	13	nomatch	son	-1	1	y	0.82417
340.6241	0.0	+	37	noun	list	2	14	nomatch	son	-1	1	y	0.82417
340.5653000000001	0.0	[response]	37	noun	list	2	15	nomatch	son	-1	1	y	0.82417
342.1401	0.0	+	38	verb	list	1	1	match	rouge	5	1	p	0.44858
342.68980000000005	0.2	tkmbzc	38	verb	list	1	2	match	rouge	5	1	p	0.44858
342.8897	0.0	+	38	verb	list	1	3	match	rouge	5	1	p	0.44858
343.28950000000003	0.2	gbpr	38	verb	list	1	4	match	rouge	5	1	p	0.44858
343.4895	0.0	+	38	verb	list	1	5	match	rouge	5	1	p	0.44858
343.88930000000005	0.2	gbl	38	verb	list	1	6	match	rouge	5	1	p	0.44858
344.0892	0.0	+	38	verb	list	1	7	match	rouge	5	1	p	0.44858
344.48900000000003	0.2	zbrqtpv	38	verb	list	1	8	match	rouge	5	1	p	0.44858
344.68890000000005	0.0	+	38	verb	list	1	9	match	rouge	5	1	p	0.44858
345.0887	0.2	rouge	38	verb	list	1	10	match	rouge	5	1	p	0.44858
345.28860000000003	0.0	+	38	verb	list	1	11	match	rouge	5	1	p	0.44858
345.6884	0.0	+	38	verb	list	1	12	match	rouge	5	1	p	0.44858
347.68760000000003	0.0	ROUGE	38	verb	list	1	13	match	rouge	5	1	p	0.44858
348.18730000000005	0.0	+	38	verb	list	1	14	match	rouge	5	1	p	0.44858
348.1361	0.0	[response]	38	verb	list	1	15	match	rouge	5	1	p	0.44858
350.0865	0.0	+	39	verb	list	1	1	nomatch	danser	-1	1	y	0.50381
350.63620000000003	0.2	hzd	39	verb	list	1	2	nomatch	danser	-1	1	y	0.50381
350.83610000000004	0.0	+	39	verb	list	1	3	nomatch	danser	-1	1	y	0.50381
351.2359	0.2	cdsf	39	verb	list	1	4	nomatch	danser	-1	1	y	0.50381
351.4359	0.0	+	39	verb	list	1	5	nomatch	danser	-1	1	y	0.50381
351.83570000000003	0.2	bqm	39	verb	list	1	6	nomatch	danser	-1	1	y	0.50381
352.03560000000004	0.0	+	39	verb	list	1	7	nomatch	danser	-1	1	y	0.50381
352.4354	0.2	bqwt	39	verb	list	1	8	nomatch	danser	-1	1	y	0.50381
352.63530000000003	0.0	+	39	verb	list	1	9	nomatch	danser	-1	1	y	0.50381
353.0351	0.2	nager	39	verb	list	1	10	nomatch	danser	-1	1	y	0.50381
353.235	0.0	+	39	verb	list	1	11	nomatch	danser	-1	1	y	0.50381
353.63480000000004	0.0	+	39	verb	list	1	12	nomatch	danser	-1	1	y	0.50381
355.634	0.0	DANSER	39	verb	list	1	13	nomatch	danser	-1	1	y	0.50381
356.2004	0.0	+	39	verb	list	1	14	nomatch	danser	-1	1	y	0.50381
356.1378	0.0	[response]	39	verb	list	1	15	nomatch	danser	-1	1	y	0.50381
358.0495	0.0	+	40	noun	phrase	4	1	match	noir	5	1	p	0.52998
358.5993	0.2	qwns	40	noun	phrase	4	2	match	noir	5	1	p	0.52998
358.79920000000004	0.0	+	40	noun	phrase	4	3	match	noir	5	1	p	0.52998
359.199	0.2	sous	40	noun	phrase	4	4	match	noir	5	1	p	0.52998
359.3989	0.0	+	40	noun	phrase	4	5	match	noir	5	1	p	0.52998
359.7987	0.2	son	40	noun	phrase	4	6	match	noir	5	1	p	0.52998
359.9986	0.0	+	40	noun	phrase	4	7	match	noir	5	1	p	0.52998
360.3985	0.2	panier	40	noun	phrase	4	8	match	noir	5	1	p	0.52998
360.5984	0.0	+	40	noun	phrase	4	9	match	noir	5	1	p	0.52998
360.9982	0.2	noir	40	noun	phrase	4	10	match	noir	5	1	p	0.52998
361.1981	0.0	+	40	noun	phrase	4	11	match	noir	5	1	p	0.52998
361.59810000000004	0.0	+	40	noun	phrase	4	12	match	noir	5	1	p	0.52998
363.59700000000004	0.0	NOIR	40	noun	phrase	4	13	match	noir	5	1	p	0.52998
364.18010000000004	0.0	+	40	noun	phrase	4	14	match	noir	5	1	p	0.52998
364.127	0.0	[response]	40	noun	phrase	4	15	match	noir	5	1	p	0.52998
381.9887	0.0	+	41	noun	phrase	4	1	match	sur	2	1	p	0.54026
382.5384	0.2	jgkrldn	41	noun	phrase	4	2	match	sur	2	1	p	0.54026
382.7384	0.0	+	41	noun	phrase	4	3	match	sur	2	1	p	0.54026
383.1381	0.2	sur	41	noun	phrase	4	4	match	sur	2	1	p	0.54026
383.3381	0.0	+	41	noun	phrase	4	5	match	sur	2	1	p	0.54026
383.7379	0.2	leur	41	noun	phrase	4	6	match	sur	2	1	p	0.54026
383.93780000000004	0.0	+	41	noun	phrase	4	7	match	sur	2	1	p	0.54026
384.3376	0.2	tablier	41	noun	phrase	4	8	match	sur	2	1	p	0.54026
384.5375	0.0	+	41	noun	phrase	4	9	match	sur	2	1	p	0.54026
384.9374	0.2	vert	41	noun	phrase	4	10	match	sur	2	1	p	0.54026
385.1372	0.0	+	41	noun	phrase	4	11	match	sur	2	1	p	0.54026
385.5371	0.0	+	41	noun	phrase	4	12	match	sur	2	1	p	0.54026
387.53610000000003	0.0	SUR	41	noun	phrase	4	13	match	sur	2	1	p	0.54026
388.13590000000005	0.0	+	41	noun	phrase	4	14	match	sur	2	1	p	0.54026
388.07640000000004	0.0	[response]	41	noun	phrase	4	15	match	sur	2	1	p	0.54026
389.93510000000003	0.0	+	42	verb	phrase	1	1	match	tard	5	1	p	0.43956
390.4848	0.2	rqx	42	verb	phrase	1	2	match	tard	5	1	p	0.43956
390.6847	0.0	+	42	verb	phrase	1	3	match	tard	5	1	p	0.43956
391.08450000000005	0.2	cdsf	42	verb	phrase	1	4	match	tard	5	1	p	0.43956
391.28450000000004	0.0	+	42	verb	phrase	1	5	match	tard	5	1	p	0.43956
391.6843	0.2	vh	42	verb	phrase	1	6	match	tard	5	1	p	0.43956
391.8842	0.0	+	42	verb	phrase	1	7	match	tard	5	1	p	0.43956
392.28400000000005	0.2	pwmcl	42	verb	phrase	1	8	match	tard	5	1	p	0.43956
392.4839	0.0	+	42	verb	phrase	1	9	match	tard	5	1	p	0.43956
392.88370000000003	0.2	tard	42	verb	phrase	1	10	match	tard	5	1	p	0.43956
393.08360000000005	0.0	+	42	verb	phrase	1	11	match	tard	5	1	p	0.43956
393.50010000000003	0.0	+	42	verb	phrase	1	12	match	tard	5	1	p	0.43956
395.49920000000003	0.0	TARD	42	verb	phrase	1	13	match	tard	5	1	p	0.43956
395.999	0.0	+	42	verb	phrase	1	14	match	tard	5	1	p	0.43956
395.9388	0.0	[response]	42	verb	phrase	1	15	match	tard	5	1	p	0.43956
405.89450000000005	0.0	+	43	noun	list	4	1	match	panier	5	1	p	0.40687
406.4443	0.2	zrb	43	noun	list	4	2	match	panier	5	1	p	0.40687
406.6442	0.0	+	43	noun	list	4	3	match	panier	5	1	p	0.40687
407.04400000000004	0.2	paul	43	noun	list	4	4	match	panier	5	1	p	0.40687
407.2439	0.0	+	43	noun	list	4	5	match	panier	5	1	p	0.40687
407.6437	0.2	leur	43	noun	list	4	6	match	panier	5	1	p	0.40687
407.84360000000004	0.0	+	43	noun	list	4	7	match	panier	5	1	p	0.40687
408.2434	0.2	mieux	43	noun	list	4	8	match	panier	5	1	p	0.40687
408.4433	0.0	+	43	noun	list	4	9	match	panier	5	1	p	0.40687
408.8432	0.2	panier	43	noun	list	4	10	match	panier	5	1	p	0.40687
409.04310000000004	0.0	+	43	noun	list	4	11	match	panier	5	1	p	0.40687
409.4429	0.0	+	43	noun	list	4	12	match	panier	5	1	p	0.40687
411.442	0.0	PANIER	43	noun	list	4	13	match	panier	5	1	p	0.40687
411.9085	0.0	+	43	noun	list	4	14	match	panier	5	1	p	0.40687
411.84890000000007	0.0	[response]	43	noun	list	4	15	match	panier	5	1	p	0.40687
413.84090000000003	0.0	+	44	noun	list	3	1	match	trop	4	1	p	0.40415000000000006
414.39070000000004	0.2	vmrpsh	44	noun	list	3	2	match	trop	4	1	p	0.40415000000000006
414.5906	0.0	+	44	noun	list	3	3	match	trop	4	1	p	0.40415000000000006
414.9904	0.2	rdft	44	noun	list	3	4	match	trop	4	1	p	0.40415000000000006
415.19030000000004	0.0	+	44	noun	list	3	5	match	trop	4	1	p	0.40415000000000006
415.5901	0.2	mon	44	noun	list	3	6	match	trop	4	1	p	0.40415000000000006
415.79	0.0	+	44	noun	list	3	7	match	trop	4	1	p	0.40415000000000006
416.18980000000005	0.2	trop	44	noun	list	3	8	match	trop	4	1	p	0.40415000000000006
416.3897	0.0	+	44	noun	list	3	9	match	trop	4	1	p	0.40415000000000006
416.7896	0.2	boîtier	44	noun	list	3	10	match	trop	4	1	p	0.40415000000000006
416.9895	0.0	+	44	noun	list	3	11	match	trop	4	1	p	0.40415000000000006
417.38930000000005	0.0	+	44	noun	list	3	12	match	trop	4	1	p	0.40415000000000006
419.38840000000005	0.0	TROP	44	noun	list	3	13	match	trop	4	1	p	0.40415000000000006
419.8548	0.0	+	44	noun	list	3	14	match	trop	4	1	p	0.40415000000000006
419.7925	0.0	[response]	44	noun	list	3	15	match	trop	4	1	p	0.40415000000000006
421.7873	0.0	+	45	noun	list	1	1	match	moins	5	1	p	0.34654
422.3371	0.2	jbrv	45	noun	list	1	2	match	moins	5	1	p	0.34654
422.53700000000003	0.0	+	45	noun	list	1	3	match	moins	5	1	p	0.34654
422.9368	0.2	gbpr	45	noun	list	1	4	match	moins	5	1	p	0.34654
423.1367	0.0	+	45	noun	list	1	5	match	moins	5	1	p	0.34654
423.53650000000005	0.2	bqm	45	noun	list	1	6	match	moins	5	1	p	0.34654
423.73650000000004	0.0	+	45	noun	list	1	7	match	moins	5	1	p	0.34654
424.13620000000003	0.2	xnhgzpmv	45	noun	list	1	8	match	moins	5	1	p	0.34654
424.33610000000004	0.0	+	45	noun	list	1	9	match	moins	5	1	p	0.34654
424.73600000000005	0.2	moins	45	noun	list	1	10	match	moins	5	1	p	0.34654
424.9359	0.0	+	45	noun	list	1	11	match	moins	5	1	p	0.34654
425.33570000000003	0.0	+	45	noun	list	1	12	match	moins	5	1	p	0.34654
427.33480000000003	0.0	MOINS	45	noun	list	1	13	match	moins	5	1	p	0.34654
427.7346	0.0	+	45	noun	list	1	14	match	moins	5	1	p	0.34654
427.6813	0.0	[response]	45	noun	list	1	15	match	moins	5	1	p	0.34654
429.7337	0.0	+	46	verb	list	3	1	nomatch	rouge	-1	1	y	0.70835
430.30010000000004	0.2	rcz	46	verb	list	3	2	nomatch	rouge	-1	1	y	0.70835
430.5	0.0	+	46	verb	list	3	3	nomatch	rouge	-1	1	y	0.70835
430.8998	0.2	mthp	46	verb	list	3	4	nomatch	rouge	-1	1	y	0.70835
431.09970000000004	0.0	+	46	verb	list	3	5	nomatch	rouge	-1	1	y	0.70835
431.49960000000004	0.2	leur	46	verb	list	3	6	nomatch	rouge	-1	1	y	0.70835
431.6995	0.0	+	46	verb	list	3	7	nomatch	rouge	-1	1	y	0.70835
432.0993	0.2	rouler	46	verb	list	3	8	nomatch	rouge	-1	1	y	0.70835
432.29920000000004	0.0	+	46	verb	list	3	9	nomatch	rouge	-1	1	y	0.70835
432.699	0.2	vert	46	verb	list	3	10	nomatch	rouge	-1	1	y	0.70835
432.8989	0.0	+	46	verb	list	3	11	nomatch	rouge	-1	1	y	0.70835
433.2988	0.0	+	46	verb	list	3	12	nomatch	rouge	-1	1	y	0.70835
435.2978	0.0	ROUGE	46	verb	list	3	13	nomatch	rouge	-1	1	y	0.70835
436.0642	0.0	+	46	verb	list	3	14	nomatch	rouge	-1	1	y	0.70835
436.00620000000004	0.0	[response]	46	verb	list	3	15	nomatch	rouge	-1	1	y	0.70835
437.6967	0.0	+	47	noun	list	1	1	nomatch	avec	-1	1	y	0.55653
438.2465	0.2	kvg	47	noun	list	1	2	nomatch	avec	-1	1	y	0.55653
438.44640000000004	0.0	+	47	noun	list	1	3	nomatch	avec	-1	1	y	0.55653
438.8462	0.2	ptkf	47	noun	list	1	4	nomatch	avec	-1	1	y	0.55653
439.0461	0.0	+	47	noun	list	1	5	nomatch	avec	-1	1	y	0.55653
439.446	0.2	hljn	47	noun	list	1	6	nomatch	avec	-1	1	y	0.55653
439.64590000000004	0.0	+	47	noun	list	1	7	nomatch	avec	-1	1	y	0.55653
440.0457	0.2	dbcsxtr	47	noun	list	1	8	nomatch	avec	-1	1	y	0.55653
440.2456	0.0	+	47	noun	list	1	9	nomatch	avec	-1	1	y	0.55653
440.6454	0.2	tard	47	noun	list	1	10	nomatch	avec	-1	1	y	0.55653
440.8453	0.0	+	47	noun	list	1	11	nomatch	avec	-1	1	y	0.55653
441.2452	0.0	+	47	noun	list	1	12	nomatch	avec	-1	1	y	0.55653
443.24420000000003	0.0	AVEC	47	noun	list	1	13	nomatch	avec	-1	1	y	0.55653
443.86060000000003	0.0	+	47	noun	list	1	14	nomatch	avec	-1	1	y	0.55653
443.8008000000001	0.0	[response]	47	noun	list	1	15	nomatch	avec	-1	1	y	0.55653
445.6431	0.0	+	48	noun	list	2	1	nomatch	doit	-1	1	y	0.66701
446.1929	0.2	dln	48	noun	list	2	2	nomatch	doit	-1	1	y	0.66701
446.3928	0.0	+	48	noun	list	2	3	nomatch	doit	-1	1	y	0.66701
446.79260000000005	0.2	vzck	48	noun	list	2	4	nomatch	doit	-1	1	y	0.66701
446.9925	0.0	+	48	noun	list	2	5	nomatch	doit	-1	1	y	0.66701
447.3924	0.2	vh	48	noun	list	2	6	nomatch	doit	-1	1	y	0.66701
447.5923	0.0	+	48	noun	list	2	7	nomatch	doit	-1	1	y	0.66701
447.99210000000005	0.2	boîtier	48	noun	list	2	8	nomatch	doit	-1	1	y	0.66701
448.192	0.0	+	48	noun	list	2	9	nomatch	doit	-1	1	y	0.66701
448.59180000000003	0.2	vite	48	noun	list	2	10	nomatch	doit	-1	1	y	0.66701
448.79170000000005	0.0	+	48	noun	list	2	11	nomatch	doit	-1	1	y	0.66701
449.1915	0.0	+	48	noun	list	2	12	nomatch	doit	-1	1	y	0.66701
451.1906	0.0	DOIT	48	noun	list	2	13	nomatch	doit	-1	1	y	0.66701
451.9236	0.0	+	48	noun	list	2	14	nomatch	doit	-1	1	y	0.66701
451.85760000000005	0.0	[response]	48	noun	list	2	15	nomatch	doit	-1	1	y	0.66701
469.59900000000005	0.0	+	49	noun	phrase	1	1	match	grand	5	1	p	0.35365
470.1487000000001	0.2	vwtnhkc	49	noun	phrase	1	2	match	grand	5	1	p	0.35365
470.34860000000003	0.0	+	49	noun	phrase	1	3	match	grand	5	1	p	0.35365
470.74840000000006	0.2	kgzb	49	noun	phrase	1	4	match	grand	5	1	p	0.35365
470.9483	0.0	+	49	noun	phrase	1	5	match	grand	5	1	p	0.35365
471.3482	0.2	gbl	49	noun	phrase	1	6	match	grand	5	1	p	0.35365
471.5481	0.0	+	49	noun	phrase	1	7	match	grand	5	1	p	0.35365
471.9479	0.2	lwrtjf	49	noun	phrase	1	8	match	grand	5	1	p	0.35365
472.1478000000001	0.0	+	49	noun	phrase	1	9	match	grand	5	1	p	0.35365
472.5476	0.2	grand	49	noun	phrase	1	10	match	grand	5	1	p	0.35365
472.74750000000006	0.0	+	49	noun	phrase	1	11	match	grand	5	1	p	0.35365
473.1473	0.0	+	49	noun	phrase	1	12	match	grand	5	1	p	0.35365
475.14650000000006	0.0	GRAND	49	noun	phrase	1	13	match	grand	5	1	p	0.35365
475.5629	0.0	+	49	noun	phrase	1	14	match	grand	5	1	p	0.35365
475.5001	0.0	[response]	49	noun	phrase	1	15	match	grand	5	1	p	0.35365
477.5454	0.0	+	50	noun	list	1	1	nomatch	trop	-1	1	y	1.1962
478.0951	0.2	hvwkbzc	50	noun	list	1	2	nomatch	trop	-1	1	y	1.1962
478.2950000000001	0.0	+	50	noun	list	1	3	nomatch	trop	-1	1	y	1.1962
478.6948	0.2	rdft	50	noun	list	1	4	nomatch	trop	-1	1	y	1.1962
478.89470000000006	0.0	+	50	noun	list	1	5	nomatch	trop	-1	1	y	1.1962
479.29460000000006	0.2	bwgs	50	noun	list	1	6	nomatch	trop	-1	1	y	1.1962
479.4945	0.0	+	50	noun	list	1	7	nomatch	trop	-1	1	y	1.1962
479.89430000000004	0.2	dbcsxtr	50	noun	list	1	8	nomatch	trop	-1	1	y	1.1962
480.0942	0.0	+	50	noun	list	1	9	nomatch	trop	-1	1	y	1.1962
480.494	0.2	plus	50	noun	list	1	10	nomatch	trop	-1	1	y	1.1962
480.6939	0.0	+	50	noun	list	1	11	nomatch	trop	-1	1	y	1.1962
481.0937	0.0	+	50	noun	list	1	12	nomatch	trop	-1	1	y	1.1962
483.0929	0.0	TROP	50	noun	list	1	13	nomatch	trop	-1	1	y	1.1962
484.3423	0.0	+	50	noun	list	1	14	nomatch	trop	-1	1	y	1.1962
484.289	0.0	[response]	50	noun	list	1	15	nomatch	trop	-1	1	y	1.1962
485.49170000000004	0.0	+	51	verb	phrase	2	1	nomatch	danser	-1	1	y	0.64279
486.04150000000004	0.2	bcwmh	51	verb	phrase	2	2	nomatch	danser	-1	1	y	0.64279
486.2414	0.0	+	51	verb	phrase	2	3	nomatch	danser	-1	1	y	0.64279
486.6412	0.2	wzvq	51	verb	phrase	2	4	nomatch	danser	-1	1	y	0.64279
486.8411	0.0	+	51	verb	phrase	2	5	nomatch	danser	-1	1	y	0.64279
487.241	0.2	vh	51	verb	phrase	2	6	nomatch	danser	-1	1	y	0.64279
487.44090000000006	0.0	+	51	verb	phrase	2	7	nomatch	danser	-1	1	y	0.64279
487.84069999999997	0.2	moins	51	verb	phrase	2	8	nomatch	danser	-1	1	y	0.64279
488.04060000000004	0.0	+	51	verb	phrase	2	9	nomatch	danser	-1	1	y	0.64279
488.44040000000007	0.2	rouler	51	verb	phrase	2	10	nomatch	danser	-1	1	y	0.64279
488.6403	0.0	+	51	verb	phrase	2	11	nomatch	danser	-1	1	y	0.64279
489.04010000000005	0.0	+	51	verb	phrase	2	12	nomatch	danser	-1	1	y	0.64279
491.03920000000005	0.0	DANSER	51	verb	phrase	2	13	nomatch	danser	-1	1	y	0.64279
491.73890000000006	0.0	+	51	verb	phrase	2	14	nomatch	danser	-1	1	y	0.64279
491.68200000000013	0.0	[response]	51	verb	phrase	2	15	nomatch	danser	-1	1	y	0.64279
493.43820000000005	0.0	+	52	noun	list	1	1	nomatch	avec	-1	1	y	0.851
493.98789999999997	0.2	mtxfkq	52	noun	list	1	2	nomatch	avec	-1	1	y	0.851
494.18780000000004	0.0	+	52	noun	list	1	3	nomatch	avec	-1	1	y	0.851
494.58760000000007	0.2	mthp	52	noun	list	1	4	nomatch	avec	-1	1	y	0.851
494.7875	0.0	+	52	noun	list	1	5	nomatch	avec	-1	1	y	0.851
495.1874	0.2	gbl	52	noun	list	1	6	nomatch	avec	-1	1	y	0.851
495.3873	0.0	+	52	noun	list	1	7	nomatch	avec	-1	1	y	0.851
495.7871	0.2	mcbnkh	52	noun	list	1	8	nomatch	avec	-1	1	y	0.851
495.98699999999997	0.0	+	52	noun	list	1	9	nomatch	avec	-1	1	y	0.851
496.3868	0.2	beaucoup	52	noun	list	1	10	nomatch	avec	-1	1	y	0.851
496.58670000000006	0.0	+	52	noun	list	1	11	nomatch	avec	-1	1	y	0.851
496.9865	0.0	+	52	noun	list	1	12	nomatch	avec	-1	1	y	0.851
498.9856	0.0	AVEC	52	noun	list	1	13	nomatch	avec	-1	1	y	0.851
499.90190000000007	0.0	+	52	noun	list	1	14	nomatch	avec	-1	1	y	0.851
499.8366	0.0	[response]	52	noun	list	1	15	nomatch	avec	-1	1	y	0.851
501.3846	0.0	+	53	verb	phrase	3	1	nomatch	ainsi	-1	1	y	0.55344
501.9343	0.2	rlkwhnb	53	verb	phrase	3	2	nomatch	ainsi	-1	1	y	0.55344
502.1342000000001	0.0	+	53	verb	phrase	3	3	nomatch	ainsi	-1	1	y	0.55344
502.534	0.2	wzvq	53	verb	phrase	3	4	nomatch	ainsi	-1	1	y	0.55344
502.73390000000006	0.0	+	53	verb	phrase	3	5	nomatch	ainsi	-1	1	y	0.55344
503.13380000000006	0.2	doit	53	verb	phrase	3	6	nomatch	ainsi	-1	1	y	0.55344
503.3337	0.0	+	53	verb	phrase	3	7	nomatch	ainsi	-1	1	y	0.55344
503.7336	0.2	galoper	53	verb	phrase	3	8	nomatch	ainsi	-1	1	y	0.55344
503.9501	0.0	+	53	verb	phrase	3	9	nomatch	ainsi	-1	1	y	0.55344
504.34990000000005	0.2	loin	53	verb	phrase	3	10	nomatch	ainsi	-1	1	y	0.55344
504.5498	0.0	+	53	verb	phrase	3	11	nomatch	ainsi	-1	1	y	0.55344
504.94960000000003	0.0	+	53	verb	phrase	3	12	nomatch	ainsi	-1	1	y	0.55344
506.94870000000003	0.0	AINSI	53	verb	phrase	3	13	nomatch	ainsi	-1	1	y	0.55344
507.56510000000003	0.0	+	53	verb	phrase	3	14	nomatch	ainsi	-1	1	y	0.55344
507.50210000000004	0.0	[response]	53	verb	phrase	3	15	nomatch	ainsi	-1	1	y	0.55344
509.34760000000006	0.0	+	54	verb	list	3	1	nomatch	voilier	-1	1	y	0.60118
509.89740000000006	0.2	pbn	54	verb	list	3	2	nomatch	voilier	-1	1	y	0.60118
510.0973	0.0	+	54	verb	list	3	3	nomatch	voilier	-1	1	y	0.60118
510.49710000000005	0.2	wlmq	54	verb	list	3	4	nomatch	voilier	-1	1	y	0.60118
510.697	0.0	+	54	verb	list	3	5	nomatch	voilier	-1	1	y	0.60118
511.09680000000003	0.2	mon	54	verb	list	3	6	nomatch	voilier	-1	1	y	0.60118
511.2967	0.0	+	54	verb	list	3	7	nomatch	voilier	-1	1	y	0.60118
511.6965	0.2	chasser	54	verb	list	3	8	nomatch	voilier	-1	1	y	0.60118
511.89650000000006	0.0	+	54	verb	list	3	9	nomatch	voilier	-1	1	y	0.60118
512.2963	0.2	blanc	54	verb	list	3	10	nomatch	voilier	-1	1	y	0.60118
512.4962	0.0	+	54	verb	list	3	11	nomatch	voilier	-1	1	y	0.60118
512.8960000000001	0.0	+	54	verb	list	3	12	nomatch	voilier	-1	1	y	0.60118
514.8951000000001	0.0	VOILIER	54	verb	list	3	13	nomatch	voilier	-1	1	y	0.60118
515.5615	0.0	+	54	verb	list	3	14	nomatch	voilier	-1	1	y	0.60118
515.4963	0.0	[response]	54	verb	list	3	15	nomatch	voilier	-1	1	y	0.60118
517.294	0.0	+	55	verb	phrase	3	1	match	va	3	1	p	0.42193
517.8438	0.2	bnm	55	verb	phrase	3	2	match	va	3	1	p	0.42193
518.0437000000001	0.0	+	55	verb	phrase	3	3	match	va	3	1	p	0.42193
518.4435	0.2	gbpr	55	verb	phrase	3	4	match	va	3	1	p	0.42193
518.6434	0.0	+	55	verb	phrase	3	5	match	va	3	1	p	0.42193
519.0432000000001	0.2	va	55	verb	phrase	3	6	match	va	3	1	p	0.42193
519.2431	0.0	+	55	verb	phrase	3	7	match	va	3	1	p	0.42193
519.6429	0.2	danser	55	verb	phrase	3	8	match	va	3	1	p	0.42193
519.8428	0.0	+	55	verb	phrase	3	9	match	va	3	1	p	0.42193
520.2427	0.2	vite	55	verb	phrase	3	10	match	va	3	1	p	0.42193
520.4426	0.0	+	55	verb	phrase	3	11	match	va	3	1	p	0.42193
520.8424	0.0	+	55	verb	phrase	3	12	match	va	3	1	p	0.42193
522.8415	0.0	VA	55	verb	phrase	3	13	match	va	3	1	p	0.42193
523.3246	0.0	+	55	verb	phrase	3	14	match	va	3	1	p	0.42193
523.2634000000002	0.0	[response]	55	verb	phrase	3	15	match	va	3	1	p	0.42193
533.2368	0.0	+	56	noun	phrase	2	1	match	rocher	4	1	p	0.55283
533.7865	0.2	hpzwmkx	56	noun	phrase	2	2	match	rocher	4	1	p	0.55283
533.9864	0.0	+	56	noun	phrase	2	3	match	rocher	4	1	p	0.55283
534.3863	0.2	ntmd	56	noun	phrase	2	4	match	rocher	4	1	p	0.55283
534.5862000000001	0.0	+	56	noun	phrase	2	5	match	rocher	4	1	p	0.55283
534.986	0.2	gbl	56	noun	phrase	2	6	match	rocher	4	1	p	0.55283
535.1859000000001	0.0	+	56	noun	phrase	2	7	match	rocher	4	1	p	0.55283
535.5857	0.2	rocher	56	noun	phrase	2	8	match	rocher	4	1	p	0.55283
535.7856	0.0	+	56	noun	phrase	2	9	match	rocher	4	1	p	0.55283
536.1854000000001	0.2	blanc	56	noun	phrase	2	10	match	rocher	4	1	p	0.55283
536.3853	0.0	+	56	noun	phrase	2	11	match	rocher	4	1	p	0.55283
536.7852	0.0	+	56	noun	phrase	2	12	match	rocher	4	1	p	0.55283
538.7843	0.0	ROCHER	56	noun	phrase	2	13	match	rocher	4	1	p	0.55283
539.4007	0.0	+	56	noun	phrase	2	14	match	rocher	4	1	p	0.55283
539.3371000000001	0.0	[response]	56	noun	phrase	2	15	match	rocher	4	1	p	0.55283
549.1962	0.0	+	57	verb	list	4	1	match	nager	5	1	p	0.50877
549.746	0.2	mlj	57	verb	list	4	2	match	nager	5	1	p	0.50877
549.9459	0.0	+	57	verb	list	4	3	match	nager	5	1	p	0.50877
550.3457000000001	0.2	pour	57	verb	list	4	4	match	nager	5	1	p	0.50877
550.5456	0.0	+	57	verb	list	4	5	match	nager	5	1	p	0.50877
550.9454000000001	0.2	doit	57	verb	list	4	6	match	nager	5	1	p	0.50877
551.1453	0.0	+	57	verb	list	4	7	match	nager	5	1	p	0.50877
551.5451	0.2	petit	57	verb	list	4	8	match	nager	5	1	p	0.50877
551.745	0.0	+	57	verb	list	4	9	match	nager	5	1	p	0.50877
552.1449	0.2	nager	57	verb	list	4	10	match	nager	5	1	p	0.50877
552.3448000000001	0.0	+	57	verb	list	4	11	match	nager	5	1	p	0.50877
552.7446	0.0	+	57	verb	list	4	12	match	nager	5	1	p	0.50877
554.7437	0.0	NAGER	57	verb	list	4	13	match	nager	5	1	p	0.50877
555.3101	0.0	+	57	verb	list	4	14	match	nager	5	1	p	0.50877
555.2525	0.0	[response]	57	verb	list	4	15	match	nager	5	1	p	0.50877
557.1426	0.0	+	58	noun	list	1	1	nomatch	ainsi	-1	1	y	0.38509
557.6924	0.2	crkmx	58	noun	list	1	2	nomatch	ainsi	-1	1	y	0.38509
557.8923	0.0	+	58	noun	list	1	3	nomatch	ainsi	-1	1	y	0.38509
558.2921	0.2	vzck	58	noun	list	1	4	nomatch	ainsi	-1	1	y	0.38509
558.4920000000001	0.0	+	58	noun	list	1	5	nomatch	ainsi	-1	1	y	0.38509
558.8918	0.2	vh	58	noun	list	1	6	nomatch	ainsi	-1	1	y	0.38509
559.0917000000001	0.0	+	58	noun	list	1	7	nomatch	ainsi	-1	1	y	0.38509
559.4915	0.2	nzxl	58	noun	list	1	8	nomatch	ainsi	-1	1	y	0.38509
559.6915	0.0	+	58	noun	list	1	9	nomatch	ainsi	-1	1	y	0.38509
560.0913	0.2	grenier	58	noun	list	1	10	nomatch	ainsi	-1	1	y	0.38509
560.2912	0.0	+	58	noun	list	1	11	nomatch	ainsi	-1	1	y	0.38509
560.691	0.0	+	58	noun	list	1	12	nomatch	ainsi	-1	1	y	0.38509
562.6901	0.0	AINSI	58	noun	list	1	13	nomatch	ainsi	-1	1	y	0.38509
563.1399	0.0	+	58	noun	list	1	14	nomatch	ainsi	-1	1	y	0.38509
563.0752	0.0	[response]	58	noun	list	1	15	nomatch	ainsi	-1	1	y	0.38509
581.0984	0.0	+	59	verb	list	2	1	nomatch	tard	-1	1	y	0.50505
581.6482	0.2	fztm	59	verb	list	2	2	nomatch	tard	-1	1	y	0.50505
581.8481	0.0	+	59	verb	list	2	3	nomatch	tard	-1	1	y	0.50505
582.2479000000001	0.2	wlmq	59	verb	list	2	4	nomatch	tard	-1	1	y	0.50505
582.4478	0.0	+	59	verb	list	2	5	nomatch	tard	-1	1	y	0.50505
582.8476	0.2	gbl	59	verb	list	2	6	nomatch	tard	-1	1	y	0.50505
583.0476	0.0	+	59	verb	list	2	7	nomatch	tard	-1	1	y	0.50505
583.4473	0.2	galoper	59	verb	list	2	8	nomatch	tard	-1	1	y	0.50505
583.6473	0.0	+	59	verb	list	2	9	nomatch	tard	-1	1	y	0.50505
584.0471	0.2	vert	59	verb	list	2	10	nomatch	tard	-1	1	y	0.50505
584.2470000000001	0.0	+	59	verb	list	2	11	nomatch	tard	-1	1	y	0.50505
584.6468	0.0	+	59	verb	list	2	12	nomatch	tard	-1	1	y	0.50505
586.6459	0.0	TARD	59	verb	list	2	13	nomatch	tard	-1	1	y	0.50505
587.2123	0.0	+	59	verb	list	2	14	nomatch	tard	-1	1	y	0.50505
587.1509	0.0	[response]	59	verb	list	2	15	nomatch	tard	-1	1	y	0.50505
589.0448	0.0	+	60	verb	phrase	2	1	match	ainsi	5	1	p	1.1973
589.5946	0.2	dkhzbv	60	verb	phrase	2	2	match	ainsi	5	1	p	1.1973
589.7945	0.0	+	60	verb	phrase	2	3	match	ainsi	5	1	p	1.1973
590.1943	0.2	cdsf	60	verb	phrase	2	4	match	ainsi	5	1	p	1.1973
590.3942000000001	0.0	+	60	verb	phrase	2	5	match	ainsi	5	1	p	1.1973
590.794	0.2	hljn	60	verb	phrase	2	6	match	ainsi	5	1	p	1.1973
590.9939	0.0	+	60	verb	phrase	2	7	match	ainsi	5	1	p	1.1973
591.3937	0.2	danser	60	verb	phrase	2	8	match	ainsi	5	1	p	1.1973
591.5936	0.0	+	60	verb	phrase	2	9	match	ainsi	5	1	p	1.1973
591.9935	0.2	ainsi	60	verb	phrase	2	10	match	ainsi	5	1	p	1.1973
592.1934	0.0	+	60	verb	phrase	2	11	match	ainsi	5	1	p	1.1973
592.5932	0.0	+	60	verb	phrase	2	12	match	ainsi	5	1	p	1.1973
594.5923	0.0	AINSI	60	verb	phrase	2	13	match	ainsi	5	1	p	1.1973
595.8417000000001	0.0	+	60	verb	phrase	2	14	match	ainsi	5	1	p	1.1973
595.7896000000001	0.0	[response]	60	verb	phrase	2	15	match	ainsi	5	1	p	1.1973
596.9912	0.0	+	61	verb	phrase	4	1	nomatch	mon	-1	1	y	0.56748
597.541	0.2	xvsk	61	verb	phrase	4	2	nomatch	mon	-1	1	y	0.56748
597.7409	0.0	+	61	verb	phrase	4	3	nomatch	mon	-1	1	y	0.56748
598.1407	0.2	luc	61	verb	phrase	4	4	nomatch	mon	-1	1	y	0.56748
598.3406	0.0	+	61	verb	phrase	4	5	nomatch	mon	-1	1	y	0.56748
598.7404	0.2	peut	61	verb	phrase	4	6	nomatch	mon	-1	1	y	0.56748
598.9403	0.0	+	61	verb	phrase	4	7	nomatch	mon	-1	1	y	0.56748
599.3401	0.2	rouler	61	verb	phrase	4	8	nomatch	mon	-1	1	y	0.56748
599.5400000000001	0.0	+	61	verb	phrase	4	9	nomatch	mon	-1	1	y	0.56748
599.9399	0.2	vite	61	verb	phrase	4	10	nomatch	mon	-1	1	y	0.56748
600.1398	0.0	+	61	verb	phrase	4	11	nomatch	mon	-1	1	y	0.56748
600.5396000000001	0.0	+	61	verb	phrase	4	12	nomatch	mon	-1	1	y	0.56748
602.5387000000001	0.0	MON	61	verb	phrase	4	13	nomatch	mon	-1	1	y	0.56748
603.1717	0.0	+	61	verb	phrase	4	14	nomatch	mon	-1	1	y	0.56748
603.1062000000001	0.0	[response]	61	verb	phrase	4	15	nomatch	mon	-1	1	y	0.56748
604.9376	0.0	+	62	noun	list	2	1	match	trop	4	1	p	0.44611
605.4874	0.2	jpctz	62	noun	list	2	2	match	trop	4	1	p	0.44611
605.6873	0.0	+	62	noun	list	2	3	match	trop	4	1	p	0.44611
606.0871000000001	0.2	cdsf	62	noun	list	2	4	match	trop	4	1	p	0.44611
606.287	0.0	+	62	noun	list	2	5	match	trop	4	1	p	0.44611
606.6868000000001	0.2	bqm	62	noun	list	2	6	match	trop	4	1	p	0.44611
606.8867	0.0	+	62	noun	list	2	7	match	trop	4	1	p	0.44611
607.2865	0.2	trop	62	noun	list	2	8	match	trop	4	1	p	0.44611
607.4864	0.0	+	62	noun	list	2	9	match	trop	4	1	p	0.44611
607.8863	0.2	cendrier	62	noun	list	2	10	match	trop	4	1	p	0.44611
608.0862000000001	0.0	+	62	noun	list	2	11	match	trop	4	1	p	0.44611
608.486	0.0	+	62	noun	list	2	12	match	trop	4	1	p	0.44611
610.4855	0.0	TROP	62	noun	list	2	13	match	trop	4	1	p	0.44611
610.9849	0.0	+	62	noun	list	2	14	match	trop	4	1	p	0.44611
610.9316	0.0	[response]	62	noun	list	2	15	match	trop	4	1	p	0.44611
620.897	0.0	+	63	verb	phrase	1	1	nomatch	grand	-1	1	y	0.49325
621.4468	0.2	krw	63	verb	phrase	1	2	nomatch	grand	-1	1	y	0.49325
621.6467	0.0	+	63	verb	phrase	1	3	nomatch	grand	-1	1	y	0.49325
622.0465	0.2	mthp	63	verb	phrase	1	4	nomatch	grand	-1	1	y	0.49325
622.2464	0.0	+	63	verb	phrase	1	5	nomatch	grand	-1	1	y	0.49325
622.6462	0.2	cpqb	63	verb	phrase	1	6	nomatch	grand	-1	1	y	0.49325
622.8462000000001	0.0	+	63	verb	phrase	1	7	nomatch	grand	-1	1	y	0.49325
623.246	0.2	pltczgd	63	verb	phrase	1	8	nomatch	grand	-1	1	y	0.49325
623.4459	0.0	+	63	verb	phrase	1	9	nomatch	grand	-1	1	y	0.49325
623.8457000000001	0.2	vite	63	verb	phrase	1	10	nomatch	grand	-1	1	y	0.49325
624.0456	0.0	+	63	verb	phrase	1	11	nomatch	grand	-1	1	y	0.49325
624.4454000000001	0.0	+	63	verb	phrase	1	12	nomatch	grand	-1	1	y	0.49325
626.4445000000001	0.0	GRAND	63	verb	phrase	1	13	nomatch	grand	-1	1	y	0.49325
626.9943000000001	0.0	+	63	verb	phrase	1	14	nomatch	grand	-1	1	y	0.49325
626.9378	0.0	[response]	63	verb	phrase	1	15	nomatch	grand	-1	1	y	0.49325
628.8434	0.0	+	64	verb	phrase	1	1	match	trop	5	1	p	0.41004
629.3932	0.2	zpcnhgq	64	verb	phrase	1	2	match	trop	5	1	p	0.41004
629.5931	0.0	+	64	verb	phrase	1	3	match	trop	5	1	p	0.41004
629.9929000000001	0.2	mrn	64	verb	phrase	1	4	match	trop	5	1	p	0.41004
630.1928	0.0	+	64	verb	phrase	1	5	match	trop	5	1	p	0.41004
630.5926000000001	0.2	hljn	64	verb	phrase	1	6	match	trop	5	1	p	0.41004
630.7926	0.0	+	64	verb	phrase	1	7	match	trop	5	1	p	0.41004
631.1924	0.2	jwdcmvn	64	verb	phrase	1	8	match	trop	5	1	p	0.41004
631.3923	0.0	+	64	verb	phrase	1	9	match	trop	5	1	p	0.41004
631.7921	0.2	trop	64	verb	phrase	1	10	match	trop	5	1	p	0.41004
631.9920000000001	0.0	+	64	verb	phrase	1	11	match	trop	5	1	p	0.41004
632.3918	0.0	+	64	verb	phrase	1	12	match	trop	5	1	p	0.41004
634.3909	0.0	TROP	64	verb	phrase	1	13	match	trop	5	1	p	0.41004
634.8574	0.0	+	64	verb	phrase	1	14	match	trop	5	1	p	0.41004
634.801	0.0	[response]	64	verb	phrase	1	15	match	trop	5	1	p	0.41004
636.7898	0.0	+	65	verb	phrase	1	1	match	beaucoup	5	1	p	0.38455
637.3396	0.2	jbhpmf	65	verb	phrase	1	2	match	beaucoup	5	1	p	0.38455
637.5395	0.0	+	65	verb	phrase	1	3	match	beaucoup	5	1	p	0.38455
637.9393	0.2	mthp	65	verb	phrase	1	4	match	beaucoup	5	1	p	0.38455
638.1392000000001	0.0	+	65	verb	phrase	1	5	match	beaucoup	5	1	p	0.38455
638.5391000000001	0.2	vh	65	verb	phrase	1	6	match	beaucoup	5	1	p	0.38455
638.7389000000001	0.0	+	65	verb	phrase	1	7	match	beaucoup	5	1	p	0.38455
639.1388000000001	0.2	pkwnqd	65	verb	phrase	1	8	match	beaucoup	5	1	p	0.38455
639.3387	0.0	+	65	verb	phrase	1	9	match	beaucoup	5	1	p	0.38455
639.7385	0.2	beaucoup	65	verb	phrase	1	10	match	beaucoup	5	1	p	0.38455
639.9384	0.0	+	65	verb	phrase	1	11	match	beaucoup	5	1	p	0.38455
640.3382	0.0	+	65	verb	phrase	1	12	match	beaucoup	5	1	p	0.38455
642.3373	0.0	BEAUCOUP	65	verb	phrase	1	13	match	beaucoup	5	1	p	0.38455
642.7871	0.0	+	65	verb	phrase	1	14	match	beaucoup	5	1	p	0.38455
642.7219	0.0	[response]	65	verb	phrase	1	15	match	beaucoup	5	1	p	0.38455
644.7362	0.0	+	66	verb	list	4	1	nomatch	voilier	-1	1	y	0.56069
645.2860000000001	0.2	xjqrt	66	verb	list	4	2	nomatch	voilier	-1	1	y	0.56069
645.4859	0.0	+	66	verb	list	4	3	nomatch	voilier	-1	1	y	0.56069
645.8857	0.2	sous	66	verb	list	4	4	nomatch	voilier	-1	1	y	0.56069
646.0856	0.0	+	66	verb	list	4	5	nomatch	voilier	-1	1	y	0.56069
646.4854	0.2	va	66	verb	list	4	6	nomatch	voilier	-1	1	y	0.56069
646.6853	0.0	+	66	verb	list	4	7	nomatch	voilier	-1	1	y	0.56069
647.0852	0.2	grand	66	verb	list	4	8	nomatch	voilier	-1	1	y	0.56069
647.2851	0.0	+	66	verb	list	4	9	nomatch	voilier	-1	1	y	0.56069
647.6849	0.2	jongler	66	verb	list	4	10	nomatch	voilier	-1	1	y	0.56069
647.8848	0.0	+	66	verb	list	4	11	nomatch	voilier	-1	1	y	0.56069
648.2846000000001	0.0	+	66	verb	list	4	12	nomatch	voilier	-1	1	y	0.56069
650.2838	0.0	VOILIER	66	verb	list	4	13	nomatch	voilier	-1	1	y	0.56069
650.9001000000001	0.0	+	66	verb	list	4	14	nomatch	voilier	-1	1	y	0.56069
650.8445	0.0	[response]	66	verb	list	4	15	nomatch	voilier	-1	1	y	0.56069
652.6993	0.0	+	67	verb	list	2	1	nomatch	beaucoup	-1	1	y	0.52241
653.249	0.2	bkprl	67	verb	list	2	2	nomatch	beaucoup	-1	1	y	0.52241
653.4489	0.0	+	67	verb	list	2	3	nomatch	beaucoup	-1	1	y	0.52241
653.8488	0.2	ntmd	67	verb	list	2	4	nomatch	beaucoup	-1	1	y	0.52241
654.0487	0.0	+	67	verb	list	2	5	nomatch	beaucoup	-1	1	y	0.52241
654.4485	0.2	hljn	67	verb	list	2	6	nomatch	beaucoup	-1	1	y	0.52241
654.6484	0.0	+	67	verb	list	2	7	nomatch	beaucoup	-1	1	y	0.52241
655.0482000000001	0.2	vieux	67	verb	list	2	8	nomatch	beaucoup	-1	1	y	0.52241
655.2481	0.0	+	67	verb	list	2	9	nomatch	beaucoup	-1	1	y	0.52241
655.648	0.2	chasser	67	verb	list	2	10	nomatch	beaucoup	-1	1	y	0.52241
655.8479	0.0	+	67	verb	list	2	11	nomatch	beaucoup	-1	1	y	0.52241
656.2477	0.0	+	67	verb	list	2	12	nomatch	beaucoup	-1	1	y	0.52241
658.2468	0.0	BEAUCOUP	67	verb	list	2	13	nomatch	beaucoup	-1	1	y	0.52241
658.8298	0.0	+	67	verb	list	2	14	nomatch	beaucoup	-1	1	y	0.52241
658.7692000000001	0.0	[response]	67	verb	list	2	15	nomatch	beaucoup	-1	1	y	0.52241
660.6457	0.0	+	68	verb	list	1	1	nomatch	rouler	-1	1	y	0.52895
661.1954000000001	0.2	lphwtz	68	verb	list	1	2	nomatch	rouler	-1	1	y	0.52895
661.3954	0.0	+	68	verb	list	1	3	nomatch	rouler	-1	1	y	0.52895
661.7952	0.2	wlmq	68	verb	list	1	4	nomatch	rouler	-1	1	y	0.52895
661.9951	0.0	+	68	verb	list	1	5	nomatch	rouler	-1	1	y	0.52895
662.3949	0.2	bwgs	68	verb	list	1	6	nomatch	rouler	-1	1	y	0.52895
662.5948000000001	0.0	+	68	verb	list	1	7	nomatch	rouler	-1	1	y	0.52895
662.9946	0.2	rzwvd	68	verb	list	1	8	nomatch	rouler	-1	1	y	0.52895
663.1945000000001	0.0	+	68	verb	list	1	9	nomatch	rouler	-1	1	y	0.52895
663.5944000000001	0.2	jongler	68	verb	list	1	10	nomatch	rouler	-1	1	y	0.52895
663.7943	0.0	+	68	verb	list	1	11	nomatch	rouler	-1	1	y	0.52895
664.1941	0.0	+	68	verb	list	1	12	nomatch	rouler	-1	1	y	0.52895
666.1932	0.0	ROULER	68	verb	list	1	13	nomatch	rouler	-1	1	y	0.52895
666.7762	0.0	+	68	verb	list	1	14	nomatch	rouler	-1	1	y	0.52895
666.7221000000001	0.0	[response]	68	verb	list	1	15	nomatch	rouler	-1	1	y	0.52895
668.5921000000001	0.0	+	69	verb	list	1	1	match	patiner	5	1	p	1.8483
669.1418	0.2	kptchn	69	verb	list	1	2	match	patiner	5	1	p	1.8483
669.3417000000001	0.0	+	69	verb	list	1	3	match	patiner	5	1	p	1.8483
669.7416000000001	0.2	mrn	69	verb	list	1	4	match	patiner	5	1	p	1.8483
669.9415	0.0	+	69	verb	list	1	5	match	patiner	5	1	p	1.8483
670.3413	0.2	gbl	69	verb	list	1	6	match	patiner	5	1	p	1.8483
670.5412	0.0	+	69	verb	list	1	7	match	patiner	5	1	p	1.8483
670.941	0.2	phzd	69	verb	list	1	8	match	patiner	5	1	p	1.8483
671.1409	0.0	+	69	verb	list	1	9	match	patiner	5	1	p	1.8483
671.5407	0.2	patiner	69	verb	list	1	10	match	patiner	5	1	p	1.8483
671.7407000000001	0.0	+	69	verb	list	1	11	match	patiner	5	1	p	1.8483
672.1405	0.0	+	69	verb	list	1	12	match	patiner	5	1	p	1.8483
674.1396	0.0	PATINER	69	verb	list	1	13	match	patiner	5	1	p	1.8483
676.0554000000001	0.0	+	69	verb	list	1	14	match	patiner	5	1	p	1.8483
675.9879	0.0	[response]	69	verb	list	1	15	match	patiner	5	1	p	1.8483
676.5385	0.0	+	70	verb	list	4	1	match	galoper	4	1	p	0.45971
677.0882	0.2	zqbjsgf	70	verb	list	4	2	match	galoper	4	1	p	0.45971
677.2881	0.0	+	70	verb	list	4	3	match	galoper	4	1	p	0.45971
677.688	0.2	adam	70	verb	list	4	4	match	galoper	4	1	p	0.45971
677.8879000000001	0.0	+	70	verb	list	4	5	match	galoper	4	1	p	0.45971
678.2877	0.2	son	70	verb	list	4	6	match	galoper	4	1	p	0.45971
678.4876	0.0	+	70	verb	list	4	7	match	galoper	4	1	p	0.45971
678.8874000000001	0.2	galoper	70	verb	list	4	8	match	galoper	4	1	p	0.45971
679.0873	0.0	+	70	verb	list	4	9	match	galoper	4	1	p	0.45971
679.4871	0.2	blanc	70	verb	list	4	10	match	galoper	4	1	p	0.45971
679.6871	0.0	+	70	verb	list	4	11	match	galoper	4	1	p	0.45971
680.0869	0.0	+	70	verb	list	4	12	match	galoper	4	1	p	0.45971
682.086	0.0	GALOPER	70	verb	list	4	13	match	galoper	4	1	p	0.45971
682.6024	0.0	+	70	verb	list	4	14	match	galoper	4	1	p	0.45971
682.5457	0.0	[response]	70	verb	list	4	15	match	galoper	4	1	p	0.45971
684.4849	0.0	+	71	verb	phrase	4	1	match	chasser	4	1	p	0.59027
685.0346000000001	0.2	qfxhlb	71	verb	phrase	4	2	match	chasser	4	1	p	0.59027
685.2345	0.0	+	71	verb	phrase	4	3	match	chasser	4	1	p	0.59027
685.6344	0.2	jade	71	verb	phrase	4	4	match	chasser	4	1	p	0.59027
685.8343	0.0	+	71	verb	phrase	4	5	match	chasser	4	1	p	0.59027
686.2341	0.2	peut	71	verb	phrase	4	6	match	chasser	4	1	p	0.59027
686.434	0.0	+	71	verb	phrase	4	7	match	chasser	4	1	p	0.59027
686.8338	0.2	chasser	71	verb	phrase	4	8	match	chasser	4	1	p	0.59027
687.0337000000001	0.0	+	71	verb	phrase	4	9	match	chasser	4	1	p	0.59027
687.4336000000001	0.2	ainsi	71	verb	phrase	4	10	match	chasser	4	1	p	0.59027
687.6501000000001	0.0	+	71	verb	phrase	4	11	match	chasser	4	1	p	0.59027
688.0499	0.0	+	71	verb	phrase	4	12	match	chasser	4	1	p	0.59027
690.049	0.0	CHASSER	71	verb	phrase	4	13	match	chasser	4	1	p	0.59027
690.6987	0.0	+	71	verb	phrase	4	14	match	chasser	4	1	p	0.59027
690.6393	0.0	[response]	71	verb	phrase	4	15	match	chasser	4	1	p	0.59027
692.4479	0.0	+	72	noun	list	4	1	nomatch	grenier	-1	1	y	0.55785
692.9977	0.2	kqdc	72	noun	list	4	2	nomatch	grenier	-1	1	y	0.55785
693.1976	0.0	+	72	noun	list	4	3	nomatch	grenier	-1	1	y	0.55785
693.5974	0.2	jean	72	noun	list	4	4	nomatch	grenier	-1	1	y	0.55785
693.7973000000001	0.0	+	72	noun	list	4	5	nomatch	grenier	-1	1	y	0.55785
694.1971	0.2	son	72	noun	list	4	6	nomatch	grenier	-1	1	y	0.55785
694.397	0.0	+	72	noun	list	4	7	nomatch	grenier	-1	1	y	0.55785
694.7969	0.2	beaucoup	72	noun	list	4	8	nomatch	grenier	-1	1	y	0.55785
694.9968	0.0	+	72	noun	list	4	9	nomatch	grenier	-1	1	y	0.55785
695.3966	0.2	rocher	72	noun	list	4	10	nomatch	grenier	-1	1	y	0.55785
695.5965	0.0	+	72	noun	list	4	11	nomatch	grenier	-1	1	y	0.55785
695.9963	0.0	+	72	noun	list	4	12	nomatch	grenier	-1	1	y	0.55785
697.9954	0.0	GRENIER	72	noun	list	4	13	nomatch	grenier	-1	1	y	0.55785
698.6118	0.0	+	72	noun	list	4	14	nomatch	grenier	-1	1	y	0.55785
698.5533	0.0	[response]	72	noun	list	4	15	nomatch	grenier	-1	1	y	0.55785
700.3943	0.0	+	73	noun	phrase	3	1	nomatch	blanc	-1	1	y	0.50155
700.9441	0.2	skhqnct	73	noun	phrase	3	2	nomatch	blanc	-1	1	y	0.50155
701.144	0.0	+	73	noun	phrase	3	3	nomatch	blanc	-1	1	y	0.50155
701.5438	0.2	gxsd	73	noun	phrase	3	4	nomatch	blanc	-1	1	y	0.50155
701.7437	0.0	+	73	noun	phrase	3	5	nomatch	blanc	-1	1	y	0.50155
702.1435	0.2	leur	73	noun	phrase	3	6	nomatch	blanc	-1	1	y	0.50155
702.3434	0.0	+	73	noun	phrase	3	7	nomatch	blanc	-1	1	y	0.50155
702.7433	0.2	petit	73	noun	phrase	3	8	nomatch	blanc	-1	1	y	0.50155
702.9432	0.0	+	73	noun	phrase	3	9	nomatch	blanc	-1	1	y	0.50155
703.3430000000001	0.2	cendrier	73	noun	phrase	3	10	nomatch	blanc	-1	1	y	0.50155
703.5429	0.0	+	73	noun	phrase	3	11	nomatch	blanc	-1	1	y	0.50155
703.9427000000001	0.0	+	73	noun	phrase	3	12	nomatch	blanc	-1	1	y	0.50155
705.9418000000001	0.0	BLANC	73	noun	phrase	3	13	nomatch	blanc	-1	1	y	0.50155
706.5082	0.0	+	73	noun	phrase	3	14	nomatch	blanc	-1	1	y	0.50155
706.4434	0.0	[response]	73	noun	phrase	3	15	nomatch	blanc	-1	1	y	0.50155
708.3407	0.0	+	74	verb	phrase	4	1	nomatch	rocher	-1	1	y	0.63572
708.8905	0.2	qhxr	74	verb	phrase	4	2	nomatch	rocher	-1	1	y	0.63572
709.0904	0.0	+	74	verb	phrase	4	3	nomatch	rocher	-1	1	y	0.63572
709.4902000000001	0.2	adam	74	verb	phrase	4	4	nomatch	rocher	-1	1	y	0.63572
709.6901	0.0	+	74	verb	phrase	4	5	nomatch	rocher	-1	1	y	0.63572
710.0899000000001	0.2	doit	74	verb	phrase	4	6	nomatch	rocher	-1	1	y	0.63572
710.2899	0.0	+	74	verb	phrase	4	7	nomatch	rocher	-1	1	y	0.63572
710.6897	0.2	mieux	74	verb	phrase	4	8	nomatch	rocher	-1	1	y	0.63572
710.8896	0.0	+	74	verb	phrase	4	9	nomatch	rocher	-1	1	y	0.63572
711.2894	0.2	nager	74	verb	phrase	4	10	nomatch	rocher	-1	1	y	0.63572
711.4893000000001	0.0	+	74	verb	phrase	4	11	nomatch	rocher	-1	1	y	0.63572
711.8891	0.0	+	74	verb	phrase	4	12	nomatch	rocher	-1	1	y	0.63572
713.8882	0.0	ROCHER	74	verb	phrase	4	13	nomatch	rocher	-1	1	y	0.63572
714.5879	0.0	+	74	verb	phrase	4	14	nomatch	rocher	-1	1	y	0.63572
714.5239	0.0	[response]	74	verb	phrase	4	15	nomatch	rocher	-1	1	y	0.63572
716.2871	0.0	+	75	verb	phrase	4	1	match	danser	5	1	p	0.80241
716.8369	0.2	mdkbpth	75	verb	phrase	4	2	match	danser	5	1	p	0.80241
717.0368	0.0	+	75	verb	phrase	4	3	match	danser	5	1	p	0.80241
717.4366	0.2	yves	75	verb	phrase	4	4	match	danser	5	1	p	0.80241
717.6365000000001	0.0	+	75	verb	phrase	4	5	match	danser	5	1	p	0.80241
718.0363	0.2	va	75	verb	phrase	4	6	match	danser	5	1	p	0.80241
718.2362	0.0	+	75	verb	phrase	4	7	match	danser	5	1	p	0.80241
718.6361	0.2	moins	75	verb	phrase	4	8	match	danser	5	1	p	0.80241
718.836	0.0	+	75	verb	phrase	4	9	match	danser	5	1	p	0.80241
719.2358	0.2	danser	75	verb	phrase	4	10	match	danser	5	1	p	0.80241
719.4357	0.0	+	75	verb	phrase	4	11	match	danser	5	1	p	0.80241
719.8355	0.0	+	75	verb	phrase	4	12	match	danser	5	1	p	0.80241
721.8346	0.0	DANSER	75	verb	phrase	4	13	match	danser	5	1	p	0.80241
722.7009	0.0	+	75	verb	phrase	4	14	match	danser	5	1	p	0.80241
722.6370000000001	0.0	[response]	75	verb	phrase	4	15	match	danser	5	1	p	0.80241
724.2335	0.0	+	76	verb	phrase	1	1	match	galoper	5	1	p	0.33929
724.7999	0.2	dfqvghr	76	verb	phrase	1	2	match	galoper	5	1	p	0.33929
724.9998	0.0	+	76	verb	phrase	1	3	match	galoper	5	1	p	0.33929
725.3997	0.2	wzvq	76	verb	phrase	1	4	match	galoper	5	1	p	0.33929
725.5996	0.0	+	76	verb	phrase	1	5	match	galoper	5	1	p	0.33929
725.9994	0.2	cpqb	76	verb	phrase	1	6	match	galoper	5	1	p	0.33929
726.1993	0.0	+	76	verb	phrase	1	7	match	galoper	5	1	p	0.33929
726.5991	0.2	wjcf	76	verb	phrase	1	8	match	galoper	5	1	p	0.33929
726.799	0.0	+	76	verb	phrase	1	9	match	galoper	5	1	p	0.33929
727.1989	0.2	galoper	76	verb	phrase	1	10	match	galoper	5	1	p	0.33929
727.3988	0.0	+	76	verb	phrase	1	11	match	galoper	5	1	p	0.33929
727.7986000000001	0.0	+	76	verb	phrase	1	12	match	galoper	5	1	p	0.33929
729.7977000000001	0.0	GALOPER	76	verb	phrase	1	13	match	galoper	5	1	p	0.33929
730.1975	0.0	+	76	verb	phrase	1	14	match	galoper	5	1	p	0.33929
730.1370000000001	0.0	[response]	76	verb	phrase	1	15	match	galoper	5	1	p	0.33929
732.1966	0.0	+	77	verb	list	2	1	match	grand	4	1	p	0.41644000000000003
732.7463	0.2	hsl	77	verb	list	2	2	match	grand	4	1	p	0.41644000000000003
732.9462	0.0	+	77	verb	list	2	3	match	grand	4	1	p	0.41644000000000003
733.3461	0.2	psvm	77	verb	list	2	4	match	grand	4	1	p	0.41644000000000003
733.546	0.0	+	77	verb	list	2	5	match	grand	4	1	p	0.41644000000000003
733.9458000000001	0.2	vh	77	verb	list	2	6	match	grand	4	1	p	0.41644000000000003
734.1457	0.0	+	77	verb	list	2	7	match	grand	4	1	p	0.41644000000000003
734.5455000000001	0.2	grand	77	verb	list	2	8	match	grand	4	1	p	0.41644000000000003
734.7454	0.0	+	77	verb	list	2	9	match	grand	4	1	p	0.41644000000000003
735.1452	0.2	nager	77	verb	list	2	10	match	grand	4	1	p	0.41644000000000003
735.3452	0.0	+	77	verb	list	2	11	match	grand	4	1	p	0.41644000000000003
735.745	0.0	+	77	verb	list	2	12	match	grand	4	1	p	0.41644000000000003
737.7441	0.0	GRAND	77	verb	list	2	13	match	grand	4	1	p	0.41644000000000003
738.2272	0.0	+	77	verb	list	2	14	match	grand	4	1	p	0.41644000000000003
738.1605000000001	0.0	[response]	77	verb	list	2	15	match	grand	4	1	p	0.41644000000000003
740.143	0.0	+	78	noun	phrase	1	1	match	grenier	5	1	p	0.398
740.6927000000001	0.2	qxw	78	noun	phrase	1	2	match	grenier	5	1	p	0.398
740.8926	0.0	+	78	noun	phrase	1	3	match	grenier	5	1	p	0.398
741.2925	0.2	kgzb	78	noun	phrase	1	4	match	grenier	5	1	p	0.398
741.4924	0.0	+	78	noun	phrase	1	5	match	grenier	5	1	p	0.398
741.8922	0.2	gbl	78	noun	phrase	1	6	match	grenier	5	1	p	0.398
742.0921000000001	0.0	+	78	noun	phrase	1	7	match	grenier	5	1	p	0.398
742.4919	0.2	dcxhnmz	78	noun	phrase	1	8	match	grenier	5	1	p	0.398
742.6918000000001	0.0	+	78	noun	phrase	1	9	match	grenier	5	1	p	0.398
743.0916	0.2	grenier	78	noun	phrase	1	10	match	grenier	5	1	p	0.398
743.2915	0.0	+	78	noun	phrase	1	11	match	grenier	5	1	p	0.398
743.6914	0.0	+	78	noun	phrase	1	12	match	grenier	5	1	p	0.398
745.6905	0.0	GRENIER	78	noun	phrase	1	13	match	grenier	5	1	p	0.398
746.1403	0.0	+	78	noun	phrase	1	14	match	grenier	5	1	p	0.398
746.0885000000001	0.0	[response]	78	noun	phrase	1	15	match	grenier	5	1	p	0.398
748.0894000000001	0.0	+	79	verb	phrase	3	1	match	ainsi	5	1	p	0.41521
748.6391	0.2	cgqdz	79	verb	phrase	3	2	match	ainsi	5	1	p	0.41521
748.839	0.0	+	79	verb	phrase	3	3	match	ainsi	5	1	p	0.41521
749.2389000000001	0.2	mrn	79	verb	phrase	3	4	match	ainsi	5	1	p	0.41521
749.4388	0.0	+	79	verb	phrase	3	5	match	ainsi	5	1	p	0.41521
749.8386	0.2	doit	79	verb	phrase	3	6	match	ainsi	5	1	p	0.41521
750.0385	0.0	+	79	verb	phrase	3	7	match	ainsi	5	1	p	0.41521
750.4383	0.2	patiner	79	verb	phrase	3	8	match	ainsi	5	1	p	0.41521
750.6382	0.0	+	79	verb	phrase	3	9	match	ainsi	5	1	p	0.41521
751.038	0.2	ainsi	79	verb	phrase	3	10	match	ainsi	5	1	p	0.41521
751.2379	0.0	+	79	verb	phrase	3	11	match	ainsi	5	1	p	0.41521
751.6378	0.0	+	79	verb	phrase	3	12	match	ainsi	5	1	p	0.41521
753.6369	0.0	AINSI	79	verb	phrase	3	13	match	ainsi	5	1	p	0.41521
754.1033	0.0	+	79	verb	phrase	3	14	match	ainsi	5	1	p	0.41521
754.0521000000001	0.0	[response]	79	verb	phrase	3	15	match	ainsi	5	1	p	0.41521
756.0358	0.0	+	80	verb	phrase	1	1	match	chasser	5	1	p	0.41211
756.5855	0.2	btmn	80	verb	phrase	1	2	match	chasser	5	1	p	0.41211
756.7854	0.0	+	80	verb	phrase	1	3	match	chasser	5	1	p	0.41211
757.1852	0.2	wzvq	80	verb	phrase	1	4	match	chasser	5	1	p	0.41211
757.3852	0.0	+	80	verb	phrase	1	5	match	chasser	5	1	p	0.41211
757.785	0.2	hljn	80	verb	phrase	1	6	match	chasser	5	1	p	0.41211
757.9849	0.0	+	80	verb	phrase	1	7	match	chasser	5	1	p	0.41211
758.3847000000001	0.2	thfl	80	verb	phrase	1	8	match	chasser	5	1	p	0.41211
758.5846	0.0	+	80	verb	phrase	1	9	match	chasser	5	1	p	0.41211
758.9844	0.2	chasser	80	verb	phrase	1	10	match	chasser	5	1	p	0.41211
759.1843	0.0	+	80	verb	phrase	1	11	match	chasser	5	1	p	0.41211
759.5842	0.0	+	80	verb	phrase	1	12	match	chasser	5	1	p	0.41211
761.5999	0.0	CHASSER	80	verb	phrase	1	13	match	chasser	5	1	p	0.41211
762.0664	0.0	+	80	verb	phrase	1	14	match	chasser	5	1	p	0.41211
763.9988000000001	0.0	+	80	verb	phrase	1	15	match	chasser	5	1	p	0.41211
764.9984000000001	0.0	+	80	verb	phrase	1	16	match	chasser	5	1	p	0.41211
765.0983	0.0	+	80	verb	phrase	1	17	match	chasser	5	1	p	0.41211
766.4977	0.0	+	80	verb	phrase	1	18	match	chasser	5	1	p	0.41211
766.5977	0.0	+	80	verb	phrase	1	19	match	chasser	5	1	p	0.41211
767.9970000000001	0.0	+	80	verb	phrase	1	20	match	chasser	5	1	p	0.41211
768.097	0.0	+	80	verb	phrase	1	21	match	chasser	5	1	p	0.41211
769.513	0.0	+	80	verb	phrase	1	22	match	chasser	5	1	p	0.41211
769.613	0.0	+	80	verb	phrase	1	23	match	chasser	5	1	p	0.41211
771.0123	0.0	+	80	verb	phrase	1	24	match	chasser	5	1	p	0.41211
771.1123	0.0	+	80	verb	phrase	1	25	match	chasser	5	1	p	0.41211
772.5116	0.0	+	80	verb	phrase	1	26	match	chasser	5	1	p	0.41211
772.6116000000001	0.0	+	80	verb	phrase	1	27	match	chasser	5	1	p	0.41211
774.011	0.0	+	80	verb	phrase	1	28	match	chasser	5	1	p	0.41211
774.1109	0.0	+	80	verb	phrase	1	29	match	chasser	5	1	p	0.41211
775.5103	0.0	+	80	verb	phrase	1	30	match	chasser	5	1	p	0.41211
775.6102000000001	0.0	+	80	verb	phrase	1	31	match	chasser	5	1	p	0.41211
777.0096	0.0	+	80	verb	phrase	1	32	match	chasser	5	1	p	0.41211
777.1096	0.0	+	80	verb	phrase	1	33	match	chasser	5	1	p	0.41211
778.4923	0.0	+	80	verb	phrase	1	34	match	chasser	5	1	p	0.41211
778.5922	0.0	+	80	verb	phrase	1	35	match	chasser	5	1	p	0.41211
784.7228	0.0	+	80	verb	phrase	1	36	match	chasser	5	1	p	0.41211
762.0120000000001	0.0	[response]	80	verb	phrase	1	37	match	chasser	5	1	p	0.41211
