onset	duration	stim	trial_number	trial_type	trial_structure	trial_length	sequential_position	probe_type	probe	probe_position	response_correct	response_key	response_time
0.054000000000002046	0.0	+	1	noun	phrase	3	1	match	panier	5	1	p	1.4757
0.5371000000000095	0.2	wvhzpqb	1	noun	phrase	3	2	match	panier	5	1	p	1.4757
0.7369999999999948	0.0	+	1	noun	phrase	3	3	match	panier	5	1	p	1.4757
1.1367999999999938	0.2	vzck	1	noun	phrase	3	4	match	panier	5	1	p	1.4757
1.3368000000000109	0.0	+	1	noun	phrase	3	5	match	panier	5	1	p	1.4757
1.73660000000001	0.2	son	1	noun	phrase	3	6	match	panier	5	1	p	1.4757
1.9364999999999952	0.0	+	1	noun	phrase	3	7	match	panier	5	1	p	1.4757
2.3362999999999943	0.2	petit	1	noun	phrase	3	8	match	panier	5	1	p	1.4757
2.536200000000008	0.0	+	1	noun	phrase	3	9	match	panier	5	1	p	1.4757
2.936000000000007	0.2	panier	1	noun	phrase	3	10	match	panier	5	1	p	1.4757
3.1358999999999924	0.0	+	1	noun	phrase	3	11	match	panier	5	1	p	1.4757
3.5356999999999914	0.0	+	1	noun	phrase	3	12	match	panier	5	1	p	1.4757
5.53479999999999	0.0	PANIER	1	noun	phrase	3	13	match	panier	5	1	p	1.4757
7.0674999999999955	0.0	+	1	noun	phrase	3	14	match	panier	5	1	p	1.4757
7.010600000000011	0.0	[response]	1	noun	phrase	3	15	match	panier	5	1	p	1.4757
7.933799999999991	0.0	+	2	verb	phrase	1	1	nomatch	plus	-1	1	y	0.70848
8.483800000000002	0.2	wzktcnb	2	verb	phrase	1	2	nomatch	plus	-1	1	y	0.70848
8.700099999999992	0.0	+	2	verb	phrase	1	3	nomatch	plus	-1	1	y	0.70848
9.099899999999991	0.2	mrn	2	verb	phrase	1	4	nomatch	plus	-1	1	y	0.70848
9.3005	0.0	+	2	verb	phrase	1	5	nomatch	plus	-1	1	y	0.70848
9.699600000000004	0.2	cpqb	2	verb	phrase	1	6	nomatch	plus	-1	1	y	0.70848
9.899499999999989	0.0	+	2	verb	phrase	1	7	nomatch	plus	-1	1	y	0.70848
10.299399999999991	0.2	lhdrnpz	2	verb	phrase	1	8	nomatch	plus	-1	1	y	0.70848
10.499300000000005	0.0	+	2	verb	phrase	1	9	nomatch	plus	-1	1	y	0.70848
10.899100000000004	0.2	loin	2	verb	phrase	1	10	nomatch	plus	-1	1	y	0.70848
11.09899999999999	0.0	+	2	verb	phrase	1	11	nomatch	plus	-1	1	y	0.70848
11.498799999999989	0.0	+	2	verb	phrase	1	12	nomatch	plus	-1	1	y	0.70848
13.497899999999987	0.0	PLUS	2	verb	phrase	1	13	nomatch	plus	-1	1	y	0.70848
14.264199999999988	0.0	+	2	verb	phrase	1	14	nomatch	plus	-1	1	y	0.70848
14.206400000000002	0.0	[response]	2	verb	phrase	1	15	nomatch	plus	-1	1	y	0.70848
15.896799999999985	0.0	+	3	noun	list	1	1	nomatch	panier	-1	1	y	0.94774
16.44659999999999	0.2	dvcsj	3	noun	list	1	2	nomatch	panier	-1	1	y	0.94774
16.646500000000003	0.0	+	3	noun	list	1	3	nomatch	panier	-1	1	y	0.94774
17.046300000000002	0.2	rdft	3	noun	list	1	4	nomatch	panier	-1	1	y	0.94774
17.246199999999988	0.0	+	3	noun	list	1	5	nomatch	panier	-1	1	y	0.94774
17.645999999999987	0.2	gbl	3	noun	list	1	6	nomatch	panier	-1	1	y	0.94774
17.8459	0.0	+	3	noun	list	1	7	nomatch	panier	-1	1	y	0.94774
18.2457	0.2	czpn	3	noun	list	1	8	nomatch	panier	-1	1	y	0.94774
18.445699999999988	0.0	+	3	noun	list	1	9	nomatch	panier	-1	1	y	0.94774
18.845499999999987	0.2	tablier	3	noun	list	1	10	nomatch	panier	-1	1	y	0.94774
19.0454	0.0	+	3	noun	list	1	11	nomatch	panier	-1	1	y	0.94774
19.4452	0.0	+	3	noun	list	1	12	nomatch	panier	-1	1	y	0.94774
21.4443	0.0	PANIER	3	noun	list	1	13	nomatch	panier	-1	1	y	0.94774
22.44380000000001	0.0	+	3	noun	list	1	14	nomatch	panier	-1	1	y	0.94774
22.391999999999996	0.0	[response]	3	noun	list	1	15	nomatch	panier	-1	1	y	0.94774
23.843199999999996	0.0	+	4	noun	phrase	3	1	nomatch	rocher	-1	1	y	0.63986
24.393	0.2	vjlbt	4	noun	phrase	3	2	nomatch	rocher	-1	1	y	0.63986
24.592899999999986	0.0	+	4	noun	phrase	3	3	nomatch	rocher	-1	1	y	0.63986
24.992699999999985	0.2	lzd	4	noun	phrase	3	4	nomatch	rocher	-1	1	y	0.63986
25.1926	0.0	+	4	noun	phrase	3	5	nomatch	rocher	-1	1	y	0.63986
25.592399999999998	0.2	mon	4	noun	phrase	3	6	nomatch	rocher	-1	1	y	0.63986
25.792299999999983	0.0	+	4	noun	phrase	3	7	nomatch	rocher	-1	1	y	0.63986
26.19210000000001	0.2	voilier	4	noun	phrase	3	8	nomatch	rocher	-1	1	y	0.63986
26.3921	0.0	+	4	noun	phrase	3	9	nomatch	rocher	-1	1	y	0.63986
26.7919	0.2	noir	4	noun	phrase	3	10	nomatch	rocher	-1	1	y	0.63986
26.991799999999984	0.0	+	4	noun	phrase	3	11	nomatch	rocher	-1	1	y	0.63986
27.39160000000001	0.0	+	4	noun	phrase	3	12	nomatch	rocher	-1	1	y	0.63986
29.39070000000001	0.0	ROCHER	4	noun	phrase	3	13	nomatch	rocher	-1	1	y	0.63986
30.09039999999999	0.0	+	4	noun	phrase	3	14	nomatch	rocher	-1	1	y	0.63986
30.030599999999993	0.0	[response]	4	noun	phrase	3	15	nomatch	rocher	-1	1	y	0.63986
31.789600000000007	0.0	+	5	verb	list	1	1	nomatch	grand	-1	1	y	0.7354
32.33939999999998	0.2	xbdwmcj	5	verb	list	1	2	nomatch	grand	-1	1	y	0.7354
32.5393	0.0	+	5	verb	list	1	3	nomatch	grand	-1	1	y	0.7354
32.939099999999996	0.2	kgzb	5	verb	list	1	4	nomatch	grand	-1	1	y	0.7354
33.13900000000001	0.0	+	5	verb	list	1	5	nomatch	grand	-1	1	y	0.7354
33.53880000000001	0.2	hljn	5	verb	list	1	6	nomatch	grand	-1	1	y	0.7354
33.738699999999994	0.0	+	5	verb	list	1	7	nomatch	grand	-1	1	y	0.7354
34.13849999999999	0.2	zbrqtpv	5	verb	list	1	8	nomatch	grand	-1	1	y	0.7354
34.33850000000001	0.0	+	5	verb	list	1	9	nomatch	grand	-1	1	y	0.7354
34.73830000000001	0.2	nouveau	5	verb	list	1	10	nomatch	grand	-1	1	y	0.7354
34.938199999999995	0.0	+	5	verb	list	1	11	nomatch	grand	-1	1	y	0.7354
35.337999999999994	0.0	+	5	verb	list	1	12	nomatch	grand	-1	1	y	0.7354
37.33709999999999	0.0	GRAND	5	verb	list	1	13	nomatch	grand	-1	1	y	0.7354
38.13669999999999	0.0	+	5	verb	list	1	14	nomatch	grand	-1	1	y	0.7354
38.07249999999999	0.0	[response]	5	verb	list	1	15	nomatch	grand	-1	1	y	0.7354
39.73599999999999	0.0	+	6	noun	list	1	1	nomatch	vert	-1	1	y	0.6831500000000001
40.285799999999995	0.2	slrx	6	noun	list	1	2	nomatch	vert	-1	1	y	0.6831500000000001
40.48570000000001	0.0	+	6	noun	list	1	3	nomatch	vert	-1	1	y	0.6831500000000001
40.88550000000001	0.2	vzck	6	noun	list	1	4	nomatch	vert	-1	1	y	0.6831500000000001
41.08539999999999	0.0	+	6	noun	list	1	5	nomatch	vert	-1	1	y	0.6831500000000001
41.48519999999999	0.2	vh	6	noun	list	1	6	nomatch	vert	-1	1	y	0.6831500000000001
41.685100000000006	0.0	+	6	noun	list	1	7	nomatch	vert	-1	1	y	0.6831500000000001
42.08500000000001	0.2	mcbnkh	6	noun	list	1	8	nomatch	vert	-1	1	y	0.6831500000000001
42.28489999999999	0.0	+	6	noun	list	1	9	nomatch	vert	-1	1	y	0.6831500000000001
42.68469999999999	0.2	vite	6	noun	list	1	10	nomatch	vert	-1	1	y	0.6831500000000001
42.884600000000006	0.0	+	6	noun	list	1	11	nomatch	vert	-1	1	y	0.6831500000000001
43.284400000000005	0.0	+	6	noun	list	1	12	nomatch	vert	-1	1	y	0.6831500000000001
45.283500000000004	0.0	VERT	6	noun	list	1	13	nomatch	vert	-1	1	y	0.6831500000000001
46.033199999999994	0.0	+	6	noun	list	1	14	nomatch	vert	-1	1	y	0.6831500000000001
45.9667	0.0	[response]	6	noun	list	1	15	nomatch	vert	-1	1	y	0.6831500000000001
47.69909999999999	0.0	+	7	noun	phrase	1	1	nomatch	nouveau	-1	1	y	0.51005
48.24879999999999	0.2	qhlnj	7	noun	phrase	1	2	nomatch	nouveau	-1	1	y	0.51005
48.4487	0.0	+	7	noun	phrase	1	3	nomatch	nouveau	-1	1	y	0.51005
48.848600000000005	0.2	psvm	7	noun	phrase	1	4	nomatch	nouveau	-1	1	y	0.51005
49.04849999999999	0.0	+	7	noun	phrase	1	5	nomatch	nouveau	-1	1	y	0.51005
49.44829999999999	0.2	gbl	7	noun	phrase	1	6	nomatch	nouveau	-1	1	y	0.51005
49.6482	0.0	+	7	noun	phrase	1	7	nomatch	nouveau	-1	1	y	0.51005
50.048	0.2	mplvtsb	7	noun	phrase	1	8	nomatch	nouveau	-1	1	y	0.51005
50.24789999999999	0.0	+	7	noun	phrase	1	9	nomatch	nouveau	-1	1	y	0.51005
50.647699999999986	0.2	petit	7	noun	phrase	1	10	nomatch	nouveau	-1	1	y	0.51005
50.8476	0.0	+	7	noun	phrase	1	11	nomatch	nouveau	-1	1	y	0.51005
51.2475	0.0	+	7	noun	phrase	1	12	nomatch	nouveau	-1	1	y	0.51005
53.2466	0.0	NOUVEAU	7	noun	phrase	1	13	nomatch	nouveau	-1	1	y	0.51005
53.81299999999999	0.0	+	7	noun	phrase	1	14	nomatch	nouveau	-1	1	y	0.51005
53.75659999999999	0.0	[response]	7	noun	phrase	1	15	nomatch	nouveau	-1	1	y	0.51005
55.64549999999997	0.0	+	8	verb	phrase	3	1	match	ainsi	5	1	p	0.93046
56.1952	0.2	dkwxtfb	8	verb	phrase	3	2	match	ainsi	5	1	p	0.93046
56.39510000000001	0.0	+	8	verb	phrase	3	3	match	ainsi	5	1	p	0.93046
56.795000000000016	0.2	rdft	8	verb	phrase	3	4	match	ainsi	5	1	p	0.93046
56.99489999999997	0.0	+	8	verb	phrase	3	5	match	ainsi	5	1	p	0.93046
57.3947	0.2	doit	8	verb	phrase	3	6	match	ainsi	5	1	p	0.93046
57.594600000000014	0.0	+	8	verb	phrase	3	7	match	ainsi	5	1	p	0.93046
57.994399999999985	0.2	parader	8	verb	phrase	3	8	match	ainsi	5	1	p	0.93046
58.1943	0.0	+	8	verb	phrase	3	9	match	ainsi	5	1	p	0.93046
58.59409999999997	0.2	ainsi	8	verb	phrase	3	10	match	ainsi	5	1	p	0.93046
58.794100000000014	0.0	+	8	verb	phrase	3	11	match	ainsi	5	1	p	0.93046
59.193899999999985	0.0	+	8	verb	phrase	3	12	match	ainsi	5	1	p	0.93046
61.192999999999984	0.0	AINSI	8	verb	phrase	3	13	match	ainsi	5	1	p	0.93046
62.17579999999998	0.0	+	8	verb	phrase	3	14	match	ainsi	5	1	p	0.93046
62.123400000000004	0.0	[response]	8	verb	phrase	3	15	match	ainsi	5	1	p	0.93046
63.59190000000001	0.0	+	9	verb	list	2	1	match	danser	4	1	p	0.54795
64.14159999999998	0.2	hxvfrtw	9	verb	list	2	2	match	danser	4	1	p	0.54795
64.3415	0.0	+	9	verb	list	2	3	match	danser	4	1	p	0.54795
64.7414	0.2	mthp	9	verb	list	2	4	match	danser	4	1	p	0.54795
64.94130000000001	0.0	+	9	verb	list	2	5	match	danser	4	1	p	0.54795
65.34109999999998	0.2	gbl	9	verb	list	2	6	match	danser	4	1	p	0.54795
65.541	0.0	+	9	verb	list	2	7	match	danser	4	1	p	0.54795
65.94080000000002	0.2	danser	9	verb	list	2	8	match	danser	4	1	p	0.54795
66.14069999999998	0.0	+	9	verb	list	2	9	match	danser	4	1	p	0.54795
66.54050000000001	0.2	rouge	9	verb	list	2	10	match	danser	4	1	p	0.54795
66.74040000000002	0.0	+	9	verb	list	2	11	match	danser	4	1	p	0.54795
67.14030000000002	0.0	+	9	verb	list	2	12	match	danser	4	1	p	0.54795
69.13940000000002	0.0	DANSER	9	verb	list	2	13	match	danser	4	1	p	0.54795
69.73910000000001	0.0	+	9	verb	list	2	14	match	danser	4	1	p	0.54795
69.6873	0.0	[response]	9	verb	list	2	15	match	danser	4	1	p	0.54795
71.53829999999999	0.0	+	10	noun	list	1	1	nomatch	trop	-1	1	y	0.4961
72.08800000000002	0.2	fqx	10	noun	list	1	2	nomatch	trop	-1	1	y	0.4961
72.28789999999998	0.0	+	10	noun	list	1	3	nomatch	trop	-1	1	y	0.4961
72.68779999999998	0.2	wzvq	10	noun	list	1	4	nomatch	trop	-1	1	y	0.4961
72.8877	0.0	+	10	noun	list	1	5	nomatch	trop	-1	1	y	0.4961
73.28750000000002	0.2	bwgs	10	noun	list	1	6	nomatch	trop	-1	1	y	0.4961
73.48739999999998	0.0	+	10	noun	list	1	7	nomatch	trop	-1	1	y	0.4961
73.8872	0.2	rwbvdpft	10	noun	list	1	8	nomatch	trop	-1	1	y	0.4961
74.08710000000002	0.0	+	10	noun	list	1	9	nomatch	trop	-1	1	y	0.4961
74.48689999999999	0.2	sablier	10	noun	list	1	10	nomatch	trop	-1	1	y	0.4961
74.6868	0.0	+	10	noun	list	1	11	nomatch	trop	-1	1	y	0.4961
75.08670000000001	0.0	+	10	noun	list	1	12	nomatch	trop	-1	1	y	0.4961
77.0858	0.0	TROP	10	noun	list	1	13	nomatch	trop	-1	1	y	0.4961
77.63549999999998	0.0	+	10	noun	list	1	14	nomatch	trop	-1	1	y	0.4961
77.58190000000002	0.0	[response]	10	noun	list	1	15	nomatch	trop	-1	1	y	0.4961
79.48469999999998	0.0	+	11	verb	list	3	1	nomatch	yves	-1	1	y	0.89037
80.0344	0.2	mvfgswh	11	verb	list	3	2	nomatch	yves	-1	1	y	0.89037
80.23430000000002	0.0	+	11	verb	list	3	3	nomatch	yves	-1	1	y	0.89037
80.63420000000002	0.2	wlmq	11	verb	list	3	4	nomatch	yves	-1	1	y	0.89037
80.83409999999998	0.0	+	11	verb	list	3	5	nomatch	yves	-1	1	y	0.89037
81.2339	0.2	mon	11	verb	list	3	6	nomatch	yves	-1	1	y	0.89037
81.43380000000002	0.0	+	11	verb	list	3	7	nomatch	yves	-1	1	y	0.89037
81.8503	0.2	jongler	11	verb	list	3	8	nomatch	yves	-1	1	y	0.89037
82.03359999999998	0.0	+	11	verb	list	3	9	nomatch	yves	-1	1	y	0.89037
82.44999999999999	0.2	blanc	11	verb	list	3	10	nomatch	yves	-1	1	y	0.89037
82.6499	0.0	+	11	verb	list	3	11	nomatch	yves	-1	1	y	0.89037
83.04969999999997	0.0	+	11	verb	list	3	12	nomatch	yves	-1	1	y	0.89037
85.04879999999997	0.0	YVES	11	verb	list	3	13	nomatch	yves	-1	1	y	0.89037
85.9984	0.0	+	11	verb	list	3	14	nomatch	yves	-1	1	y	0.89037
85.93920000000003	0.0	[response]	11	verb	list	3	15	nomatch	yves	-1	1	y	0.89037
87.4477	0.0	+	12	noun	phrase	1	1	nomatch	patiner	-1	1	y	0.7830800000000001
87.9975	0.2	cfz	12	noun	phrase	1	2	nomatch	patiner	-1	1	y	0.7830800000000001
88.19740000000002	0.0	+	12	noun	phrase	1	3	nomatch	patiner	-1	1	y	0.7830800000000001
88.59719999999999	0.2	ntmd	12	noun	phrase	1	4	nomatch	patiner	-1	1	y	0.7830800000000001
88.7971	0.0	+	12	noun	phrase	1	5	nomatch	patiner	-1	1	y	0.7830800000000001
89.19689999999997	0.2	gbl	12	noun	phrase	1	6	nomatch	patiner	-1	1	y	0.7830800000000001
89.39690000000002	0.0	+	12	noun	phrase	1	7	nomatch	patiner	-1	1	y	0.7830800000000001
89.79669999999999	0.2	xnhgzpmv	12	noun	phrase	1	8	nomatch	patiner	-1	1	y	0.7830800000000001
89.9966	0.0	+	12	noun	phrase	1	9	nomatch	patiner	-1	1	y	0.7830800000000001
90.39639999999997	0.2	bleu	12	noun	phrase	1	10	nomatch	patiner	-1	1	y	0.7830800000000001
90.59629999999999	0.0	+	12	noun	phrase	1	11	nomatch	patiner	-1	1	y	0.7830800000000001
90.99610000000001	0.0	+	12	noun	phrase	1	12	nomatch	patiner	-1	1	y	0.7830800000000001
92.99520000000001	0.0	PATINER	12	noun	phrase	1	13	nomatch	patiner	-1	1	y	0.7830800000000001
93.84480000000002	0.0	+	12	noun	phrase	1	14	nomatch	patiner	-1	1	y	0.7830800000000001
93.7783	0.0	[response]	12	noun	phrase	1	15	nomatch	patiner	-1	1	y	0.7830800000000001
95.39409999999998	0.0	+	13	noun	list	2	1	nomatch	panier	-1	1	y	0.7846900000000001
95.94389999999999	0.2	cszdqmf	13	noun	list	2	2	nomatch	panier	-1	1	y	0.7846900000000001
96.1438	0.0	+	13	noun	list	2	3	nomatch	panier	-1	1	y	0.7846900000000001
96.54359999999997	0.2	gxsd	13	noun	list	2	4	nomatch	panier	-1	1	y	0.7846900000000001
96.74349999999998	0.0	+	13	noun	list	2	5	nomatch	panier	-1	1	y	0.7846900000000001
97.14330000000001	0.2	hljn	13	noun	list	2	6	nomatch	panier	-1	1	y	0.7846900000000001
97.34320000000002	0.0	+	13	noun	list	2	7	nomatch	panier	-1	1	y	0.7846900000000001
97.74309999999997	0.2	cendrier	13	noun	list	2	8	nomatch	panier	-1	1	y	0.7846900000000001
97.94299999999998	0.0	+	13	noun	list	2	9	nomatch	panier	-1	1	y	0.7846900000000001
98.3435	0.2	tôt	13	noun	list	2	10	nomatch	panier	-1	1	y	0.7846900000000001
98.54270000000002	0.0	+	13	noun	list	2	11	nomatch	panier	-1	1	y	0.7846900000000001
98.9425	0.0	+	13	noun	list	2	12	nomatch	panier	-1	1	y	0.7846900000000001
100.9416	0.0	PANIER	13	noun	list	2	13	nomatch	panier	-1	1	y	0.7846900000000001
101.7912	0.0	+	13	noun	list	2	14	nomatch	panier	-1	1	y	0.7846900000000001
101.72629999999998	0.0	[response]	13	noun	list	2	15	nomatch	panier	-1	1	y	0.7846900000000001
111.33690000000001	0.0	+	14	verb	list	1	1	match	noir	5	1	p	0.4237600000000001
111.88670000000002	0.2	qxswgl	14	verb	list	1	2	match	noir	5	1	p	0.4237600000000001
112.08659999999998	0.0	+	14	verb	list	1	3	match	noir	5	1	p	0.4237600000000001
112.4864	0.2	wlmq	14	verb	list	1	4	match	noir	5	1	p	0.4237600000000001
112.68630000000002	0.0	+	14	verb	list	1	5	match	noir	5	1	p	0.4237600000000001
113.08609999999999	0.2	bwgs	14	verb	list	1	6	match	noir	5	1	p	0.4237600000000001
113.286	0.0	+	14	verb	list	1	7	match	noir	5	1	p	0.4237600000000001
113.68579999999997	0.2	nqdzxlv	14	verb	list	1	8	match	noir	5	1	p	0.4237600000000001
113.88580000000002	0.0	+	14	verb	list	1	9	match	noir	5	1	p	0.4237600000000001
114.28559999999999	0.2	noir	14	verb	list	1	10	match	noir	5	1	p	0.4237600000000001
114.4855	0.0	+	14	verb	list	1	11	match	noir	5	1	p	0.4237600000000001
114.88529999999997	0.0	+	14	verb	list	1	12	match	noir	5	1	p	0.4237600000000001
116.88439999999997	0.0	NOIR	14	verb	list	1	13	match	noir	5	1	p	0.4237600000000001
117.3675	0.0	+	14	verb	list	1	14	match	noir	5	1	p	0.4237600000000001
117.3082	0.0	[response]	14	verb	list	1	15	match	noir	5	1	p	0.4237600000000001
119.30000000000001	0.0	+	15	noun	list	2	1	nomatch	vite	-1	1	y	0.5592400000000001
119.84969999999998	0.2	vsdlqzm	15	noun	list	2	2	nomatch	vite	-1	1	y	0.5592400000000001
120.0496	0.0	+	15	noun	list	2	3	nomatch	vite	-1	1	y	0.5592400000000001
120.4495	0.2	ptkf	15	noun	list	2	4	nomatch	vite	-1	1	y	0.5592400000000001
120.64940000000001	0.0	+	15	noun	list	2	5	nomatch	vite	-1	1	y	0.5592400000000001
121.04919999999998	0.2	cpqb	15	noun	list	2	6	nomatch	vite	-1	1	y	0.5592400000000001
121.2491	0.0	+	15	noun	list	2	7	nomatch	vite	-1	1	y	0.5592400000000001
121.64889999999997	0.2	rocher	15	noun	list	2	8	nomatch	vite	-1	1	y	0.5592400000000001
121.84879999999998	0.0	+	15	noun	list	2	9	nomatch	vite	-1	1	y	0.5592400000000001
122.24860000000001	0.2	ainsi	15	noun	list	2	10	nomatch	vite	-1	1	y	0.5592400000000001
122.4486	0.0	+	15	noun	list	2	11	nomatch	vite	-1	1	y	0.5592400000000001
122.84839999999997	0.0	+	15	noun	list	2	12	nomatch	vite	-1	1	y	0.5592400000000001
124.8474	0.0	VITE	15	noun	list	2	13	nomatch	vite	-1	1	y	0.5592400000000001
125.46379999999999	0.0	+	15	noun	list	2	14	nomatch	vite	-1	1	y	0.5592400000000001
125.4067	0.0	[response]	15	noun	list	2	15	nomatch	vite	-1	1	y	0.5592400000000001
127.2464	0.0	+	16	noun	phrase	2	1	nomatch	noir	-1	1	y	0.6706300000000001
127.79610000000002	0.2	kfszwlb	16	noun	phrase	2	2	nomatch	noir	-1	1	y	0.6706300000000001
127.99630000000002	0.0	+	16	noun	phrase	2	3	nomatch	noir	-1	1	y	0.6706300000000001
128.3958	0.2	ntmd	16	noun	phrase	2	4	nomatch	noir	-1	1	y	0.6706300000000001
128.5958	0.0	+	16	noun	phrase	2	5	nomatch	noir	-1	1	y	0.6706300000000001
128.99560000000002	0.2	gbl	16	noun	phrase	2	6	nomatch	noir	-1	1	y	0.6706300000000001
129.19549999999998	0.0	+	16	noun	phrase	2	7	nomatch	noir	-1	1	y	0.6706300000000001
129.5953	0.2	grenier	16	noun	phrase	2	8	nomatch	noir	-1	1	y	0.6706300000000001
129.79520000000002	0.0	+	16	noun	phrase	2	9	nomatch	noir	-1	1	y	0.6706300000000001
130.195	0.2	vert	16	noun	phrase	2	10	nomatch	noir	-1	1	y	0.6706300000000001
130.39499999999998	0.0	+	16	noun	phrase	2	11	nomatch	noir	-1	1	y	0.6706300000000001
130.7948	0.0	+	16	noun	phrase	2	12	nomatch	noir	-1	1	y	0.6706300000000001
132.7939	0.0	NOIR	16	noun	phrase	2	13	nomatch	noir	-1	1	y	0.6706300000000001
133.5269	0.0	+	16	noun	phrase	2	14	nomatch	noir	-1	1	y	0.6706300000000001
133.4645	0.0	[response]	16	noun	phrase	2	15	nomatch	noir	-1	1	y	0.6706300000000001
135.19279999999998	0.0	+	17	noun	phrase	1	1	nomatch	vite	-1	1	y	0.42991
135.7425	0.2	xdhjqlc	17	noun	phrase	1	2	nomatch	vite	-1	1	y	0.42991
135.94240000000002	0.0	+	17	noun	phrase	1	3	nomatch	vite	-1	1	y	0.42991
136.3422	0.2	ptkf	17	noun	phrase	1	4	nomatch	vite	-1	1	y	0.42991
136.54219999999998	0.0	+	17	noun	phrase	1	5	nomatch	vite	-1	1	y	0.42991
136.942	0.2	bqm	17	noun	phrase	1	6	nomatch	vite	-1	1	y	0.42991
137.14190000000002	0.0	+	17	noun	phrase	1	7	nomatch	vite	-1	1	y	0.42991
137.5417	0.2	cfvlb	17	noun	phrase	1	8	nomatch	vite	-1	1	y	0.42991
137.7416	0.0	+	17	noun	phrase	1	9	nomatch	vite	-1	1	y	0.42991
138.14139999999998	0.2	sablier	17	noun	phrase	1	10	nomatch	vite	-1	1	y	0.42991
138.3413	0.0	+	17	noun	phrase	1	11	nomatch	vite	-1	1	y	0.42991
138.7412	0.0	+	17	noun	phrase	1	12	nomatch	vite	-1	1	y	0.42991
140.74020000000002	0.0	VITE	17	noun	phrase	1	13	nomatch	vite	-1	1	y	0.42991
141.22339999999997	0.0	+	17	noun	phrase	1	14	nomatch	vite	-1	1	y	0.42991
141.17020000000002	0.0	[response]	17	noun	phrase	1	15	nomatch	vite	-1	1	y	0.42991
143.13920000000002	0.0	+	18	noun	phrase	1	1	match	nouveau	5	1	p	0.43897
143.6889	0.2	mbrdscw	18	noun	phrase	1	2	match	nouveau	5	1	p	0.43897
143.8888	0.0	+	18	noun	phrase	1	3	match	nouveau	5	1	p	0.43897
144.28859999999997	0.2	gxsd	18	noun	phrase	1	4	match	nouveau	5	1	p	0.43897
144.4885	0.0	+	18	noun	phrase	1	5	match	nouveau	5	1	p	0.43897
144.8884	0.2	gbl	18	noun	phrase	1	6	match	nouveau	5	1	p	0.43897
145.0883	0.0	+	18	noun	phrase	1	7	match	nouveau	5	1	p	0.43897
145.48809999999997	0.2	xpckqdh	18	noun	phrase	1	8	match	nouveau	5	1	p	0.43897
145.688	0.0	+	18	noun	phrase	1	9	match	nouveau	5	1	p	0.43897
146.08780000000002	0.2	nouveau	18	noun	phrase	1	10	match	nouveau	5	1	p	0.43897
146.28769999999997	0.0	+	18	noun	phrase	1	11	match	nouveau	5	1	p	0.43897
146.68759999999997	0.0	+	18	noun	phrase	1	12	match	nouveau	5	1	p	0.43897
148.68669999999997	0.0	NOUVEAU	18	noun	phrase	1	13	match	nouveau	5	1	p	0.43897
149.1864	0.0	+	18	noun	phrase	1	14	match	nouveau	5	1	p	0.43897
149.12560000000002	0.0	[response]	18	noun	phrase	1	15	match	nouveau	5	1	p	0.43897
151.0856	0.0	+	19	noun	list	2	1	nomatch	tard	-1	1	y	0.47846
151.63529999999997	0.2	czpnjbl	19	noun	list	2	2	nomatch	tard	-1	1	y	0.47846
151.8352	0.0	+	19	noun	list	2	3	nomatch	tard	-1	1	y	0.47846
152.2351	0.2	vzck	19	noun	list	2	4	nomatch	tard	-1	1	y	0.47846
152.43489999999997	0.0	+	19	noun	list	2	5	nomatch	tard	-1	1	y	0.47846
152.83479999999997	0.2	cpqb	19	noun	list	2	6	nomatch	tard	-1	1	y	0.47846
153.0347	0.0	+	19	noun	list	2	7	nomatch	tard	-1	1	y	0.47846
153.4346	0.2	voilier	19	noun	list	2	8	nomatch	tard	-1	1	y	0.47846
153.63439999999997	0.0	+	19	noun	list	2	9	nomatch	tard	-1	1	y	0.47846
154.0342	0.2	ainsi	19	noun	list	2	10	nomatch	tard	-1	1	y	0.47846
154.2342	0.0	+	19	noun	list	2	11	nomatch	tard	-1	1	y	0.47846
154.63400000000001	0.0	+	19	noun	list	2	12	nomatch	tard	-1	1	y	0.47846
156.6497	0.0	TARD	19	noun	list	2	13	nomatch	tard	-1	1	y	0.47846
157.1828	0.0	+	19	noun	list	2	14	nomatch	tard	-1	1	y	0.47846
157.1282	0.0	[response]	19	noun	list	2	15	nomatch	tard	-1	1	y	0.47846
159.04860000000002	0.0	+	20	verb	list	2	1	nomatch	petit	-1	1	y	0.52169
159.59839999999997	0.2	nsckvm	20	verb	list	2	2	nomatch	petit	-1	1	y	0.52169
159.79829999999998	0.0	+	20	verb	list	2	3	nomatch	petit	-1	1	y	0.52169
160.1981	0.2	kgzb	20	verb	list	2	4	nomatch	petit	-1	1	y	0.52169
160.39800000000002	0.0	+	20	verb	list	2	5	nomatch	petit	-1	1	y	0.52169
160.7978	0.2	vh	20	verb	list	2	6	nomatch	petit	-1	1	y	0.52169
160.9977	0.0	+	20	verb	list	2	7	nomatch	petit	-1	1	y	0.52169
161.3976	0.2	nouveau	20	verb	list	2	8	nomatch	petit	-1	1	y	0.52169
161.59750000000003	0.0	+	20	verb	list	2	9	nomatch	petit	-1	1	y	0.52169
161.998	0.2	patiner	20	verb	list	2	10	nomatch	petit	-1	1	y	0.52169
162.1972	0.0	+	20	verb	list	2	11	nomatch	petit	-1	1	y	0.52169
162.59699999999998	0.0	+	20	verb	list	2	12	nomatch	petit	-1	1	y	0.52169
164.59609999999998	0.0	PETIT	20	verb	list	2	13	nomatch	petit	-1	1	y	0.52169
165.17919999999998	0.0	+	20	verb	list	2	14	nomatch	petit	-1	1	y	0.52169
165.1178	0.0	[response]	20	verb	list	2	15	nomatch	petit	-1	1	y	0.52169
166.995	0.0	+	21	verb	phrase	4	1	match	beaucoup	4	1	p	0.96671
167.5448	0.2	wcdgb	21	verb	phrase	4	2	match	beaucoup	4	1	p	0.96671
167.74470000000002	0.0	+	21	verb	phrase	4	3	match	beaucoup	4	1	p	0.96671
168.1445	0.2	luc	21	verb	phrase	4	4	match	beaucoup	4	1	p	0.96671
168.3444	0.0	+	21	verb	phrase	4	5	match	beaucoup	4	1	p	0.96671
168.74419999999998	0.2	va	21	verb	phrase	4	6	match	beaucoup	4	1	p	0.96671
168.9441	0.0	+	21	verb	phrase	4	7	match	beaucoup	4	1	p	0.96671
169.344	0.2	beaucoup	21	verb	phrase	4	8	match	beaucoup	4	1	p	0.96671
169.5439	0.0	+	21	verb	phrase	4	9	match	beaucoup	4	1	p	0.96671
169.94369999999998	0.2	chasser	21	verb	phrase	4	10	match	beaucoup	4	1	p	0.96671
170.1436	0.0	+	21	verb	phrase	4	11	match	beaucoup	4	1	p	0.96671
170.54340000000002	0.0	+	21	verb	phrase	4	12	match	beaucoup	4	1	p	0.96671
172.54250000000002	0.0	BEAUCOUP	21	verb	phrase	4	13	match	beaucoup	4	1	p	0.96671
173.5754	0.0	+	21	verb	phrase	4	14	match	beaucoup	4	1	p	0.96671
173.50920000000002	0.0	[response]	21	verb	phrase	4	15	match	beaucoup	4	1	p	0.96671
182.93779999999998	0.0	+	22	noun	phrase	1	1	nomatch	avec	-1	1	y	0.68384
183.4876	0.2	zltfnr	22	noun	phrase	1	2	nomatch	avec	-1	1	y	0.68384
183.6875	0.0	+	22	noun	phrase	1	3	nomatch	avec	-1	1	y	0.68384
184.08729999999997	0.2	kgzb	22	noun	phrase	1	4	nomatch	avec	-1	1	y	0.68384
184.28719999999998	0.0	+	22	noun	phrase	1	5	nomatch	avec	-1	1	y	0.68384
184.687	0.2	gbl	22	noun	phrase	1	6	nomatch	avec	-1	1	y	0.68384
184.88689999999997	0.0	+	22	noun	phrase	1	7	nomatch	avec	-1	1	y	0.68384
185.2867	0.2	rzwvd	22	noun	phrase	1	8	nomatch	avec	-1	1	y	0.68384
185.48669999999998	0.0	+	22	noun	phrase	1	9	nomatch	avec	-1	1	y	0.68384
185.8865	0.2	boîtier	22	noun	phrase	1	10	nomatch	avec	-1	1	y	0.68384
186.08639999999997	0.0	+	22	noun	phrase	1	11	nomatch	avec	-1	1	y	0.68384
186.4862	0.0	+	22	noun	phrase	1	12	nomatch	avec	-1	1	y	0.68384
188.4853	0.0	AVEC	22	noun	phrase	1	13	nomatch	avec	-1	1	y	0.68384
189.235	0.0	+	22	noun	phrase	1	14	nomatch	avec	-1	1	y	0.68384
189.16910000000001	0.0	[response]	22	noun	phrase	1	15	nomatch	avec	-1	1	y	0.68384
198.89729999999997	0.0	+	23	noun	phrase	1	1	match	voilier	5	1	p	0.45075
199.447	0.2	gkcqhbw	23	noun	phrase	1	2	match	voilier	5	1	p	0.45075
199.64690000000002	0.0	+	23	noun	phrase	1	3	match	voilier	5	1	p	0.45075
200.0467	0.2	ntmd	23	noun	phrase	1	4	match	voilier	5	1	p	0.45075
200.2466	0.0	+	23	noun	phrase	1	5	match	voilier	5	1	p	0.45075
200.64639999999997	0.2	bwgs	23	noun	phrase	1	6	match	voilier	5	1	p	0.45075
200.84640000000002	0.0	+	23	noun	phrase	1	7	match	voilier	5	1	p	0.45075
201.2462	0.2	nbcqh	23	noun	phrase	1	8	match	voilier	5	1	p	0.45075
201.4461	0.0	+	23	noun	phrase	1	9	match	voilier	5	1	p	0.45075
201.84589999999997	0.2	voilier	23	noun	phrase	1	10	match	voilier	5	1	p	0.45075
202.04579999999999	0.0	+	23	noun	phrase	1	11	match	voilier	5	1	p	0.45075
202.4456	0.0	+	23	noun	phrase	1	12	match	voilier	5	1	p	0.45075
204.4447	0.0	VOILIER	23	noun	phrase	1	13	match	voilier	5	1	p	0.45075
204.96120000000002	0.0	+	23	noun	phrase	1	14	match	voilier	5	1	p	0.45075
204.89549999999997	0.0	[response]	23	noun	phrase	1	15	match	voilier	5	1	p	0.45075
206.84359999999998	0.0	+	24	verb	phrase	1	1	match	mieux	5	1	p	0.44197
207.39339999999999	0.2	ndwf	24	verb	phrase	1	2	match	mieux	5	1	p	0.44197
207.5933	0.0	+	24	verb	phrase	1	3	match	mieux	5	1	p	0.44197
207.99309999999997	0.2	rdft	24	verb	phrase	1	4	match	mieux	5	1	p	0.44197
208.19299999999998	0.0	+	24	verb	phrase	1	5	match	mieux	5	1	p	0.44197
208.5929	0.2	hljn	24	verb	phrase	1	6	match	mieux	5	1	p	0.44197
208.79270000000002	0.0	+	24	verb	phrase	1	7	match	mieux	5	1	p	0.44197
209.19259999999997	0.2	zbrqtpv	24	verb	phrase	1	8	match	mieux	5	1	p	0.44197
209.39249999999998	0.0	+	24	verb	phrase	1	9	match	mieux	5	1	p	0.44197
209.7923	0.2	mieux	24	verb	phrase	1	10	match	mieux	5	1	p	0.44197
209.99220000000003	0.0	+	24	verb	phrase	1	11	match	mieux	5	1	p	0.44197
210.392	0.0	+	24	verb	phrase	1	12	match	mieux	5	1	p	0.44197
212.3911	0.0	MIEUX	24	verb	phrase	1	13	match	mieux	5	1	p	0.44197
212.8909	0.0	+	24	verb	phrase	1	14	match	mieux	5	1	p	0.44197
212.8331	0.0	[response]	24	verb	phrase	1	15	match	mieux	5	1	p	0.44197
214.7901	0.0	+	25	noun	list	3	1	match	beaucoup	4	1	p	0.45035
215.33980000000003	0.2	svhgmlk	25	noun	list	3	2	match	beaucoup	4	1	p	0.45035
215.53969999999998	0.0	+	25	noun	list	3	3	match	beaucoup	4	1	p	0.45035
215.9395	0.2	mthp	25	noun	list	3	4	match	beaucoup	4	1	p	0.45035
216.13940000000002	0.0	+	25	noun	list	3	5	match	beaucoup	4	1	p	0.45035
216.53929999999997	0.2	mon	25	noun	list	3	6	match	beaucoup	4	1	p	0.45035
216.73919999999998	0.0	+	25	noun	list	3	7	match	beaucoup	4	1	p	0.45035
217.139	0.2	beaucoup	25	noun	list	3	8	match	beaucoup	4	1	p	0.45035
217.33890000000002	0.0	+	25	noun	list	3	9	match	beaucoup	4	1	p	0.45035
217.7387	0.2	cendrier	25	noun	list	3	10	match	beaucoup	4	1	p	0.45035
217.9386	0.0	+	25	noun	list	3	11	match	beaucoup	4	1	p	0.45035
218.33839999999998	0.0	+	25	noun	list	3	12	match	beaucoup	4	1	p	0.45035
220.33749999999998	0.0	BEAUCOUP	25	noun	list	3	13	match	beaucoup	4	1	p	0.45035
220.85399999999998	0.0	+	25	noun	list	3	14	match	beaucoup	4	1	p	0.45035
220.78789999999998	0.0	[response]	25	noun	list	3	15	match	beaucoup	4	1	p	0.45035
222.7364	0.0	+	26	verb	list	1	1	nomatch	patiner	-1	1	y	0.5253
223.2862	0.2	wtvq	26	verb	list	1	2	nomatch	patiner	-1	1	y	0.5253
223.48610000000002	0.0	+	26	verb	list	1	3	nomatch	patiner	-1	1	y	0.5253
223.8859	0.2	ptkf	26	verb	list	1	4	nomatch	patiner	-1	1	y	0.5253
224.0858	0.0	+	26	verb	list	1	5	nomatch	patiner	-1	1	y	0.5253
224.4857	0.2	cpqb	26	verb	list	1	6	nomatch	patiner	-1	1	y	0.5253
224.6855	0.0	+	26	verb	list	1	7	nomatch	patiner	-1	1	y	0.5253
225.0854	0.2	nbcqh	26	verb	list	1	8	nomatch	patiner	-1	1	y	0.5253
225.2853	0.0	+	26	verb	list	1	9	nomatch	patiner	-1	1	y	0.5253
225.68509999999998	0.2	jongler	26	verb	list	1	10	nomatch	patiner	-1	1	y	0.5253
225.885	0.0	+	26	verb	list	1	11	nomatch	patiner	-1	1	y	0.5253
226.28480000000002	0.0	+	26	verb	list	1	12	nomatch	patiner	-1	1	y	0.5253
228.28390000000002	0.0	PATINER	26	verb	list	1	13	nomatch	patiner	-1	1	y	0.5253
228.86700000000002	0.0	+	26	verb	list	1	14	nomatch	patiner	-1	1	y	0.5253
228.80920000000003	0.0	[response]	26	verb	list	1	15	nomatch	patiner	-1	1	y	0.5253
246.6922	0.0	+	27	noun	list	3	1	match	va	3	1	p	0.40673
247.24200000000002	0.2	ltpvn	27	noun	list	3	2	match	va	3	1	p	0.40673
247.44189999999998	0.0	+	27	noun	list	3	3	match	va	3	1	p	0.40673
247.8417	0.2	gxsd	27	noun	list	3	4	match	va	3	1	p	0.40673
248.0417	0.0	+	27	noun	list	3	5	match	va	3	1	p	0.40673
248.4422	0.2	va	27	noun	list	3	6	match	va	3	1	p	0.40673
248.64139999999998	0.0	+	27	noun	list	3	7	match	va	3	1	p	0.40673
249.0412	0.2	boîtier	27	noun	list	3	8	match	va	3	1	p	0.40673
249.24110000000002	0.0	+	27	noun	list	3	9	match	va	3	1	p	0.40673
249.6409	0.2	ainsi	27	noun	list	3	10	match	va	3	1	p	0.40673
249.8408	0.0	+	27	noun	list	3	11	match	va	3	1	p	0.40673
250.24059999999997	0.0	+	27	noun	list	3	12	match	va	3	1	p	0.40673
252.23969999999997	0.0	VA	27	noun	list	3	13	match	va	3	1	p	0.40673
252.70620000000002	0.0	+	27	noun	list	3	14	match	va	3	1	p	0.40673
252.6465	0.0	[response]	27	noun	list	3	15	match	va	3	1	p	0.40673
254.63869999999997	0.0	+	28	verb	phrase	1	1	nomatch	peut	-1	1	y	0.46888
255.1884	0.2	hlbqvfj	28	verb	phrase	1	2	nomatch	peut	-1	1	y	0.46888
255.38830000000002	0.0	+	28	verb	phrase	1	3	nomatch	peut	-1	1	y	0.46888
255.7881	0.2	cdsf	28	verb	phrase	1	4	nomatch	peut	-1	1	y	0.46888
255.988	0.0	+	28	verb	phrase	1	5	nomatch	peut	-1	1	y	0.46888
256.3879	0.2	vh	28	verb	phrase	1	6	nomatch	peut	-1	1	y	0.46888
256.5878	0.0	+	28	verb	phrase	1	7	nomatch	peut	-1	1	y	0.46888
256.9876	0.2	wjcf	28	verb	phrase	1	8	nomatch	peut	-1	1	y	0.46888
257.1875	0.0	+	28	verb	phrase	1	9	nomatch	peut	-1	1	y	0.46888
257.58729999999997	0.2	chasser	28	verb	phrase	1	10	nomatch	peut	-1	1	y	0.46888
257.7872	0.0	+	28	verb	phrase	1	11	nomatch	peut	-1	1	y	0.46888
258.187	0.0	+	28	verb	phrase	1	12	nomatch	peut	-1	1	y	0.46888
260.1861	0.0	PEUT	28	verb	phrase	1	13	nomatch	peut	-1	1	y	0.46888
260.7192	0.0	+	28	verb	phrase	1	14	nomatch	peut	-1	1	y	0.46888
260.655	0.0	[response]	28	verb	phrase	1	15	nomatch	peut	-1	1	y	0.46888
262.5851	0.0	+	29	noun	phrase	1	1	nomatch	rouge	-1	1	y	0.44434000000000007
263.1348	0.2	tbgz	29	noun	phrase	1	2	nomatch	rouge	-1	1	y	0.44434000000000007
263.3347	0.0	+	29	noun	phrase	1	3	nomatch	rouge	-1	1	y	0.44434000000000007
263.7345	0.2	lzd	29	noun	phrase	1	4	nomatch	rouge	-1	1	y	0.44434000000000007
263.9344	0.0	+	29	noun	phrase	1	5	nomatch	rouge	-1	1	y	0.44434000000000007
264.3343	0.2	gbl	29	noun	phrase	1	6	nomatch	rouge	-1	1	y	0.44434000000000007
264.5342	0.0	+	29	noun	phrase	1	7	nomatch	rouge	-1	1	y	0.44434000000000007
264.93399999999997	0.2	dbcsxtr	29	noun	phrase	1	8	nomatch	rouge	-1	1	y	0.44434000000000007
265.1339	0.0	+	29	noun	phrase	1	9	nomatch	rouge	-1	1	y	0.44434000000000007
265.5337	0.2	vert	29	noun	phrase	1	10	nomatch	rouge	-1	1	y	0.44434000000000007
265.7336	0.0	+	29	noun	phrase	1	11	nomatch	rouge	-1	1	y	0.44434000000000007
266.13349999999997	0.0	+	29	noun	phrase	1	12	nomatch	rouge	-1	1	y	0.44434000000000007
268.1492	0.0	ROUGE	29	noun	phrase	1	13	nomatch	rouge	-1	1	y	0.44434000000000007
268.649	0.0	+	29	noun	phrase	1	14	nomatch	rouge	-1	1	y	0.44434000000000007
268.5935	0.0	[response]	29	noun	phrase	1	15	nomatch	rouge	-1	1	y	0.44434000000000007
270.5481	0.0	+	30	noun	phrase	3	1	nomatch	va	-1	1	y	0.58904
271.0979	0.2	qmrb	30	noun	phrase	3	2	nomatch	va	-1	1	y	0.58904
271.2978	0.0	+	30	noun	phrase	3	3	nomatch	va	-1	1	y	0.58904
271.6976	0.2	ntmd	30	noun	phrase	3	4	nomatch	va	-1	1	y	0.58904
271.8975	0.0	+	30	noun	phrase	3	5	nomatch	va	-1	1	y	0.58904
272.2973	0.2	mon	30	noun	phrase	3	6	nomatch	va	-1	1	y	0.58904
272.4972	0.0	+	30	noun	phrase	3	7	nomatch	va	-1	1	y	0.58904
272.897	0.2	nouveau	30	noun	phrase	3	8	nomatch	va	-1	1	y	0.58904
273.097	0.0	+	30	noun	phrase	3	9	nomatch	va	-1	1	y	0.58904
273.4968	0.2	rocher	30	noun	phrase	3	10	nomatch	va	-1	1	y	0.58904
273.6967	0.0	+	30	noun	phrase	3	11	nomatch	va	-1	1	y	0.58904
274.0965	0.0	+	30	noun	phrase	3	12	nomatch	va	-1	1	y	0.58904
276.0956	0.0	VA	30	noun	phrase	3	13	nomatch	va	-1	1	y	0.58904
276.7453	0.0	+	30	noun	phrase	3	14	nomatch	va	-1	1	y	0.58904
276.6846	0.0	[response]	30	noun	phrase	3	15	nomatch	va	-1	1	y	0.58904
278.4945	0.0	+	31	noun	list	4	1	nomatch	luc	-1	1	y	0.57435
279.0443	0.2	gzmf	31	noun	list	4	2	nomatch	luc	-1	1	y	0.57435
279.2442	0.0	+	31	noun	list	4	3	nomatch	luc	-1	1	y	0.57435
279.644	0.2	yves	31	noun	list	4	4	nomatch	luc	-1	1	y	0.57435
279.8439	0.0	+	31	noun	list	4	5	nomatch	luc	-1	1	y	0.57435
280.2437	0.2	leur	31	noun	list	4	6	nomatch	luc	-1	1	y	0.57435
280.4436	0.0	+	31	noun	list	4	7	nomatch	luc	-1	1	y	0.57435
280.8434	0.2	moins	31	noun	list	4	8	nomatch	luc	-1	1	y	0.57435
281.0434	0.0	+	31	noun	list	4	9	nomatch	luc	-1	1	y	0.57435
281.4432	0.2	boîtier	31	noun	list	4	10	nomatch	luc	-1	1	y	0.57435
281.6431	0.0	+	31	noun	list	4	11	nomatch	luc	-1	1	y	0.57435
282.0429	0.0	+	31	noun	list	4	12	nomatch	luc	-1	1	y	0.57435
284.042	0.0	LUC	31	noun	list	4	13	nomatch	luc	-1	1	y	0.57435
284.675	0.0	+	31	noun	list	4	14	nomatch	luc	-1	1	y	0.57435
284.6164	0.0	[response]	31	noun	list	4	15	nomatch	luc	-1	1	y	0.57435
286.4409	0.0	+	32	verb	list	4	1	nomatch	avec	-1	1	y	0.57322
286.9907	0.2	zglr	32	verb	list	4	2	nomatch	avec	-1	1	y	0.57322
287.1906	0.0	+	32	verb	list	4	3	nomatch	avec	-1	1	y	0.57322
287.5904	0.2	sous	32	verb	list	4	4	nomatch	avec	-1	1	y	0.57322
287.7903	0.0	+	32	verb	list	4	5	nomatch	avec	-1	1	y	0.57322
288.1901	0.2	peut	32	verb	list	4	6	nomatch	avec	-1	1	y	0.57322
288.39	0.0	+	32	verb	list	4	7	nomatch	avec	-1	1	y	0.57322
288.7898	0.2	nouveau	32	verb	list	4	8	nomatch	avec	-1	1	y	0.57322
288.98969999999997	0.0	+	32	verb	list	4	9	nomatch	avec	-1	1	y	0.57322
289.3896	0.2	galoper	32	verb	list	4	10	nomatch	avec	-1	1	y	0.57322
289.5895	0.0	+	32	verb	list	4	11	nomatch	avec	-1	1	y	0.57322
289.9893	0.0	+	32	verb	list	4	12	nomatch	avec	-1	1	y	0.57322
291.9884	0.0	AVEC	32	verb	list	4	13	nomatch	avec	-1	1	y	0.57322
292.6214	0.0	+	32	verb	list	4	14	nomatch	avec	-1	1	y	0.57322
292.56160000000006	0.0	[response]	32	verb	list	4	15	nomatch	avec	-1	1	y	0.57322
294.3873	0.0	+	33	verb	list	1	1	nomatch	patiner	-1	1	y	0.48399
294.9371	0.2	qdvc	33	verb	list	1	2	nomatch	patiner	-1	1	y	0.48399
295.137	0.0	+	33	verb	list	1	3	nomatch	patiner	-1	1	y	0.48399
295.53679999999997	0.2	kgzb	33	verb	list	1	4	nomatch	patiner	-1	1	y	0.48399
295.737	0.0	+	33	verb	list	1	5	nomatch	patiner	-1	1	y	0.48399
296.1365	0.2	hljn	33	verb	list	1	6	nomatch	patiner	-1	1	y	0.48399
296.33639999999997	0.0	+	33	verb	list	1	7	nomatch	patiner	-1	1	y	0.48399
296.73629999999997	0.2	tqrn	33	verb	list	1	8	nomatch	patiner	-1	1	y	0.48399
296.9362	0.0	+	33	verb	list	1	9	nomatch	patiner	-1	1	y	0.48399
297.336	0.2	nager	33	verb	list	1	10	nomatch	patiner	-1	1	y	0.48399
297.53589999999997	0.0	+	33	verb	list	1	11	nomatch	patiner	-1	1	y	0.48399
297.9357	0.0	+	33	verb	list	1	12	nomatch	patiner	-1	1	y	0.48399
299.9348	0.0	PATINER	33	verb	list	1	13	nomatch	patiner	-1	1	y	0.48399
300.4845	0.0	+	33	verb	list	1	14	nomatch	patiner	-1	1	y	0.48399
300.4188	0.0	[response]	33	verb	list	1	15	nomatch	patiner	-1	1	y	0.48399
302.3337	0.0	+	34	noun	phrase	4	1	match	leur	3	1	p	1.862
302.8837	0.2	vhnrg	34	noun	phrase	4	2	match	leur	3	1	p	1.862
303.1	0.0	+	34	noun	phrase	4	3	match	leur	3	1	p	1.862
303.4999	0.2	vers	34	noun	phrase	4	4	match	leur	3	1	p	1.862
303.6998	0.0	+	34	noun	phrase	4	5	match	leur	3	1	p	1.862
304.0996	0.2	leur	34	noun	phrase	4	6	match	leur	3	1	p	1.862
304.2995	0.0	+	34	noun	phrase	4	7	match	leur	3	1	p	1.862
304.6993	0.2	grand	34	noun	phrase	4	8	match	leur	3	1	p	1.862
304.8992	0.0	+	34	noun	phrase	4	9	match	leur	3	1	p	1.862
305.299	0.2	sablier	34	noun	phrase	4	10	match	leur	3	1	p	1.862
305.4989	0.0	+	34	noun	phrase	4	11	match	leur	3	1	p	1.862
305.8988	0.0	+	34	noun	phrase	4	12	match	leur	3	1	p	1.862
307.8979	0.0	LEUR	34	noun	phrase	4	13	match	leur	3	1	p	1.862
309.81370000000004	0.0	+	34	noun	phrase	4	14	match	leur	3	1	p	1.862
309.75980000000004	0.0	[response]	34	noun	phrase	4	15	match	leur	3	1	p	1.862
310.29679999999996	0.0	+	35	verb	phrase	1	1	nomatch	mieux	-1	1	y	0.60451
310.8465	0.2	mkt	35	verb	phrase	1	2	nomatch	mieux	-1	1	y	0.60451
311.04639999999995	0.0	+	35	verb	phrase	1	3	nomatch	mieux	-1	1	y	0.60451
311.44629999999995	0.2	mthp	35	verb	phrase	1	4	nomatch	mieux	-1	1	y	0.60451
311.6462	0.0	+	35	verb	phrase	1	5	nomatch	mieux	-1	1	y	0.60451
312.04600000000005	0.2	hljn	35	verb	phrase	1	6	nomatch	mieux	-1	1	y	0.60451
312.2459	0.0	+	35	verb	phrase	1	7	nomatch	mieux	-1	1	y	0.60451
312.64570000000003	0.2	nqdzxlv	35	verb	phrase	1	8	nomatch	mieux	-1	1	y	0.60451
312.8456	0.0	+	35	verb	phrase	1	9	nomatch	mieux	-1	1	y	0.60451
313.2454	0.2	plus	35	verb	phrase	1	10	nomatch	mieux	-1	1	y	0.60451
313.4453	0.0	+	35	verb	phrase	1	11	nomatch	mieux	-1	1	y	0.60451
313.8452	0.0	+	35	verb	phrase	1	12	nomatch	mieux	-1	1	y	0.60451
315.8443	0.0	MIEUX	35	verb	phrase	1	13	nomatch	mieux	-1	1	y	0.60451
316.51059999999995	0.0	+	35	verb	phrase	1	14	nomatch	mieux	-1	1	y	0.60451
316.4488	0.0	[response]	35	verb	phrase	1	15	nomatch	mieux	-1	1	y	0.60451
318.2432	0.0	+	36	verb	list	1	1	match	vert	5	1	p	0.4449
318.79290000000003	0.2	rgqw	36	verb	list	1	2	match	vert	5	1	p	0.4449
318.9928	0.0	+	36	verb	list	1	3	match	vert	5	1	p	0.4449
319.3926	0.2	cdsf	36	verb	list	1	4	match	vert	5	1	p	0.4449
319.59259999999995	0.0	+	36	verb	list	1	5	match	vert	5	1	p	0.4449
319.9924	0.2	bqm	36	verb	list	1	6	match	vert	5	1	p	0.4449
320.19230000000005	0.0	+	36	verb	list	1	7	match	vert	5	1	p	0.4449
320.59209999999996	0.2	rhntpd	36	verb	list	1	8	match	vert	5	1	p	0.4449
320.79200000000003	0.0	+	36	verb	list	1	9	match	vert	5	1	p	0.4449
321.19179999999994	0.2	vert	36	verb	list	1	10	match	vert	5	1	p	0.4449
321.3918	0.0	+	36	verb	list	1	11	match	vert	5	1	p	0.4449
321.7916	0.0	+	36	verb	list	1	12	match	vert	5	1	p	0.4449
323.79060000000004	0.0	VERT	36	verb	list	1	13	match	vert	5	1	p	0.4449
324.2904	0.0	+	36	verb	list	1	14	match	vert	5	1	p	0.4449
324.2356	0.0	[response]	36	verb	list	1	15	match	vert	5	1	p	0.4449
326.18960000000004	0.0	+	37	noun	list	1	1	match	rocher	5	1	p	0.44208
326.73929999999996	0.2	kmbxw	37	noun	list	1	2	match	rocher	5	1	p	0.44208
326.9392	0.0	+	37	noun	list	1	3	match	rocher	5	1	p	0.44208
327.33899999999994	0.2	vzck	37	noun	list	1	4	match	rocher	5	1	p	0.44208
327.539	0.0	+	37	noun	list	1	5	match	rocher	5	1	p	0.44208
327.9388	0.2	cpqb	37	noun	list	1	6	match	rocher	5	1	p	0.44208
328.1387	0.0	+	37	noun	list	1	7	match	rocher	5	1	p	0.44208
328.5385	0.2	ljk	37	noun	list	1	8	match	rocher	5	1	p	0.44208
328.73839999999996	0.0	+	37	noun	list	1	9	match	rocher	5	1	p	0.44208
329.1382	0.2	rocher	37	noun	list	1	10	match	rocher	5	1	p	0.44208
329.33809999999994	0.0	+	37	noun	list	1	11	match	rocher	5	1	p	0.44208
329.73799999999994	0.0	+	37	noun	list	1	12	match	rocher	5	1	p	0.44208
331.73699999999997	0.0	ROCHER	37	noun	list	1	13	match	rocher	5	1	p	0.44208
332.2368	0.0	+	37	noun	list	1	14	match	rocher	5	1	p	0.44208
332.17909999999995	0.0	[response]	37	noun	list	1	15	match	rocher	5	1	p	0.44208
334.13599999999997	0.0	+	38	verb	phrase	3	1	nomatch	danser	-1	1	y	0.65063
334.6857	0.2	djlvsnk	38	verb	phrase	3	2	nomatch	danser	-1	1	y	0.65063
334.88559999999995	0.0	+	38	verb	phrase	3	3	nomatch	danser	-1	1	y	0.65063
335.2854	0.2	wlmq	38	verb	phrase	3	4	nomatch	danser	-1	1	y	0.65063
335.4854	0.0	+	38	verb	phrase	3	5	nomatch	danser	-1	1	y	0.65063
335.88519999999994	0.2	peut	38	verb	phrase	3	6	nomatch	danser	-1	1	y	0.65063
336.0851	0.0	+	38	verb	phrase	3	7	nomatch	danser	-1	1	y	0.65063
336.48490000000004	0.2	nager	38	verb	phrase	3	8	nomatch	danser	-1	1	y	0.65063
336.6848	0.0	+	38	verb	phrase	3	9	nomatch	danser	-1	1	y	0.65063
337.0846	0.2	tôt	38	verb	phrase	3	10	nomatch	danser	-1	1	y	0.65063
337.2845	0.0	+	38	verb	phrase	3	11	nomatch	danser	-1	1	y	0.65063
337.6844	0.0	+	38	verb	phrase	3	12	nomatch	danser	-1	1	y	0.65063
339.6835	0.0	DANSER	38	verb	phrase	3	13	nomatch	danser	-1	1	y	0.65063
340.3998	0.0	+	38	verb	phrase	3	14	nomatch	danser	-1	1	y	0.65063
340.33410000000003	0.0	[response]	38	verb	phrase	3	15	nomatch	danser	-1	1	y	0.65063
342.09900000000005	0.0	+	39	noun	list	1	1	match	rocher	5	1	p	0.43236
342.64880000000005	0.2	rfnql	39	noun	list	1	2	match	rocher	5	1	p	0.43236
342.8487	0.0	+	39	noun	list	1	3	match	rocher	5	1	p	0.43236
343.24850000000004	0.2	mthp	39	noun	list	1	4	match	rocher	5	1	p	0.43236
343.4484	0.0	+	39	noun	list	1	5	match	rocher	5	1	p	0.43236
343.8482	0.2	bqm	39	noun	list	1	6	match	rocher	5	1	p	0.43236
344.0481	0.0	+	39	noun	list	1	7	match	rocher	5	1	p	0.43236
344.448	0.2	qmbwg	39	noun	list	1	8	match	rocher	5	1	p	0.43236
344.64790000000005	0.0	+	39	noun	list	1	9	match	rocher	5	1	p	0.43236
345.04769999999996	0.2	rocher	39	noun	list	1	10	match	rocher	5	1	p	0.43236
345.24760000000003	0.0	+	39	noun	list	1	11	match	rocher	5	1	p	0.43236
345.64739999999995	0.0	+	39	noun	list	1	12	match	rocher	5	1	p	0.43236
347.64649999999995	0.0	ROCHER	39	noun	list	1	13	match	rocher	5	1	p	0.43236
348.1463	0.0	+	39	noun	list	1	14	match	rocher	5	1	p	0.43236
348.0789	0.0	[response]	39	noun	list	1	15	match	rocher	5	1	p	0.43236
358.04179999999997	0.0	+	40	noun	phrase	2	1	nomatch	rouge	-1	1	y	0.61034
358.59159999999997	0.2	tmkpqc	40	noun	phrase	2	2	nomatch	rouge	-1	1	y	0.61034
358.79150000000004	0.0	+	40	noun	phrase	2	3	nomatch	rouge	-1	1	y	0.61034
359.19129999999996	0.2	lzd	40	noun	phrase	2	4	nomatch	rouge	-1	1	y	0.61034
359.3912	0.0	+	40	noun	phrase	2	5	nomatch	rouge	-1	1	y	0.61034
359.79100000000005	0.2	gbl	40	noun	phrase	2	6	nomatch	rouge	-1	1	y	0.61034
359.9909	0.0	+	40	noun	phrase	2	7	nomatch	rouge	-1	1	y	0.61034
360.39070000000004	0.2	voilier	40	noun	phrase	2	8	nomatch	rouge	-1	1	y	0.61034
360.5906	0.0	+	40	noun	phrase	2	9	nomatch	rouge	-1	1	y	0.61034
360.9905	0.2	bleu	40	noun	phrase	2	10	nomatch	rouge	-1	1	y	0.61034
361.19039999999995	0.0	+	40	noun	phrase	2	11	nomatch	rouge	-1	1	y	0.61034
361.5902	0.0	+	40	noun	phrase	2	12	nomatch	rouge	-1	1	y	0.61034
363.5893	0.0	ROUGE	40	noun	phrase	2	13	nomatch	rouge	-1	1	y	0.61034
364.25570000000005	0.0	+	40	noun	phrase	2	14	nomatch	rouge	-1	1	y	0.61034
364.19960000000003	0.0	[response]	40	noun	phrase	2	15	nomatch	rouge	-1	1	y	0.61034
365.9882	0.0	+	41	verb	phrase	2	1	nomatch	rouler	-1	1	y	1.1753
366.538	0.2	wmgshq	41	verb	phrase	2	2	nomatch	rouler	-1	1	y	1.1753
366.73789999999997	0.0	+	41	verb	phrase	2	3	nomatch	rouler	-1	1	y	1.1753
367.1377	0.2	rdft	41	verb	phrase	2	4	nomatch	rouler	-1	1	y	1.1753
367.33759999999995	0.0	+	41	verb	phrase	2	5	nomatch	rouler	-1	1	y	1.1753
367.7374	0.2	vh	41	verb	phrase	2	6	nomatch	rouler	-1	1	y	1.1753
367.93730000000005	0.0	+	41	verb	phrase	2	7	nomatch	rouler	-1	1	y	1.1753
368.33709999999996	0.2	patiner	41	verb	phrase	2	8	nomatch	rouler	-1	1	y	1.1753
368.5372	0.0	+	41	verb	phrase	2	9	nomatch	rouler	-1	1	y	1.1753
368.93690000000004	0.2	tôt	41	verb	phrase	2	10	nomatch	rouler	-1	1	y	1.1753
369.1368	0.0	+	41	verb	phrase	2	11	nomatch	rouler	-1	1	y	1.1753
369.5366	0.0	+	41	verb	phrase	2	12	nomatch	rouler	-1	1	y	1.1753
371.5357	0.0	ROULER	41	verb	phrase	2	13	nomatch	rouler	-1	1	y	1.1753
372.7685	0.0	+	41	verb	phrase	2	14	nomatch	rouler	-1	1	y	1.1753
372.711	0.0	[response]	41	verb	phrase	2	15	nomatch	rouler	-1	1	y	1.1753
373.93460000000005	0.0	+	42	noun	list	4	1	match	sans	2	1	p	0.44882
374.48429999999996	0.2	zjrcvs	42	noun	list	4	2	match	sans	2	1	p	0.44882
374.6843	0.0	+	42	noun	list	4	3	match	sans	2	1	p	0.44882
375.08410000000003	0.2	sans	42	noun	list	4	4	match	sans	2	1	p	0.44882
375.284	0.0	+	42	noun	list	4	5	match	sans	2	1	p	0.44882
375.6838	0.2	peut	42	noun	list	4	6	match	sans	2	1	p	0.44882
375.8837	0.0	+	42	noun	list	4	7	match	sans	2	1	p	0.44882
376.2835	0.2	panier	42	noun	list	4	8	match	sans	2	1	p	0.44882
376.48350000000005	0.0	+	42	noun	list	4	9	match	sans	2	1	p	0.44882
376.8999	0.2	tard	42	noun	list	4	10	match	sans	2	1	p	0.44882
377.09979999999996	0.0	+	42	noun	list	4	11	match	sans	2	1	p	0.44882
377.49969999999996	0.0	+	42	noun	list	4	12	match	sans	2	1	p	0.44882
379.49879999999996	0.0	SANS	42	noun	list	4	13	match	sans	2	1	p	0.44882
380.01520000000005	0.0	+	42	noun	list	4	14	match	sans	2	1	p	0.44882
379.9476000000001	0.0	[response]	42	noun	list	4	15	match	sans	2	1	p	0.44882
381.8977	0.0	+	43	noun	list	1	1	nomatch	boîtier	-1	1	y	0.50082
382.4474	0.2	zfvsrd	43	noun	list	1	2	nomatch	boîtier	-1	1	y	0.50082
382.6473	0.0	+	43	noun	list	1	3	nomatch	boîtier	-1	1	y	0.50082
383.0472	0.2	gxsd	43	noun	list	1	4	nomatch	boîtier	-1	1	y	0.50082
383.24699999999996	0.0	+	43	noun	list	1	5	nomatch	boîtier	-1	1	y	0.50082
383.64689999999996	0.2	hljn	43	noun	list	1	6	nomatch	boîtier	-1	1	y	0.50082
383.84680000000003	0.0	+	43	noun	list	1	7	nomatch	boîtier	-1	1	y	0.50082
384.24659999999994	0.2	nzxl	43	noun	list	1	8	nomatch	boîtier	-1	1	y	0.50082
384.4465	0.0	+	43	noun	list	1	9	nomatch	boîtier	-1	1	y	0.50082
384.84630000000004	0.2	tablier	43	noun	list	1	10	nomatch	boîtier	-1	1	y	0.50082
385.0462	0.0	+	43	noun	list	1	11	nomatch	boîtier	-1	1	y	0.50082
385.4461	0.0	+	43	noun	list	1	12	nomatch	boîtier	-1	1	y	0.50082
387.4451	0.0	BOÎTIER	43	noun	list	1	13	nomatch	boîtier	-1	1	y	0.50082
388.01160000000004	0.0	+	43	noun	list	1	14	nomatch	boîtier	-1	1	y	0.50082
387.946	0.0	[response]	43	noun	list	1	15	nomatch	boîtier	-1	1	y	0.50082
389.8441	0.0	+	44	verb	phrase	1	1	nomatch	nouveau	-1	1	y	0.6411100000000001
390.39379999999994	0.2	gpmq	44	verb	phrase	1	2	nomatch	nouveau	-1	1	y	0.6411100000000001
390.5937	0.0	+	44	verb	phrase	1	3	nomatch	nouveau	-1	1	y	0.6411100000000001
390.99350000000004	0.2	mthp	44	verb	phrase	1	4	nomatch	nouveau	-1	1	y	0.6411100000000001
391.1935	0.0	+	44	verb	phrase	1	5	nomatch	nouveau	-1	1	y	0.6411100000000001
391.5933	0.2	vh	44	verb	phrase	1	6	nomatch	nouveau	-1	1	y	0.6411100000000001
391.79319999999996	0.0	+	44	verb	phrase	1	7	nomatch	nouveau	-1	1	y	0.6411100000000001
392.193	0.2	rhntpd	44	verb	phrase	1	8	nomatch	nouveau	-1	1	y	0.6411100000000001
392.39289999999994	0.0	+	44	verb	phrase	1	9	nomatch	nouveau	-1	1	y	0.6411100000000001
392.79269999999997	0.2	trop	44	verb	phrase	1	10	nomatch	nouveau	-1	1	y	0.6411100000000001
392.99260000000004	0.0	+	44	verb	phrase	1	11	nomatch	nouveau	-1	1	y	0.6411100000000001
393.39250000000004	0.0	+	44	verb	phrase	1	12	nomatch	nouveau	-1	1	y	0.6411100000000001
395.39149999999995	0.0	NOUVEAU	44	verb	phrase	1	13	nomatch	nouveau	-1	1	y	0.6411100000000001
396.09119999999996	0.0	+	44	verb	phrase	1	14	nomatch	nouveau	-1	1	y	0.6411100000000001
396.0326	0.0	[response]	44	verb	phrase	1	15	nomatch	nouveau	-1	1	y	0.6411100000000001
397.79049999999995	0.0	+	45	noun	phrase	4	1	nomatch	petit	-1	1	y	0.63391
398.3402	0.2	hmsbzq	45	noun	phrase	4	2	nomatch	petit	-1	1	y	0.63391
398.54010000000005	0.0	+	45	noun	phrase	4	3	nomatch	petit	-1	1	y	0.63391
398.93989999999997	0.2	sans	45	noun	phrase	4	4	nomatch	petit	-1	1	y	0.63391
399.1399	0.0	+	45	noun	phrase	4	5	nomatch	petit	-1	1	y	0.63391
399.53970000000004	0.2	mon	45	noun	phrase	4	6	nomatch	petit	-1	1	y	0.63391
399.7396	0.0	+	45	noun	phrase	4	7	nomatch	petit	-1	1	y	0.63391
400.1394	0.2	vieux	45	noun	phrase	4	8	nomatch	petit	-1	1	y	0.63391
400.3393	0.0	+	45	noun	phrase	4	9	nomatch	petit	-1	1	y	0.63391
400.7391	0.2	voilier	45	noun	phrase	4	10	nomatch	petit	-1	1	y	0.63391
400.93899999999996	0.0	+	45	noun	phrase	4	11	nomatch	petit	-1	1	y	0.63391
401.3388	0.0	+	45	noun	phrase	4	12	nomatch	petit	-1	1	y	0.63391
403.33799999999997	0.0	PETIT	45	noun	phrase	4	13	nomatch	petit	-1	1	y	0.63391
404.0376	0.0	+	45	noun	phrase	4	14	nomatch	petit	-1	1	y	0.63391
403.9719	0.0	[response]	45	noun	phrase	4	15	nomatch	petit	-1	1	y	0.63391
413.7499	0.0	+	46	noun	list	1	1	nomatch	boîtier	-1	1	y	0.61831
414.29970000000003	0.2	ngfb	46	noun	list	1	2	nomatch	boîtier	-1	1	y	0.61831
414.4996	0.0	+	46	noun	list	1	3	nomatch	boîtier	-1	1	y	0.61831
414.8994	0.2	psvm	46	noun	list	1	4	nomatch	boîtier	-1	1	y	0.61831
415.09929999999997	0.0	+	46	noun	list	1	5	nomatch	boîtier	-1	1	y	0.61831
415.4991	0.2	vh	46	noun	list	1	6	nomatch	boîtier	-1	1	y	0.61831
415.69899999999996	0.0	+	46	noun	list	1	7	nomatch	boîtier	-1	1	y	0.61831
416.0988	0.2	wjcf	46	noun	list	1	8	nomatch	boîtier	-1	1	y	0.61831
416.29870000000005	0.0	+	46	noun	list	1	9	nomatch	boîtier	-1	1	y	0.61831
416.69859999999994	0.2	cendrier	46	noun	list	1	10	nomatch	boîtier	-1	1	y	0.61831
416.8985	0.0	+	46	noun	list	1	11	nomatch	boîtier	-1	1	y	0.61831
417.29830000000004	0.0	+	46	noun	list	1	12	nomatch	boîtier	-1	1	y	0.61831
419.29740000000004	0.0	BOÎTIER	46	noun	list	1	13	nomatch	boîtier	-1	1	y	0.61831
419.98040000000003	0.0	+	46	noun	list	1	14	nomatch	boîtier	-1	1	y	0.61831
419.9157	0.0	[response]	46	noun	list	1	15	nomatch	boîtier	-1	1	y	0.61831
445.68539999999996	0.0	+	47	noun	list	4	1	match	jade	2	1	p	0.44931
446.23519999999996	0.2	vwmj	47	noun	list	4	2	match	jade	2	1	p	0.44931
446.43510000000003	0.0	+	47	noun	list	4	3	match	jade	2	1	p	0.44931
446.83489999999995	0.2	jade	47	noun	list	4	4	match	jade	2	1	p	0.44931
447.0348	0.0	+	47	noun	list	4	5	match	jade	2	1	p	0.44931
447.43460000000005	0.2	leur	47	noun	list	4	6	match	jade	2	1	p	0.44931
447.6345	0.0	+	47	noun	list	4	7	match	jade	2	1	p	0.44931
448.0344	0.2	plus	47	noun	list	4	8	match	jade	2	1	p	0.44931
448.23429999999996	0.0	+	47	noun	list	4	9	match	jade	2	1	p	0.44931
448.6341	0.2	voilier	47	noun	list	4	10	match	jade	2	1	p	0.44931
448.83399999999995	0.0	+	47	noun	list	4	11	match	jade	2	1	p	0.44931
449.2338	0.0	+	47	noun	list	4	12	match	jade	2	1	p	0.44931
451.2496	0.0	JADE	47	noun	list	4	13	match	jade	2	1	p	0.44931
451.76599999999996	0.0	+	47	noun	list	4	14	match	jade	2	1	p	0.44931
451.6989	0.0	[response]	47	noun	list	4	15	match	jade	2	1	p	0.44931
453.6485	0.0	+	48	noun	phrase	2	1	match	panier	5	0	y	0.50662
454.19820000000004	0.2	jpqsm	48	noun	phrase	2	2	match	panier	5	0	y	0.50662
454.3982	0.0	+	48	noun	phrase	2	3	match	panier	5	0	y	0.50662
454.798	0.2	kgzb	48	noun	phrase	2	4	match	panier	5	0	y	0.50662
454.99789999999996	0.0	+	48	noun	phrase	2	5	match	panier	5	0	y	0.50662
455.3977	0.2	bwgs	48	noun	phrase	2	6	match	panier	5	0	y	0.50662
455.59759999999994	0.0	+	48	noun	phrase	2	7	match	panier	5	0	y	0.50662
455.99739999999997	0.2	nouveau	48	noun	phrase	2	8	match	panier	5	0	y	0.50662
456.19730000000004	0.0	+	48	noun	phrase	2	9	match	panier	5	0	y	0.50662
456.59720000000004	0.2	panier	48	noun	phrase	2	10	match	panier	5	0	y	0.50662
456.7971	0.0	+	48	noun	phrase	2	11	match	panier	5	0	y	0.50662
457.1969	0.0	+	48	noun	phrase	2	12	match	panier	5	0	y	0.50662
459.196	0.0	PANIER	48	noun	phrase	2	13	match	panier	5	0	y	0.50662
459.76239999999996	0.0	+	48	noun	phrase	2	14	match	panier	5	0	y	0.50662
459.70259999999996	0.0	[response]	48	noun	phrase	2	15	match	panier	5	0	y	0.50662
461.59490000000005	0.0	+	49	noun	phrase	4	1	match	avec	2	1	p	0.57513
462.14459999999997	0.2	gcsr	49	noun	phrase	4	2	match	avec	2	1	p	0.57513
462.3446	0.0	+	49	noun	phrase	4	3	match	avec	2	1	p	0.57513
462.74440000000004	0.2	avec	49	noun	phrase	4	4	match	avec	2	1	p	0.57513
462.9443	0.0	+	49	noun	phrase	4	5	match	avec	2	1	p	0.57513
463.3441	0.2	mon	49	noun	phrase	4	6	match	avec	2	1	p	0.57513
463.544	0.0	+	49	noun	phrase	4	7	match	avec	2	1	p	0.57513
463.9438	0.2	grand	49	noun	phrase	4	8	match	avec	2	1	p	0.57513
464.14369999999997	0.0	+	49	noun	phrase	4	9	match	avec	2	1	p	0.57513
464.5435	0.2	boîtier	49	noun	phrase	4	10	match	avec	2	1	p	0.57513
464.74350000000004	0.0	+	49	noun	phrase	4	11	match	avec	2	1	p	0.57513
465.14329999999995	0.0	+	49	noun	phrase	4	12	match	avec	2	1	p	0.57513
467.14239999999995	0.0	AVEC	49	noun	phrase	4	13	match	avec	2	1	p	0.57513
467.7754	0.0	+	49	noun	phrase	4	14	match	avec	2	1	p	0.57513
467.7175	0.0	[response]	49	noun	phrase	4	15	match	avec	2	1	p	0.57513
469.5413	0.0	+	50	noun	list	4	1	nomatch	petit	-1	1	y	0.74626
470.091	0.2	blvthwj	50	noun	list	4	2	nomatch	petit	-1	1	y	0.74626
470.29089999999997	0.0	+	50	noun	list	4	3	nomatch	petit	-1	1	y	0.74626
470.69079999999997	0.2	sur	50	noun	list	4	4	nomatch	petit	-1	1	y	0.74626
470.89070000000004	0.0	+	50	noun	list	4	5	nomatch	petit	-1	1	y	0.74626
471.29049999999995	0.2	peut	50	noun	list	4	6	nomatch	petit	-1	1	y	0.74626
471.4904	0.0	+	50	noun	list	4	7	nomatch	petit	-1	1	y	0.74626
471.89020000000005	0.2	voilier	50	noun	list	4	8	nomatch	petit	-1	1	y	0.74626
472.0901	0.0	+	50	noun	list	4	9	nomatch	petit	-1	1	y	0.74626
472.48990000000003	0.2	vite	50	noun	list	4	10	nomatch	petit	-1	1	y	0.74626
472.68989999999997	0.0	+	50	noun	list	4	11	nomatch	petit	-1	1	y	0.74626
473.0897	0.0	+	50	noun	list	4	12	nomatch	petit	-1	1	y	0.74626
475.0888	0.0	PETIT	50	noun	list	4	13	nomatch	petit	-1	1	y	0.74626
475.88840000000005	0.0	+	50	noun	list	4	14	nomatch	petit	-1	1	y	0.74626
475.83500000000004	0.0	[response]	50	noun	list	4	15	nomatch	petit	-1	1	y	0.74626
477.4877	0.0	+	51	verb	phrase	4	1	match	luc	2	1	p	0.7377
478.03740000000005	0.2	ntpk	51	verb	phrase	4	2	match	luc	2	1	p	0.7377
478.2373	0.0	+	51	verb	phrase	4	3	match	luc	2	1	p	0.7377
478.6372	0.2	luc	51	verb	phrase	4	4	match	luc	2	1	p	0.7377
478.83709999999996	0.0	+	51	verb	phrase	4	5	match	luc	2	1	p	0.7377
479.2369	0.2	doit	51	verb	phrase	4	6	match	luc	2	1	p	0.7377
479.43679999999995	0.0	+	51	verb	phrase	4	7	match	luc	2	1	p	0.7377
479.8366	0.2	plus	51	verb	phrase	4	8	match	luc	2	1	p	0.7377
480.03650000000005	0.0	+	51	verb	phrase	4	9	match	luc	2	1	p	0.7377
480.43640000000005	0.2	patiner	51	verb	phrase	4	10	match	luc	2	1	p	0.7377
480.6363	0.0	+	51	verb	phrase	4	11	match	luc	2	1	p	0.7377
481.03610000000003	0.0	+	51	verb	phrase	4	12	match	luc	2	1	p	0.7377
483.03520000000003	0.0	LUC	51	verb	phrase	4	13	match	luc	2	1	p	0.7377
483.8348	0.0	+	51	verb	phrase	4	14	match	luc	2	1	p	0.7377
483.77290000000005	0.0	[response]	51	verb	phrase	4	15	match	luc	2	1	p	0.7377
485.43409999999994	0.0	+	52	noun	phrase	2	1	match	grand	4	1	p	0.47088
485.9838	0.2	hpdtb	52	noun	phrase	2	2	match	grand	4	1	p	0.47088
486.18370000000004	0.0	+	52	noun	phrase	2	3	match	grand	4	1	p	0.47088
486.58360000000005	0.2	lzd	52	noun	phrase	2	4	match	grand	4	1	p	0.47088
486.7835	0.0	+	52	noun	phrase	2	5	match	grand	4	1	p	0.47088
487.19989999999996	0.2	bqm	52	noun	phrase	2	6	match	grand	4	1	p	0.47088
487.3999	0.0	+	52	noun	phrase	2	7	match	grand	4	1	p	0.47088
487.79970000000003	0.2	grand	52	noun	phrase	2	8	match	grand	4	1	p	0.47088
487.9996	0.0	+	52	noun	phrase	2	9	match	grand	4	1	p	0.47088
488.3994	0.2	rocher	52	noun	phrase	2	10	match	grand	4	1	p	0.47088
488.59929999999997	0.0	+	52	noun	phrase	2	11	match	grand	4	1	p	0.47088
488.9991	0.0	+	52	noun	phrase	2	12	match	grand	4	1	p	0.47088
490.9982	0.0	GRAND	52	noun	phrase	2	13	match	grand	4	1	p	0.47088
491.5313	0.0	+	52	noun	phrase	2	14	match	grand	4	1	p	0.47088
491.4691	0.0	[response]	52	noun	phrase	2	15	match	grand	4	1	p	0.47088
493.3971	0.0	+	53	noun	list	3	1	nomatch	pour	-1	1	y	0.5818
493.9469	0.2	nvxlzgt	53	noun	list	3	2	nomatch	pour	-1	1	y	0.5818
494.1468	0.0	+	53	noun	list	3	3	nomatch	pour	-1	1	y	0.5818
494.5466	0.2	psvm	53	noun	list	3	4	nomatch	pour	-1	1	y	0.5818
494.74649999999997	0.0	+	53	noun	list	3	5	nomatch	pour	-1	1	y	0.5818
495.14639999999997	0.2	doit	53	noun	list	3	6	nomatch	pour	-1	1	y	0.5818
495.34630000000004	0.0	+	53	noun	list	3	7	nomatch	pour	-1	1	y	0.5818
495.74609999999996	0.2	panier	53	noun	list	3	8	nomatch	pour	-1	1	y	0.5818
495.946	0.0	+	53	noun	list	3	9	nomatch	pour	-1	1	y	0.5818
496.34580000000005	0.2	tard	53	noun	list	3	10	nomatch	pour	-1	1	y	0.5818
496.5457	0.0	+	53	noun	list	3	11	nomatch	pour	-1	1	y	0.5818
496.94550000000004	0.0	+	53	noun	list	3	12	nomatch	pour	-1	1	y	0.5818
498.94460000000004	0.0	POUR	53	noun	list	3	13	nomatch	pour	-1	1	y	0.5818
499.5943	0.0	+	53	noun	list	3	14	nomatch	pour	-1	1	y	0.5818
499.52639999999997	0.0	[response]	53	noun	list	3	15	nomatch	pour	-1	1	y	0.5818
501.34349999999995	0.0	+	54	verb	phrase	4	1	nomatch	mieux	-1	1	y	0.5672100000000001
501.89329999999995	0.2	bqwldh	54	verb	phrase	4	2	nomatch	mieux	-1	1	y	0.5672100000000001
502.0932	0.0	+	54	verb	phrase	4	3	nomatch	mieux	-1	1	y	0.5672100000000001
502.49300000000005	0.2	marc	54	verb	phrase	4	4	nomatch	mieux	-1	1	y	0.5672100000000001
502.6929	0.0	+	54	verb	phrase	4	5	nomatch	mieux	-1	1	y	0.5672100000000001
503.0928	0.2	va	54	verb	phrase	4	6	nomatch	mieux	-1	1	y	0.5672100000000001
503.29269999999997	0.0	+	54	verb	phrase	4	7	nomatch	mieux	-1	1	y	0.5672100000000001
503.6925	0.2	trop	54	verb	phrase	4	8	nomatch	mieux	-1	1	y	0.5672100000000001
503.89239999999995	0.0	+	54	verb	phrase	4	9	nomatch	mieux	-1	1	y	0.5672100000000001
504.2922	0.2	rouler	54	verb	phrase	4	10	nomatch	mieux	-1	1	y	0.5672100000000001
504.49210000000005	0.0	+	54	verb	phrase	4	11	nomatch	mieux	-1	1	y	0.5672100000000001
504.89189999999996	0.0	+	54	verb	phrase	4	12	nomatch	mieux	-1	1	y	0.5672100000000001
506.89099999999996	0.0	MIEUX	54	verb	phrase	4	13	nomatch	mieux	-1	1	y	0.5672100000000001
507.5241	0.0	+	54	verb	phrase	4	14	nomatch	mieux	-1	1	y	0.5672100000000001
507.45820000000003	0.0	[response]	54	verb	phrase	4	15	nomatch	mieux	-1	1	y	0.5672100000000001
509.2899	0.0	+	55	noun	phrase	4	1	nomatch	ainsi	-1	1	y	0.72736
509.8397	0.2	pqstl	55	noun	phrase	4	2	nomatch	ainsi	-1	1	y	0.72736
510.03959999999995	0.0	+	55	noun	phrase	4	3	nomatch	ainsi	-1	1	y	0.72736
510.4394	0.2	vers	55	noun	phrase	4	4	nomatch	ainsi	-1	1	y	0.72736
510.63930000000005	0.0	+	55	noun	phrase	4	5	nomatch	ainsi	-1	1	y	0.72736
511.03909999999996	0.2	mon	55	noun	phrase	4	6	nomatch	ainsi	-1	1	y	0.72736
511.2391	0.0	+	55	noun	phrase	4	7	nomatch	ainsi	-1	1	y	0.72736
511.63890000000004	0.2	nouveau	55	noun	phrase	4	8	nomatch	ainsi	-1	1	y	0.72736
511.8388	0.0	+	55	noun	phrase	4	9	nomatch	ainsi	-1	1	y	0.72736
512.2386	0.2	panier	55	noun	phrase	4	10	nomatch	ainsi	-1	1	y	0.72736
512.4385	0.0	+	55	noun	phrase	4	11	nomatch	ainsi	-1	1	y	0.72736
512.8383	0.0	+	55	noun	phrase	4	12	nomatch	ainsi	-1	1	y	0.72736
514.8374	0.0	AINSI	55	noun	phrase	4	13	nomatch	ainsi	-1	1	y	0.72736
515.6204	0.0	+	55	noun	phrase	4	14	nomatch	ainsi	-1	1	y	0.72736
515.5648	0.0	[response]	55	noun	phrase	4	15	nomatch	ainsi	-1	1	y	0.72736
517.2363	0.0	+	56	verb	list	1	1	match	grand	5	1	p	0.47154
517.7861	0.2	gnz	56	verb	list	1	2	match	grand	5	1	p	0.47154
517.986	0.0	+	56	verb	list	1	3	match	grand	5	1	p	0.47154
518.3858	0.2	psvm	56	verb	list	1	4	match	grand	5	1	p	0.47154
518.5857	0.0	+	56	verb	list	1	5	match	grand	5	1	p	0.47154
518.9856	0.2	cpqb	56	verb	list	1	6	match	grand	5	1	p	0.47154
519.1855	0.0	+	56	verb	list	1	7	match	grand	5	1	p	0.47154
519.5853	0.2	lhdrnpz	56	verb	list	1	8	match	grand	5	1	p	0.47154
519.7852	0.0	+	56	verb	list	1	9	match	grand	5	1	p	0.47154
520.185	0.2	grand	56	verb	list	1	10	match	grand	5	1	p	0.47154
520.3849	0.0	+	56	verb	list	1	11	match	grand	5	1	p	0.47154
520.7847	0.0	+	56	verb	list	1	12	match	grand	5	1	p	0.47154
522.7838	0.0	GRAND	56	verb	list	1	13	match	grand	5	1	p	0.47154
523.3169	0.0	+	56	verb	list	1	14	match	grand	5	1	p	0.47154
523.2554	0.0	[response]	56	verb	list	1	15	match	grand	5	1	p	0.47154
525.1994	0.0	+	57	verb	list	1	1	match	danser	5	1	p	0.44426
525.7492	0.2	bfpdtw	57	verb	list	1	2	match	danser	5	1	p	0.44426
525.9491	0.0	+	57	verb	list	1	3	match	danser	5	1	p	0.44426
526.3489	0.2	wlmq	57	verb	list	1	4	match	danser	5	1	p	0.44426
526.5488	0.0	+	57	verb	list	1	5	match	danser	5	1	p	0.44426
526.9485999999999	0.2	gbl	57	verb	list	1	6	match	danser	5	1	p	0.44426
527.1485	0.0	+	57	verb	list	1	7	match	danser	5	1	p	0.44426
527.5483	0.2	cfvlb	57	verb	list	1	8	match	danser	5	1	p	0.44426
527.7482	0.0	+	57	verb	list	1	9	match	danser	5	1	p	0.44426
528.1481	0.2	danser	57	verb	list	1	10	match	danser	5	1	p	0.44426
528.348	0.0	+	57	verb	list	1	11	match	danser	5	1	p	0.44426
528.7478	0.0	+	57	verb	list	1	12	match	danser	5	1	p	0.44426
530.7469	0.0	DANSER	57	verb	list	1	13	match	danser	5	1	p	0.44426
531.2467	0.0	+	57	verb	list	1	14	match	danser	5	1	p	0.44426
531.1911	0.0	[response]	57	verb	list	1	15	match	danser	5	1	p	0.44426
533.1458	0.0	+	58	verb	phrase	1	1	match	galoper	5	1	p	0.38094
533.6956	0.2	tnxqm	58	verb	phrase	1	2	match	galoper	5	1	p	0.38094
533.8955	0.0	+	58	verb	phrase	1	3	match	galoper	5	1	p	0.38094
534.2953	0.2	mthp	58	verb	phrase	1	4	match	galoper	5	1	p	0.38094
534.4952	0.0	+	58	verb	phrase	1	5	match	galoper	5	1	p	0.38094
534.895	0.2	hljn	58	verb	phrase	1	6	match	galoper	5	1	p	0.38094
535.0949	0.0	+	58	verb	phrase	1	7	match	galoper	5	1	p	0.38094
535.4947	0.2	hcpnv	58	verb	phrase	1	8	match	galoper	5	1	p	0.38094
535.6946	0.0	+	58	verb	phrase	1	9	match	galoper	5	1	p	0.38094
536.0945	0.2	galoper	58	verb	phrase	1	10	match	galoper	5	1	p	0.38094
536.2944	0.0	+	58	verb	phrase	1	11	match	galoper	5	1	p	0.38094
536.6942	0.0	+	58	verb	phrase	1	12	match	galoper	5	1	p	0.38094
538.6933	0.0	GALOPER	58	verb	phrase	1	13	match	galoper	5	1	p	0.38094
539.1264	0.0	+	58	verb	phrase	1	14	match	galoper	5	1	p	0.38094
539.0742	0.0	[response]	58	verb	phrase	1	15	match	galoper	5	1	p	0.38094
541.0922	0.0	+	59	noun	phrase	1	1	nomatch	beaucoup	-1	1	y	0.54399
541.642	0.2	kxl	59	noun	phrase	1	2	nomatch	beaucoup	-1	1	y	0.54399
541.8419	0.0	+	59	noun	phrase	1	3	nomatch	beaucoup	-1	1	y	0.54399
542.2417	0.2	vzck	59	noun	phrase	1	4	nomatch	beaucoup	-1	1	y	0.54399
542.4416	0.0	+	59	noun	phrase	1	5	nomatch	beaucoup	-1	1	y	0.54399
542.8414	0.2	bwgs	59	noun	phrase	1	6	nomatch	beaucoup	-1	1	y	0.54399
543.0413	0.0	+	59	noun	phrase	1	7	nomatch	beaucoup	-1	1	y	0.54399
543.4411	0.2	jzstg	59	noun	phrase	1	8	nomatch	beaucoup	-1	1	y	0.54399
543.6411	0.0	+	59	noun	phrase	1	9	nomatch	beaucoup	-1	1	y	0.54399
544.0409	0.2	rocher	59	noun	phrase	1	10	nomatch	beaucoup	-1	1	y	0.54399
544.2408	0.0	+	59	noun	phrase	1	11	nomatch	beaucoup	-1	1	y	0.54399
544.6406	0.0	+	59	noun	phrase	1	12	nomatch	beaucoup	-1	1	y	0.54399
546.6397	0.0	BEAUCOUP	59	noun	phrase	1	13	nomatch	beaucoup	-1	1	y	0.54399
547.2394	0.0	+	59	noun	phrase	1	14	nomatch	beaucoup	-1	1	y	0.54399
547.1837	0.0	[response]	59	noun	phrase	1	15	nomatch	beaucoup	-1	1	y	0.54399
549.0386	0.0	+	60	verb	phrase	2	1	match	loin	5	1	p	0.69646
549.5883	0.2	bfs	60	verb	phrase	2	2	match	loin	5	1	p	0.69646
549.7883	0.0	+	60	verb	phrase	2	3	match	loin	5	1	p	0.69646
550.1881	0.2	rdft	60	verb	phrase	2	4	match	loin	5	1	p	0.69646
550.388	0.0	+	60	verb	phrase	2	5	match	loin	5	1	p	0.69646
550.7878	0.2	hljn	60	verb	phrase	2	6	match	loin	5	1	p	0.69646
550.9877	0.0	+	60	verb	phrase	2	7	match	loin	5	1	p	0.69646
551.3875	0.2	galoper	60	verb	phrase	2	8	match	loin	5	1	p	0.69646
551.5875	0.0	+	60	verb	phrase	2	9	match	loin	5	1	p	0.69646
551.9873	0.2	loin	60	verb	phrase	2	10	match	loin	5	1	p	0.69646
552.1872	0.0	+	60	verb	phrase	2	11	match	loin	5	1	p	0.69646
552.587	0.0	+	60	verb	phrase	2	12	match	loin	5	1	p	0.69646
554.5861	0.0	LOIN	60	verb	phrase	2	13	match	loin	5	1	p	0.69646
555.3357	0.0	+	60	verb	phrase	2	14	match	loin	5	1	p	0.69646
555.2825	0.0	[response]	60	verb	phrase	2	15	match	loin	5	1	p	0.69646
556.985	0.0	+	61	verb	list	2	1	nomatch	chasser	-1	1	y	0.58425
557.5348	0.2	ldpcrzm	61	verb	list	2	2	nomatch	chasser	-1	1	y	0.58425
557.7347	0.0	+	61	verb	list	2	3	nomatch	chasser	-1	1	y	0.58425
558.1345	0.2	cdsf	61	verb	list	2	4	nomatch	chasser	-1	1	y	0.58425
558.3344	0.0	+	61	verb	list	2	5	nomatch	chasser	-1	1	y	0.58425
558.7342	0.2	bqm	61	verb	list	2	6	nomatch	chasser	-1	1	y	0.58425
558.9341	0.0	+	61	verb	list	2	7	nomatch	chasser	-1	1	y	0.58425
559.3339	0.2	patiner	61	verb	list	2	8	nomatch	chasser	-1	1	y	0.58425
559.5338	0.0	+	61	verb	list	2	9	nomatch	chasser	-1	1	y	0.58425
559.9337	0.2	blanc	61	verb	list	2	10	nomatch	chasser	-1	1	y	0.58425
560.1336	0.0	+	61	verb	list	2	11	nomatch	chasser	-1	1	y	0.58425
560.5501	0.0	+	61	verb	list	2	12	nomatch	chasser	-1	1	y	0.58425
562.5491	0.0	CHASSER	61	verb	list	2	13	nomatch	chasser	-1	1	y	0.58425
563.1988	0.0	+	61	verb	list	2	14	nomatch	chasser	-1	1	y	0.58425
563.1334	0.0	[response]	61	verb	list	2	15	nomatch	chasser	-1	1	y	0.58425
564.9481	0.0	+	62	noun	list	1	1	match	moins	5	1	p	0.42579
565.4978	0.2	ctx	62	noun	list	1	2	match	moins	5	1	p	0.42579
565.6976999999999	0.0	+	62	noun	list	1	3	match	moins	5	1	p	0.42579
566.0975	0.2	mthp	62	noun	list	1	4	match	moins	5	1	p	0.42579
566.2975	0.0	+	62	noun	list	1	5	match	moins	5	1	p	0.42579
566.6973	0.2	bwgs	62	noun	list	1	6	match	moins	5	1	p	0.42579
566.8972	0.0	+	62	noun	list	1	7	match	moins	5	1	p	0.42579
567.297	0.2	mplvtsb	62	noun	list	1	8	match	moins	5	1	p	0.42579
567.4969	0.0	+	62	noun	list	1	9	match	moins	5	1	p	0.42579
567.8967	0.2	moins	62	noun	list	1	10	match	moins	5	1	p	0.42579
568.0966	0.0	+	62	noun	list	1	11	match	moins	5	1	p	0.42579
568.4964	0.0	+	62	noun	list	1	12	match	moins	5	1	p	0.42579
570.4955	0.0	MOINS	62	noun	list	1	13	match	moins	5	1	p	0.42579
570.9787	0.0	+	62	noun	list	1	14	match	moins	5	1	p	0.42579
570.9213	0.0	[response]	62	noun	list	1	15	match	moins	5	1	p	0.42579
572.8945	0.0	+	63	verb	list	3	1	match	chasser	5	1	p	0.67774
573.4442	0.2	phkngx	63	verb	list	3	2	match	chasser	5	1	p	0.67774
573.6441	0.0	+	63	verb	list	3	3	match	chasser	5	1	p	0.67774
574.0439	0.2	ptkf	63	verb	list	3	4	match	chasser	5	1	p	0.67774
574.2438	0.0	+	63	verb	list	3	5	match	chasser	5	1	p	0.67774
574.6437	0.2	peut	63	verb	list	3	6	match	chasser	5	1	p	0.67774
574.8436	0.0	+	63	verb	list	3	7	match	chasser	5	1	p	0.67774
575.2434	0.2	grand	63	verb	list	3	8	match	chasser	5	1	p	0.67774
575.4433	0.0	+	63	verb	list	3	9	match	chasser	5	1	p	0.67774
575.8431	0.2	chasser	63	verb	list	3	10	match	chasser	5	1	p	0.67774
576.043	0.0	+	63	verb	list	3	11	match	chasser	5	1	p	0.67774
576.4429	0.0	+	63	verb	list	3	12	match	chasser	5	1	p	0.67774
578.4419	0.0	CHASSER	63	verb	list	3	13	match	chasser	5	1	p	0.67774
579.1749	0.0	+	63	verb	list	3	14	match	chasser	5	1	p	0.67774
579.1197	0.0	[response]	63	verb	list	3	15	match	chasser	5	1	p	0.67774
580.8409	0.0	+	64	verb	phrase	2	1	match	plus	4	1	p	0.52943
581.3906	0.2	ldgf	64	verb	phrase	2	2	match	plus	4	1	p	0.52943
581.5905	0.0	+	64	verb	phrase	2	3	match	plus	4	1	p	0.52943
581.9903	0.2	mthp	64	verb	phrase	2	4	match	plus	4	1	p	0.52943
582.1902	0.0	+	64	verb	phrase	2	5	match	plus	4	1	p	0.52943
582.5901	0.2	hljn	64	verb	phrase	2	6	match	plus	4	1	p	0.52943
582.79	0.0	+	64	verb	phrase	2	7	match	plus	4	1	p	0.52943
583.1898	0.2	plus	64	verb	phrase	2	8	match	plus	4	1	p	0.52943
583.3897	0.0	+	64	verb	phrase	2	9	match	plus	4	1	p	0.52943
583.7895	0.2	danser	64	verb	phrase	2	10	match	plus	4	1	p	0.52943
583.9894	0.0	+	64	verb	phrase	2	11	match	plus	4	1	p	0.52943
584.3892	0.0	+	64	verb	phrase	2	12	match	plus	4	1	p	0.52943
586.3884	0.0	PLUS	64	verb	phrase	2	13	match	plus	4	1	p	0.52943
586.9714	0.0	+	64	verb	phrase	2	14	match	plus	4	1	p	0.52943
586.9177999999999	0.0	[response]	64	verb	phrase	2	15	match	plus	4	1	p	0.52943
596.8003	0.0	+	65	noun	list	2	1	nomatch	pour	-1	1	y	1.5406
597.3501	0.2	rdsm	65	noun	list	2	2	nomatch	pour	-1	1	y	1.5406
597.55	0.0	+	65	noun	list	2	3	nomatch	pour	-1	1	y	1.5406
597.9498	0.2	vzck	65	noun	list	2	4	nomatch	pour	-1	1	y	1.5406
598.1497	0.0	+	65	noun	list	2	5	nomatch	pour	-1	1	y	1.5406
598.5495	0.2	vh	65	noun	list	2	6	nomatch	pour	-1	1	y	1.5406
598.7494	0.0	+	65	noun	list	2	7	nomatch	pour	-1	1	y	1.5406
599.1492	0.2	panier	65	noun	list	2	8	nomatch	pour	-1	1	y	1.5406
599.3491	0.0	+	65	noun	list	2	9	nomatch	pour	-1	1	y	1.5406
599.749	0.2	tard	65	noun	list	2	10	nomatch	pour	-1	1	y	1.5406
599.9489	0.0	+	65	noun	list	2	11	nomatch	pour	-1	1	y	1.5406
600.3487	0.0	+	65	noun	list	2	12	nomatch	pour	-1	1	y	1.5406
602.3478	0.0	POUR	65	noun	list	2	13	nomatch	pour	-1	1	y	1.5406
603.9471	0.0	+	65	noun	list	2	14	nomatch	pour	-1	1	y	1.5406
603.8884	0.0	[response]	65	noun	list	2	15	nomatch	pour	-1	1	y	1.5406
604.7467	0.0	+	66	verb	phrase	1	1	nomatch	sur	-1	1	y	0.53785
605.2964	0.2	nvlrq	66	verb	phrase	1	2	nomatch	sur	-1	1	y	0.53785
605.4964	0.0	+	66	verb	phrase	1	3	nomatch	sur	-1	1	y	0.53785
605.8962	0.2	rdft	66	verb	phrase	1	4	nomatch	sur	-1	1	y	0.53785
606.0961	0.0	+	66	verb	phrase	1	5	nomatch	sur	-1	1	y	0.53785
606.4959	0.2	cpqb	66	verb	phrase	1	6	nomatch	sur	-1	1	y	0.53785
606.6958	0.0	+	66	verb	phrase	1	7	nomatch	sur	-1	1	y	0.53785
607.0956	0.2	thfl	66	verb	phrase	1	8	nomatch	sur	-1	1	y	0.53785
607.2955	0.0	+	66	verb	phrase	1	9	nomatch	sur	-1	1	y	0.53785
607.6954	0.2	rouler	66	verb	phrase	1	10	nomatch	sur	-1	1	y	0.53785
607.8953	0.0	+	66	verb	phrase	1	11	nomatch	sur	-1	1	y	0.53785
608.2951	0.0	+	66	verb	phrase	1	12	nomatch	sur	-1	1	y	0.53785
610.2942	0.0	SUR	66	verb	phrase	1	13	nomatch	sur	-1	1	y	0.53785
610.8939	0.0	+	66	verb	phrase	1	14	nomatch	sur	-1	1	y	0.53785
610.8320000000001	0.0	[response]	66	verb	phrase	1	15	nomatch	sur	-1	1	y	0.53785
612.6931	0.0	+	67	verb	list	1	1	match	nouveau	5	1	p	0.55593
613.2428	0.2	tgx	67	verb	list	1	2	match	nouveau	5	1	p	0.55593
613.4428	0.0	+	67	verb	list	1	3	match	nouveau	5	1	p	0.55593
613.8426	0.2	kgzb	67	verb	list	1	4	match	nouveau	5	1	p	0.55593
614.0425	0.0	+	67	verb	list	1	5	match	nouveau	5	1	p	0.55593
614.4423	0.2	vh	67	verb	list	1	6	match	nouveau	5	1	p	0.55593
614.6422	0.0	+	67	verb	list	1	7	match	nouveau	5	1	p	0.55593
615.042	0.2	rhntpd	67	verb	list	1	8	match	nouveau	5	1	p	0.55593
615.2419	0.0	+	67	verb	list	1	9	match	nouveau	5	1	p	0.55593
615.6418	0.2	nouveau	67	verb	list	1	10	match	nouveau	5	1	p	0.55593
615.8417	0.0	+	67	verb	list	1	11	match	nouveau	5	1	p	0.55593
616.2415	0.0	+	67	verb	list	1	12	match	nouveau	5	1	p	0.55593
618.2406	0.0	NOUVEAU	67	verb	list	1	13	match	nouveau	5	1	p	0.55593
618.857	0.0	+	67	verb	list	1	14	match	nouveau	5	1	p	0.55593
618.7965	0.0	[response]	67	verb	list	1	15	match	nouveau	5	1	p	0.55593
620.6395	0.0	+	68	verb	list	4	1	match	danser	4	1	p	0.40719
621.1892	0.2	bhglsj	68	verb	list	4	2	match	danser	4	1	p	0.40719
621.3891	0.0	+	68	verb	list	4	3	match	danser	4	1	p	0.40719
621.789	0.2	luc	68	verb	list	4	4	match	danser	4	1	p	0.40719
621.9889	0.0	+	68	verb	list	4	5	match	danser	4	1	p	0.40719
622.3887	0.2	leur	68	verb	list	4	6	match	danser	4	1	p	0.40719
622.5886	0.0	+	68	verb	list	4	7	match	danser	4	1	p	0.40719
622.9884	0.2	danser	68	verb	list	4	8	match	danser	4	1	p	0.40719
623.1883	0.0	+	68	verb	list	4	9	match	danser	4	1	p	0.40719
623.5882	0.2	rouge	68	verb	list	4	10	match	danser	4	1	p	0.40719
623.7881	0.0	+	68	verb	list	4	11	match	danser	4	1	p	0.40719
624.1879	0.0	+	68	verb	list	4	12	match	danser	4	1	p	0.40719
626.187	0.0	DANSER	68	verb	list	4	13	match	danser	4	1	p	0.40719
626.6534	0.0	+	68	verb	list	4	14	match	danser	4	1	p	0.40719
626.5942	0.0	[response]	68	verb	list	4	15	match	danser	4	1	p	0.40719
628.5859	0.0	+	69	verb	phrase	3	1	match	rouler	4	1	p	0.49483
629.1356	0.2	mbvjpq	69	verb	phrase	3	2	match	rouler	4	1	p	0.49483
629.3356	0.0	+	69	verb	phrase	3	3	match	rouler	4	1	p	0.49483
629.7354	0.2	wlmq	69	verb	phrase	3	4	match	rouler	4	1	p	0.49483
629.9353	0.0	+	69	verb	phrase	3	5	match	rouler	4	1	p	0.49483
630.3351	0.2	va	69	verb	phrase	3	6	match	rouler	4	1	p	0.49483
630.535	0.0	+	69	verb	phrase	3	7	match	rouler	4	1	p	0.49483
630.9348	0.2	rouler	69	verb	phrase	3	8	match	rouler	4	1	p	0.49483
631.1347	0.0	+	69	verb	phrase	3	9	match	rouler	4	1	p	0.49483
631.5345	0.2	tard	69	verb	phrase	3	10	match	rouler	4	1	p	0.49483
631.7345	0.0	+	69	verb	phrase	3	11	match	rouler	4	1	p	0.49483
632.1343	0.0	+	69	verb	phrase	3	12	match	rouler	4	1	p	0.49483
634.15	0.0	ROULER	69	verb	phrase	3	13	match	rouler	4	1	p	0.49483
634.6998	0.0	+	69	verb	phrase	3	14	match	rouler	4	1	p	0.49483
634.6449	0.0	[response]	69	verb	phrase	3	15	match	rouler	4	1	p	0.49483
636.549	0.0	+	70	verb	list	3	1	match	parader	5	1	p	0.60754
637.0987	0.2	ncx	70	verb	list	3	2	match	parader	5	1	p	0.60754
637.2986	0.0	+	70	verb	list	3	3	match	parader	5	1	p	0.60754
637.6984	0.2	ntmd	70	verb	list	3	4	match	parader	5	1	p	0.60754
637.8983	0.0	+	70	verb	list	3	5	match	parader	5	1	p	0.60754
638.2982	0.2	peut	70	verb	list	3	6	match	parader	5	1	p	0.60754
638.4981	0.0	+	70	verb	list	3	7	match	parader	5	1	p	0.60754
638.8979	0.2	nouveau	70	verb	list	3	8	match	parader	5	1	p	0.60754
639.0978	0.0	+	70	verb	list	3	9	match	parader	5	1	p	0.60754
639.4976	0.2	parader	70	verb	list	3	10	match	parader	5	1	p	0.60754
639.6975	0.0	+	70	verb	list	3	11	match	parader	5	1	p	0.60754
640.0973	0.0	+	70	verb	list	3	12	match	parader	5	1	p	0.60754
642.0964	0.0	PARADER	70	verb	list	3	13	match	parader	5	1	p	0.60754
642.7628	0.0	+	70	verb	list	3	14	match	parader	5	1	p	0.60754
642.704	0.0	[response]	70	verb	list	3	15	match	parader	5	1	p	0.60754
644.4953	0.0	+	71	verb	list	3	1	match	patiner	5	1	p	0.46479
645.0451	0.2	bwmxcrj	71	verb	list	3	2	match	patiner	5	1	p	0.46479
645.245	0.0	+	71	verb	list	3	3	match	patiner	5	1	p	0.46479
645.6448	0.2	psvm	71	verb	list	3	4	match	patiner	5	1	p	0.46479
645.8447	0.0	+	71	verb	list	3	5	match	patiner	5	1	p	0.46479
646.2446	0.2	va	71	verb	list	3	6	match	patiner	5	1	p	0.46479
646.4445	0.0	+	71	verb	list	3	7	match	patiner	5	1	p	0.46479
646.8443	0.2	vieux	71	verb	list	3	8	match	patiner	5	1	p	0.46479
647.0442	0.0	+	71	verb	list	3	9	match	patiner	5	1	p	0.46479
647.444	0.2	patiner	71	verb	list	3	10	match	patiner	5	1	p	0.46479
647.6439	0.0	+	71	verb	list	3	11	match	patiner	5	1	p	0.46479
648.0437	0.0	+	71	verb	list	3	12	match	patiner	5	1	p	0.46479
650.0427999999999	0.0	PATINER	71	verb	list	3	13	match	patiner	5	1	p	0.46479
650.5593	0.0	+	71	verb	list	3	14	match	patiner	5	1	p	0.46479
650.5076	0.0	[response]	71	verb	list	3	15	match	patiner	5	1	p	0.46479
652.4418	0.0	+	72	verb	list	2	1	match	danser	5	1	p	0.5529
652.9915	0.2	sjvb	72	verb	list	2	2	match	danser	5	1	p	0.5529
653.1914	0.0	+	72	verb	list	2	3	match	danser	5	1	p	0.5529
653.5912	0.2	lzd	72	verb	list	2	4	match	danser	5	1	p	0.5529
653.7911	0.0	+	72	verb	list	2	5	match	danser	5	1	p	0.5529
654.191	0.2	hljn	72	verb	list	2	6	match	danser	5	1	p	0.5529
654.3909	0.0	+	72	verb	list	2	7	match	danser	5	1	p	0.5529
654.7907	0.2	nouveau	72	verb	list	2	8	match	danser	5	1	p	0.5529
654.9906	0.0	+	72	verb	list	2	9	match	danser	5	1	p	0.5529
655.3904	0.2	danser	72	verb	list	2	10	match	danser	5	1	p	0.5529
655.5903	0.0	+	72	verb	list	2	11	match	danser	5	1	p	0.5529
655.9902	0.0	+	72	verb	list	2	12	match	danser	5	1	p	0.5529
657.9892	0.0	DANSER	72	verb	list	2	13	match	danser	5	1	p	0.5529
658.6056	0.0	+	72	verb	list	2	14	match	danser	5	1	p	0.5529
658.5421	0.0	[response]	72	verb	list	2	15	match	danser	5	1	p	0.5529
660.3881	0.0	+	73	verb	list	4	1	nomatch	son	-1	1	y	0.63122
660.9379	0.2	nbls	73	verb	list	4	2	nomatch	son	-1	1	y	0.63122
661.1378	0.0	+	73	verb	list	4	3	nomatch	son	-1	1	y	0.63122
661.5376	0.2	vers	73	verb	list	4	4	nomatch	son	-1	1	y	0.63122
661.7375	0.0	+	73	verb	list	4	5	nomatch	son	-1	1	y	0.63122
662.1373	0.2	va	73	verb	list	4	6	nomatch	son	-1	1	y	0.63122
662.3373	0.0	+	73	verb	list	4	7	nomatch	son	-1	1	y	0.63122
662.7370999999999	0.2	beau	73	verb	list	4	8	nomatch	son	-1	1	y	0.63122
662.937	0.0	+	73	verb	list	4	9	nomatch	son	-1	1	y	0.63122
663.3368	0.2	patiner	73	verb	list	4	10	nomatch	son	-1	1	y	0.63122
663.5367	0.0	+	73	verb	list	4	11	nomatch	son	-1	1	y	0.63122
663.9365	0.0	+	73	verb	list	4	12	nomatch	son	-1	1	y	0.63122
665.9356	0.0	SON	73	verb	list	4	13	nomatch	son	-1	1	y	0.63122
666.6187	0.0	+	73	verb	list	4	14	nomatch	son	-1	1	y	0.63122
666.5669	0.0	[response]	73	verb	list	4	15	nomatch	son	-1	1	y	0.63122
676.3475999999999	0.0	+	74	verb	list	4	1	nomatch	jongler	-1	1	y	0.66553
676.8973	0.2	pxvg	74	verb	list	4	2	nomatch	jongler	-1	1	y	0.66553
677.0972	0.0	+	74	verb	list	4	3	nomatch	jongler	-1	1	y	0.66553
677.4971	0.2	adam	74	verb	list	4	4	nomatch	jongler	-1	1	y	0.66553
677.697	0.0	+	74	verb	list	4	5	nomatch	jongler	-1	1	y	0.66553
678.0968	0.2	leur	74	verb	list	4	6	nomatch	jongler	-1	1	y	0.66553
678.2968	0.0	+	74	verb	list	4	7	nomatch	jongler	-1	1	y	0.66553
678.6965	0.2	parader	74	verb	list	4	8	nomatch	jongler	-1	1	y	0.66553
678.8964	0.0	+	74	verb	list	4	9	nomatch	jongler	-1	1	y	0.66553
679.2962	0.2	bleu	74	verb	list	4	10	nomatch	jongler	-1	1	y	0.66553
679.4962	0.0	+	74	verb	list	4	11	nomatch	jongler	-1	1	y	0.66553
679.896	0.0	+	74	verb	list	4	12	nomatch	jongler	-1	1	y	0.66553
681.8951	0.0	JONGLER	74	verb	list	4	13	nomatch	jongler	-1	1	y	0.66553
682.6281	0.0	+	74	verb	list	4	14	nomatch	jongler	-1	1	y	0.66553
682.5606	0.0	[response]	74	verb	list	4	15	nomatch	jongler	-1	1	y	0.66553
684.294	0.0	+	75	noun	list	3	1	match	ainsi	5	1	p	0.43384000000000006
684.8437	0.2	xhm	75	noun	list	3	2	match	ainsi	5	1	p	0.43384000000000006
685.0436	0.0	+	75	noun	list	3	3	match	ainsi	5	1	p	0.43384000000000006
685.4435	0.2	vzck	75	noun	list	3	4	match	ainsi	5	1	p	0.43384000000000006
685.6434	0.0	+	75	noun	list	3	5	match	ainsi	5	1	p	0.43384000000000006
686.0432	0.2	peut	75	noun	list	3	6	match	ainsi	5	1	p	0.43384000000000006
686.2431	0.0	+	75	noun	list	3	7	match	ainsi	5	1	p	0.43384000000000006
686.6428999999999	0.2	tablier	75	noun	list	3	8	match	ainsi	5	1	p	0.43384000000000006
686.8428	0.0	+	75	noun	list	3	9	match	ainsi	5	1	p	0.43384000000000006
687.2426	0.2	ainsi	75	noun	list	3	10	match	ainsi	5	1	p	0.43384000000000006
687.4426	0.0	+	75	noun	list	3	11	match	ainsi	5	1	p	0.43384000000000006
687.8424	0.0	+	75	noun	list	3	12	match	ainsi	5	1	p	0.43384000000000006
689.8415	0.0	AINSI	75	noun	list	3	13	match	ainsi	5	1	p	0.43384000000000006
690.3412	0.0	+	75	noun	list	3	14	match	ainsi	5	1	p	0.43384000000000006
690.2753	0.0	[response]	75	noun	list	3	15	match	ainsi	5	1	p	0.43384000000000006
700.2368	0.0	+	76	verb	phrase	4	1	match	jean	2	1	p	0.41907
700.7865	0.2	mhdpt	76	verb	phrase	4	2	match	jean	2	1	p	0.41907
700.9864	0.0	+	76	verb	phrase	4	3	match	jean	2	1	p	0.41907
701.3862	0.2	jean	76	verb	phrase	4	4	match	jean	2	1	p	0.41907
701.5861	0.0	+	76	verb	phrase	4	5	match	jean	2	1	p	0.41907
701.986	0.2	doit	76	verb	phrase	4	6	match	jean	2	1	p	0.41907
702.1859	0.0	+	76	verb	phrase	4	7	match	jean	2	1	p	0.41907
702.5857	0.2	patiner	76	verb	phrase	4	8	match	jean	2	1	p	0.41907
702.7856	0.0	+	76	verb	phrase	4	9	match	jean	2	1	p	0.41907
703.1854	0.2	loin	76	verb	phrase	4	10	match	jean	2	1	p	0.41907
703.3853	0.0	+	76	verb	phrase	4	11	match	jean	2	1	p	0.41907
703.7852	0.0	+	76	verb	phrase	4	12	match	jean	2	1	p	0.41907
705.7843	0.0	JEAN	76	verb	phrase	4	13	match	jean	2	1	p	0.41907
706.2674	0.0	+	76	verb	phrase	4	14	match	jean	2	1	p	0.41907
706.2033	0.0	[response]	76	verb	phrase	4	15	match	jean	2	1	p	0.41907
708.1998	0.0	+	77	verb	phrase	1	1	nomatch	mon	-1	1	y	0.46244
708.7496	0.2	dlzx	77	verb	phrase	1	2	nomatch	mon	-1	1	y	0.46244
708.9495	0.0	+	77	verb	phrase	1	3	nomatch	mon	-1	1	y	0.46244
709.3493	0.2	gbpr	77	verb	phrase	1	4	nomatch	mon	-1	1	y	0.46244
709.5492	0.0	+	77	verb	phrase	1	5	nomatch	mon	-1	1	y	0.46244
709.949	0.2	hljn	77	verb	phrase	1	6	nomatch	mon	-1	1	y	0.46244
710.1489	0.0	+	77	verb	phrase	1	7	nomatch	mon	-1	1	y	0.46244
710.5487	0.2	pkwnqd	77	verb	phrase	1	8	nomatch	mon	-1	1	y	0.46244
710.7487	0.0	+	77	verb	phrase	1	9	nomatch	mon	-1	1	y	0.46244
711.1485	0.2	vite	77	verb	phrase	1	10	nomatch	mon	-1	1	y	0.46244
711.3484	0.0	+	77	verb	phrase	1	11	nomatch	mon	-1	1	y	0.46244
711.7482	0.0	+	77	verb	phrase	1	12	nomatch	mon	-1	1	y	0.46244
713.7473	0.0	MON	77	verb	phrase	1	13	nomatch	mon	-1	1	y	0.46244
714.2637	0.0	+	77	verb	phrase	1	14	nomatch	mon	-1	1	y	0.46244
714.2097	0.0	[response]	77	verb	phrase	1	15	nomatch	mon	-1	1	y	0.46244
732.139	0.0	+	78	verb	phrase	3	1	match	rouler	5	1	p	0.52871
732.6887	0.2	mpw	78	verb	phrase	3	2	match	rouler	5	1	p	0.52871
732.8886	0.0	+	78	verb	phrase	3	3	match	rouler	5	1	p	0.52871
733.2884	0.2	rdft	78	verb	phrase	3	4	match	rouler	5	1	p	0.52871
733.4884	0.0	+	78	verb	phrase	3	5	match	rouler	5	1	p	0.52871
733.8882	0.2	va	78	verb	phrase	3	6	match	rouler	5	1	p	0.52871
734.0880999999999	0.0	+	78	verb	phrase	3	7	match	rouler	5	1	p	0.52871
734.4879	0.2	plus	78	verb	phrase	3	8	match	rouler	5	1	p	0.52871
734.6878	0.0	+	78	verb	phrase	3	9	match	rouler	5	1	p	0.52871
735.0876	0.2	rouler	78	verb	phrase	3	10	match	rouler	5	1	p	0.52871
735.2875	0.0	+	78	verb	phrase	3	11	match	rouler	5	1	p	0.52871
735.6874	0.0	+	78	verb	phrase	3	12	match	rouler	5	1	p	0.52871
737.6865	0.0	ROULER	78	verb	phrase	3	13	match	rouler	5	1	p	0.52871
738.2695	0.0	+	78	verb	phrase	3	14	match	rouler	5	1	p	0.52871
738.2152	0.0	[response]	78	verb	phrase	3	15	match	rouler	5	1	p	0.52871
748.0984	0.0	+	79	noun	phrase	3	1	match	leur	3	1	p	0.45646
748.6482	0.2	nwk	79	noun	phrase	3	2	match	leur	3	1	p	0.45646
748.8481	0.0	+	79	noun	phrase	3	3	match	leur	3	1	p	0.45646
749.2479	0.2	psvm	79	noun	phrase	3	4	match	leur	3	1	p	0.45646
749.4478	0.0	+	79	noun	phrase	3	5	match	leur	3	1	p	0.45646
749.8475999999999	0.2	leur	79	noun	phrase	3	6	match	leur	3	1	p	0.45646
750.0475	0.0	+	79	noun	phrase	3	7	match	leur	3	1	p	0.45646
750.4473	0.2	grand	79	noun	phrase	3	8	match	leur	3	1	p	0.45646
750.6472	0.0	+	79	noun	phrase	3	9	match	leur	3	1	p	0.45646
751.0471	0.2	sablier	79	noun	phrase	3	10	match	leur	3	1	p	0.45646
751.247	0.0	+	79	noun	phrase	3	11	match	leur	3	1	p	0.45646
751.6468	0.0	+	79	noun	phrase	3	12	match	leur	3	1	p	0.45646
753.6459	0.0	LEUR	79	noun	phrase	3	13	match	leur	3	1	p	0.45646
754.1623	0.0	+	79	noun	phrase	3	14	match	leur	3	1	p	0.45646
754.1023	0.0	[response]	79	noun	phrase	3	15	match	leur	3	1	p	0.45646
756.0448	0.0	+	80	verb	phrase	2	1	nomatch	nouveau	-1	1	y	0.7146100000000001
756.5946	0.2	pghdb	80	verb	phrase	2	2	nomatch	nouveau	-1	1	y	0.7146100000000001
756.7945	0.0	+	80	verb	phrase	2	3	nomatch	nouveau	-1	1	y	0.7146100000000001
757.1943	0.2	gbpr	80	verb	phrase	2	4	nomatch	nouveau	-1	1	y	0.7146100000000001
757.3942	0.0	+	80	verb	phrase	2	5	nomatch	nouveau	-1	1	y	0.7146100000000001
757.794	0.2	vh	80	verb	phrase	2	6	nomatch	nouveau	-1	1	y	0.7146100000000001
757.9943	0.0	+	80	verb	phrase	2	7	nomatch	nouveau	-1	1	y	0.7146100000000001
758.3937	0.2	nager	80	verb	phrase	2	8	nomatch	nouveau	-1	1	y	0.7146100000000001
758.5937	0.0	+	80	verb	phrase	2	9	nomatch	nouveau	-1	1	y	0.7146100000000001
758.9935	0.2	vite	80	verb	phrase	2	10	nomatch	nouveau	-1	1	y	0.7146100000000001
759.1934	0.0	+	80	verb	phrase	2	11	nomatch	nouveau	-1	1	y	0.7146100000000001
759.5932	0.0	+	80	verb	phrase	2	12	nomatch	nouveau	-1	1	y	0.7146100000000001
761.5923	0.0	NOUVEAU	80	verb	phrase	2	13	nomatch	nouveau	-1	1	y	0.7146100000000001
762.3753	0.0	+	80	verb	phrase	2	14	nomatch	nouveau	-1	1	y	0.7146100000000001
763.9912	0.0	+	80	verb	phrase	2	15	nomatch	nouveau	-1	1	y	0.7146100000000001
765.0074	0.0	+	80	verb	phrase	2	16	nomatch	nouveau	-1	1	y	0.7146100000000001
765.1074	0.0	+	80	verb	phrase	2	17	nomatch	nouveau	-1	1	y	0.7146100000000001
766.5067	0.0	+	80	verb	phrase	2	18	nomatch	nouveau	-1	1	y	0.7146100000000001
766.6067	0.0	+	80	verb	phrase	2	19	nomatch	nouveau	-1	1	y	0.7146100000000001
768.0061	0.0	+	80	verb	phrase	2	20	nomatch	nouveau	-1	1	y	0.7146100000000001
768.106	0.0	+	80	verb	phrase	2	21	nomatch	nouveau	-1	1	y	0.7146100000000001
769.5054	0.0	+	80	verb	phrase	2	22	nomatch	nouveau	-1	1	y	0.7146100000000001
769.6052999999999	0.0	+	80	verb	phrase	2	23	nomatch	nouveau	-1	1	y	0.7146100000000001
771.0047	0.0	+	80	verb	phrase	2	24	nomatch	nouveau	-1	1	y	0.7146100000000001
771.1047	0.0	+	80	verb	phrase	2	25	nomatch	nouveau	-1	1	y	0.7146100000000001
772.504	0.0	+	80	verb	phrase	2	26	nomatch	nouveau	-1	1	y	0.7146100000000001
772.604	0.0	+	80	verb	phrase	2	27	nomatch	nouveau	-1	1	y	0.7146100000000001
774.0033	0.0	+	80	verb	phrase	2	28	nomatch	nouveau	-1	1	y	0.7146100000000001
774.1033	0.0	+	80	verb	phrase	2	29	nomatch	nouveau	-1	1	y	0.7146100000000001
775.5027	0.0	+	80	verb	phrase	2	30	nomatch	nouveau	-1	1	y	0.7146100000000001
775.6026	0.0	+	80	verb	phrase	2	31	nomatch	nouveau	-1	1	y	0.7146100000000001
777.002	0.0	+	80	verb	phrase	2	32	nomatch	nouveau	-1	1	y	0.7146100000000001
777.1019	0.0	+	80	verb	phrase	2	33	nomatch	nouveau	-1	1	y	0.7146100000000001
778.5013	0.0	+	80	verb	phrase	2	34	nomatch	nouveau	-1	1	y	0.7146100000000001
778.6013	0.0	+	80	verb	phrase	2	35	nomatch	nouveau	-1	1	y	0.7146100000000001
788.3635	0.0	+	80	verb	phrase	2	36	nomatch	nouveau	-1	1	y	0.7146100000000001
762.3069	0.0	[response]	80	verb	phrase	2	37	nomatch	nouveau	-1	1	y	0.7146100000000001
