onset	duration	stim	trial_number	trial_type	trial_structure	trial_length	sequential_position	probe_type	probe	probe_position	response_correct	response_key	response_time
0.05469999999999686	0.0	+	1	noun	list	2	1	nomatch	mieux	-1	1	y	0.74616
0.5379999999999967	0.2	hntmx	1	noun	list	2	2	nomatch	mieux	-1	1	y	0.74616
0.7379999999999995	0.0	+	1	noun	list	2	3	nomatch	mieux	-1	1	y	0.74616
1.137900000000002	0.2	cxg	1	noun	list	2	4	nomatch	mieux	-1	1	y	0.74616
1.3378999999999905	0.0	+	1	noun	list	2	5	nomatch	mieux	-1	1	y	0.74616
1.7378999999999962	0.2	vzq	1	noun	list	2	6	nomatch	mieux	-1	1	y	0.74616
1.937899999999999	0.0	+	1	noun	list	2	7	nomatch	mieux	-1	1	y	0.74616
2.3378000000000014	0.2	trop	1	noun	list	2	8	nomatch	mieux	-1	1	y	0.74616
2.53779999999999	0.0	+	1	noun	list	2	9	nomatch	mieux	-1	1	y	0.74616
2.9377999999999957	0.2	rocher	1	noun	list	2	10	nomatch	mieux	-1	1	y	0.74616
3.1377999999999986	0.0	+	1	noun	list	2	11	nomatch	mieux	-1	1	y	0.74616
3.53779999999999	0.0	+	1	noun	list	2	12	nomatch	mieux	-1	1	y	0.74616
5.537599999999998	0.0	MIEUX	1	noun	list	2	13	nomatch	mieux	-1	1	y	0.74616
6.354199999999992	0.0	+	1	noun	list	2	14	nomatch	mieux	-1	1	y	0.74616
6.283799999999999	0.0	[response]	1	noun	list	2	15	nomatch	mieux	-1	1	y	0.74616
7.937399999999997	0.0	+	2	noun	phrase	3	1	nomatch	vieux	-1	1	y	0.68867
8.487399999999994	0.2	tjqzdfv	2	noun	phrase	3	2	nomatch	vieux	-1	1	y	0.68867
8.687399999999997	0.0	+	2	noun	phrase	3	3	nomatch	vieux	-1	1	y	0.68867
9.087299999999999	0.2	phxz	2	noun	phrase	3	4	nomatch	vieux	-1	1	y	0.68867
9.287300000000002	0.0	+	2	noun	phrase	3	5	nomatch	vieux	-1	1	y	0.68867
9.687299999999993	0.2	leur	2	noun	phrase	3	6	nomatch	vieux	-1	1	y	0.68867
9.887299999999996	0.0	+	2	noun	phrase	3	7	nomatch	vieux	-1	1	y	0.68867
10.287199999999999	0.2	nouveau	2	noun	phrase	3	8	nomatch	vieux	-1	1	y	0.68867
10.487200000000001	0.0	+	2	noun	phrase	3	9	nomatch	vieux	-1	1	y	0.68867
10.887199999999993	0.2	clavier	2	noun	phrase	3	10	nomatch	vieux	-1	1	y	0.68867
11.087199999999996	0.0	+	2	noun	phrase	3	11	nomatch	vieux	-1	1	y	0.68867
11.487099999999998	0.0	+	2	noun	phrase	3	12	nomatch	vieux	-1	1	y	0.68867
13.486999999999995	0.0	VIEUX	2	noun	phrase	3	13	nomatch	vieux	-1	1	y	0.68867
14.236899999999991	0.0	+	2	noun	phrase	3	14	nomatch	vieux	-1	1	y	0.68867
14.175699999999992	0.0	[response]	2	noun	phrase	3	15	nomatch	vieux	-1	1	y	0.68867
15.886799999999994	0.0	+	3	noun	list	1	1	match	mieux	5	1	p	0.68166
16.43679999999999	0.2	jbl	3	noun	list	1	2	match	mieux	5	1	p	0.68166
16.636799999999994	0.0	+	3	noun	list	1	3	match	mieux	5	1	p	0.68166
17.036699999999996	0.2	jgvm	3	noun	list	1	4	match	mieux	5	1	p	0.68166
17.2367	0.0	+	3	noun	list	1	5	match	mieux	5	1	p	0.68166
17.63669999999999	0.2	vzq	3	noun	list	1	6	match	mieux	5	1	p	0.68166
17.836699999999993	0.0	+	3	noun	list	1	7	match	mieux	5	1	p	0.68166
18.236599999999996	0.2	pnjtbg	3	noun	list	1	8	match	mieux	5	1	p	0.68166
18.4366	0.0	+	3	noun	list	1	9	match	mieux	5	1	p	0.68166
18.83659999999999	0.2	mieux	3	noun	list	1	10	match	mieux	5	1	p	0.68166
19.036599999999993	0.0	+	3	noun	list	1	11	match	mieux	5	1	p	0.68166
19.436499999999995	0.0	+	3	noun	list	1	12	match	mieux	5	1	p	0.68166
21.436399999999992	0.0	MIEUX	3	noun	list	1	13	match	mieux	5	1	p	0.68166
22.186300000000003	0.0	+	3	noun	list	1	14	match	mieux	5	1	p	0.68166
22.1181	0.0	[response]	3	noun	list	1	15	match	mieux	5	1	p	0.68166
31.8356	0.0	+	4	noun	list	1	1	nomatch	adam	-1	1	y	0.65472
32.3856	0.2	xkb	4	noun	list	1	2	nomatch	adam	-1	1	y	0.65472
32.585499999999996	0.0	+	4	noun	list	1	3	nomatch	adam	-1	1	y	0.65472
32.9855	0.2	ljxk	4	noun	list	1	4	nomatch	adam	-1	1	y	0.65472
33.18549999999999	0.0	+	4	noun	list	1	5	nomatch	adam	-1	1	y	0.65472
33.585499999999996	0.2	dljz	4	noun	list	1	6	nomatch	adam	-1	1	y	0.65472
33.785399999999996	0.0	+	4	noun	list	1	7	nomatch	adam	-1	1	y	0.65472
34.1854	0.2	dhxvfsj	4	noun	list	1	8	nomatch	adam	-1	1	y	0.65472
34.38539999999999	0.0	+	4	noun	list	1	9	nomatch	adam	-1	1	y	0.65472
34.785399999999996	0.2	plus	4	noun	list	1	10	nomatch	adam	-1	1	y	0.65472
34.9854	0.0	+	4	noun	list	1	11	nomatch	adam	-1	1	y	0.65472
35.3853	0.0	+	4	noun	list	1	12	nomatch	adam	-1	1	y	0.65472
37.3852	0.0	ADAM	4	noun	list	1	13	nomatch	adam	-1	1	y	0.65472
38.1018	0.0	+	4	noun	list	1	14	nomatch	adam	-1	1	y	0.65472
38.0399	0.0	[response]	4	noun	list	1	15	nomatch	adam	-1	1	y	0.65472
39.785	0.0	+	5	verb	phrase	2	1	nomatch	mieux	-1	1	y	0.64019
40.33489999999999	0.2	lpftmz	5	verb	phrase	2	2	nomatch	mieux	-1	1	y	0.64019
40.53489999999999	0.0	+	5	verb	phrase	2	3	nomatch	mieux	-1	1	y	0.64019
40.9349	0.2	zvkc	5	verb	phrase	2	4	nomatch	mieux	-1	1	y	0.64019
41.1349	0.0	+	5	verb	phrase	2	5	nomatch	mieux	-1	1	y	0.64019
41.53489999999999	0.2	xv	5	verb	phrase	2	6	nomatch	mieux	-1	1	y	0.64019
41.73479999999999	0.0	+	5	verb	phrase	2	7	nomatch	mieux	-1	1	y	0.64019
42.1349	0.2	trop	5	verb	phrase	2	8	nomatch	mieux	-1	1	y	0.64019
42.3348	0.0	+	5	verb	phrase	2	9	nomatch	mieux	-1	1	y	0.64019
42.75139999999999	0.2	parader	5	verb	phrase	2	10	nomatch	mieux	-1	1	y	0.64019
42.95139999999999	0.0	+	5	verb	phrase	2	11	nomatch	mieux	-1	1	y	0.64019
43.3514	0.0	+	5	verb	phrase	2	12	nomatch	mieux	-1	1	y	0.64019
45.35119999999999	0.0	MIEUX	5	verb	phrase	2	13	nomatch	mieux	-1	1	y	0.64019
46.051199999999994	0.0	+	5	verb	phrase	2	14	nomatch	mieux	-1	1	y	0.64019
45.99140000000001	0.0	[response]	5	verb	phrase	2	15	nomatch	mieux	-1	1	y	0.64019
47.75099999999999	0.0	+	6	noun	phrase	2	1	nomatch	vert	-1	1	y	0.58879
48.301	0.2	qhfb	6	noun	phrase	2	2	nomatch	vert	-1	1	y	0.58879
48.50099999999999	0.0	+	6	noun	phrase	2	3	nomatch	vert	-1	1	y	0.58879
48.900999999999996	0.2	phxz	6	noun	phrase	2	4	nomatch	vert	-1	1	y	0.58879
49.100899999999996	0.0	+	6	noun	phrase	2	5	nomatch	vert	-1	1	y	0.58879
49.5009	0.2	dljz	6	noun	phrase	2	6	nomatch	vert	-1	1	y	0.58879
49.70089999999999	0.0	+	6	noun	phrase	2	7	nomatch	vert	-1	1	y	0.58879
50.100899999999996	0.2	casier	6	noun	phrase	2	8	nomatch	vert	-1	1	y	0.58879
50.300799999999995	0.0	+	6	noun	phrase	2	9	nomatch	vert	-1	1	y	0.58879
50.701499999999996	0.2	noir	6	noun	phrase	2	10	nomatch	vert	-1	1	y	0.58879
50.90079999999999	0.0	+	6	noun	phrase	2	11	nomatch	vert	-1	1	y	0.58879
51.300799999999995	0.0	+	6	noun	phrase	2	12	nomatch	vert	-1	1	y	0.58879
53.3006	0.0	VERT	6	noun	phrase	2	13	nomatch	vert	-1	1	y	0.58879
53.950599999999994	0.0	+	6	noun	phrase	2	14	nomatch	vert	-1	1	y	0.58879
53.889399999999995	0.0	[response]	6	noun	phrase	2	15	nomatch	vert	-1	1	y	0.58879
55.7004	0.0	+	7	noun	list	4	1	nomatch	luc	-1	1	y	0.7433
56.2504	0.2	vhsmpkg	7	noun	list	4	2	nomatch	luc	-1	1	y	0.7433
56.4504	0.0	+	7	noun	list	4	3	nomatch	luc	-1	1	y	0.7433
56.85029999999999	0.2	jean	7	noun	list	4	4	nomatch	luc	-1	1	y	0.7433
57.05029999999999	0.0	+	7	noun	list	4	5	nomatch	luc	-1	1	y	0.7433
57.4503	0.2	mon	7	noun	list	4	6	nomatch	luc	-1	1	y	0.7433
57.6503	0.0	+	7	noun	list	4	7	nomatch	luc	-1	1	y	0.7433
58.05029999999999	0.2	plus	7	noun	list	4	8	nomatch	luc	-1	1	y	0.7433
58.25019999999999	0.0	+	7	noun	list	4	9	nomatch	luc	-1	1	y	0.7433
58.6502	0.2	sablier	7	noun	list	4	10	nomatch	luc	-1	1	y	0.7433
58.8502	0.0	+	7	noun	list	4	11	nomatch	luc	-1	1	y	0.7433
59.25019999999999	0.0	+	7	noun	list	4	12	nomatch	luc	-1	1	y	0.7433
61.25	0.0	LUC	7	noun	list	4	13	nomatch	luc	-1	1	y	0.7433
62.049899999999994	0.0	+	7	noun	list	4	14	nomatch	luc	-1	1	y	0.7433
61.99329999999999	0.0	[response]	7	noun	list	4	15	nomatch	luc	-1	1	y	0.7433
71.6492	0.0	+	8	noun	phrase	3	1	match	rouge	5	1	p	0.66055
72.1992	0.2	sgp	8	noun	phrase	3	2	match	rouge	5	1	p	0.66055
72.3992	0.0	+	8	noun	phrase	3	3	match	rouge	5	1	p	0.66055
72.7991	0.2	phxz	8	noun	phrase	3	4	match	rouge	5	1	p	0.66055
72.99909999999998	0.0	+	8	noun	phrase	3	5	match	rouge	5	1	p	0.66055
73.39909999999999	0.2	son	8	noun	phrase	3	6	match	rouge	5	1	p	0.66055
73.5991	0.0	+	8	noun	phrase	3	7	match	rouge	5	1	p	0.66055
73.99900000000001	0.2	grenier	8	noun	phrase	3	8	match	rouge	5	1	p	0.66055
74.199	0.0	+	8	noun	phrase	3	9	match	rouge	5	1	p	0.66055
74.599	0.2	rouge	8	noun	phrase	3	10	match	rouge	5	1	p	0.66055
74.79899999999999	0.0	+	8	noun	phrase	3	11	match	rouge	5	1	p	0.66055
75.1989	0.0	+	8	noun	phrase	3	12	match	rouge	5	1	p	0.66055
77.19879999999999	0.0	ROUGE	8	noun	phrase	3	13	match	rouge	5	1	p	0.66055
77.91539999999999	0.0	+	8	noun	phrase	3	14	match	rouge	5	1	p	0.66055
77.8593	0.0	[response]	8	noun	phrase	3	15	match	rouge	5	1	p	0.66055
79.59859999999999	0.0	+	9	verb	list	3	1	nomatch	petit	-1	1	y	0.62115
80.1486	0.2	zsntq	9	verb	list	3	2	nomatch	petit	-1	1	y	0.62115
80.34859999999999	0.0	+	9	verb	list	3	3	nomatch	petit	-1	1	y	0.62115
80.74849999999999	0.2	xlb	9	verb	list	3	4	nomatch	petit	-1	1	y	0.62115
80.94850000000001	0.0	+	9	verb	list	3	5	nomatch	petit	-1	1	y	0.62115
81.34849999999999	0.2	va	9	verb	list	3	6	nomatch	petit	-1	1	y	0.62115
81.5485	0.0	+	9	verb	list	3	7	nomatch	petit	-1	1	y	0.62115
81.9484	0.2	grand	9	verb	list	3	8	nomatch	petit	-1	1	y	0.62115
82.1484	0.0	+	9	verb	list	3	9	nomatch	petit	-1	1	y	0.62115
82.5484	0.2	voyager	9	verb	list	3	10	nomatch	petit	-1	1	y	0.62115
82.74839999999999	0.0	+	9	verb	list	3	11	nomatch	petit	-1	1	y	0.62115
83.14829999999999	0.0	+	9	verb	list	3	12	nomatch	petit	-1	1	y	0.62115
85.14819999999999	0.0	PETIT	9	verb	list	3	13	nomatch	petit	-1	1	y	0.62115
85.83149999999999	0.0	+	9	verb	list	3	14	nomatch	petit	-1	1	y	0.62115
85.76930000000003	0.0	[response]	9	verb	list	3	15	nomatch	petit	-1	1	y	0.62115
87.54799999999999	0.0	+	10	noun	phrase	1	1	match	nouveau	5	1	p	0.49581
88.098	0.2	qfjkn	10	noun	phrase	1	2	match	nouveau	5	1	p	0.49581
88.29789999999998	0.0	+	10	noun	phrase	1	3	match	nouveau	5	1	p	0.49581
88.69789999999999	0.2	lfnt	10	noun	phrase	1	4	match	nouveau	5	1	p	0.49581
88.8979	0.0	+	10	noun	phrase	1	5	match	nouveau	5	1	p	0.49581
89.29789999999998	0.2	vzq	10	noun	phrase	1	6	match	nouveau	5	1	p	0.49581
89.4978	0.0	+	10	noun	phrase	1	7	match	nouveau	5	1	p	0.49581
89.8978	0.2	tmvbxw	10	noun	phrase	1	8	match	nouveau	5	1	p	0.49581
90.09779999999999	0.0	+	10	noun	phrase	1	9	match	nouveau	5	1	p	0.49581
90.4978	0.2	nouveau	10	noun	phrase	1	10	match	nouveau	5	1	p	0.49581
90.69779999999999	0.0	+	10	noun	phrase	1	11	match	nouveau	5	1	p	0.49581
91.09769999999999	0.0	+	10	noun	phrase	1	12	match	nouveau	5	1	p	0.49581
93.09759999999999	0.0	NOUVEAU	10	noun	phrase	1	13	match	nouveau	5	1	p	0.49581
93.6475	0.0	+	10	noun	phrase	1	14	match	nouveau	5	1	p	0.49581
93.59339999999999	0.0	[response]	10	noun	phrase	1	15	match	nouveau	5	1	p	0.49581
103.4968	0.0	+	11	noun	list	1	1	nomatch	rouge	-1	1	y	0.56449
104.0467	0.2	mbxfr	11	noun	list	1	2	nomatch	rouge	-1	1	y	0.56449
104.24669999999999	0.0	+	11	noun	list	1	3	nomatch	rouge	-1	1	y	0.56449
104.6467	0.2	jgvm	11	noun	list	1	4	nomatch	rouge	-1	1	y	0.56449
104.84669999999998	0.0	+	11	noun	list	1	5	nomatch	rouge	-1	1	y	0.56449
105.24659999999999	0.2	dljz	11	noun	list	1	6	nomatch	rouge	-1	1	y	0.56449
105.4466	0.0	+	11	noun	list	1	7	nomatch	rouge	-1	1	y	0.56449
105.84660000000001	0.2	qnvxflk	11	noun	list	1	8	nomatch	rouge	-1	1	y	0.56449
106.0466	0.0	+	11	noun	list	1	9	nomatch	rouge	-1	1	y	0.56449
106.4465	0.2	beaucoup	11	noun	list	1	10	nomatch	rouge	-1	1	y	0.56449
106.64649999999999	0.0	+	11	noun	list	1	11	nomatch	rouge	-1	1	y	0.56449
107.0465	0.0	+	11	noun	list	1	12	nomatch	rouge	-1	1	y	0.56449
109.04639999999999	0.0	ROUGE	11	noun	list	1	13	nomatch	rouge	-1	1	y	0.56449
109.67960000000001	0.0	+	11	noun	list	1	14	nomatch	rouge	-1	1	y	0.56449
109.6108	0.0	[response]	11	noun	list	1	15	nomatch	rouge	-1	1	y	0.56449
111.44619999999999	0.0	+	12	noun	phrase	3	1	nomatch	mon	-1	1	y	0.86471
111.9961	0.2	wlv	12	noun	phrase	3	2	nomatch	mon	-1	1	y	0.86471
112.19609999999999	0.0	+	12	noun	phrase	3	3	nomatch	mon	-1	1	y	0.86471
112.59609999999999	0.2	bjsm	12	noun	phrase	3	4	nomatch	mon	-1	1	y	0.86471
112.79610000000001	0.0	+	12	noun	phrase	3	5	nomatch	mon	-1	1	y	0.86471
113.19599999999998	0.2	son	12	noun	phrase	3	6	nomatch	mon	-1	1	y	0.86471
113.396	0.0	+	12	noun	phrase	3	7	nomatch	mon	-1	1	y	0.86471
113.796	0.2	vieux	12	noun	phrase	3	8	nomatch	mon	-1	1	y	0.86471
113.996	0.0	+	12	noun	phrase	3	9	nomatch	mon	-1	1	y	0.86471
114.3959	0.2	rocher	12	noun	phrase	3	10	nomatch	mon	-1	1	y	0.86471
114.59589999999999	0.0	+	12	noun	phrase	3	11	nomatch	mon	-1	1	y	0.86471
114.99589999999999	0.0	+	12	noun	phrase	3	12	nomatch	mon	-1	1	y	0.86471
116.99569999999999	0.0	MON	12	noun	phrase	3	13	nomatch	mon	-1	1	y	0.86471
117.92899999999999	0.0	+	12	noun	phrase	3	14	nomatch	mon	-1	1	y	0.86471
117.86049999999999	0.0	[response]	12	noun	phrase	3	15	nomatch	mon	-1	1	y	0.86471
119.39559999999999	0.0	+	13	noun	list	1	1	match	sablier	5	1	p	0.53177
119.9455	0.2	vmgrj	13	noun	list	1	2	match	sablier	5	1	p	0.53177
120.14549999999998	0.0	+	13	noun	list	1	3	match	sablier	5	1	p	0.53177
120.54549999999999	0.2	kvgl	13	noun	list	1	4	match	sablier	5	1	p	0.53177
120.7455	0.0	+	13	noun	list	1	5	match	sablier	5	1	p	0.53177
121.14540000000001	0.2	pjf	13	noun	list	1	6	match	sablier	5	1	p	0.53177
121.3454	0.0	+	13	noun	list	1	7	match	sablier	5	1	p	0.53177
121.7454	0.2	hbgl	13	noun	list	1	8	match	sablier	5	1	p	0.53177
121.94539999999999	0.0	+	13	noun	list	1	9	match	sablier	5	1	p	0.53177
122.3453	0.2	sablier	13	noun	list	1	10	match	sablier	5	1	p	0.53177
122.54529999999998	0.0	+	13	noun	list	1	11	match	sablier	5	1	p	0.53177
122.94529999999999	0.0	+	13	noun	list	1	12	match	sablier	5	1	p	0.53177
124.94509999999998	0.0	SABLIER	13	noun	list	1	13	match	sablier	5	1	p	0.53177
125.5451	0.0	+	13	noun	list	1	14	match	sablier	5	1	p	0.53177
125.47689999999999	0.0	[response]	13	noun	list	1	15	match	sablier	5	1	p	0.53177
127.34490000000001	0.0	+	14	noun	phrase	1	1	match	petit	5	1	p	0.82214
127.89489999999999	0.2	bnmzs	14	noun	phrase	1	2	match	petit	5	1	p	0.82214
128.0949	0.0	+	14	noun	phrase	1	3	match	petit	5	1	p	0.82214
128.49489999999997	0.2	phxz	14	noun	phrase	1	4	match	petit	5	1	p	0.82214
128.6948	0.0	+	14	noun	phrase	1	5	match	petit	5	1	p	0.82214
129.09480000000002	0.2	vzq	14	noun	phrase	1	6	match	petit	5	1	p	0.82214
129.2948	0.0	+	14	noun	phrase	1	7	match	petit	5	1	p	0.82214
129.6948	0.2	gbzhdsl	14	noun	phrase	1	8	match	petit	5	1	p	0.82214
129.89479999999998	0.0	+	14	noun	phrase	1	9	match	petit	5	1	p	0.82214
130.29469999999998	0.2	petit	14	noun	phrase	1	10	match	petit	5	1	p	0.82214
130.49470000000002	0.0	+	14	noun	phrase	1	11	match	petit	5	1	p	0.82214
130.8947	0.0	+	14	noun	phrase	1	12	match	petit	5	1	p	0.82214
132.8945	0.0	PETIT	14	noun	phrase	1	13	match	petit	5	1	p	0.82214
133.7778	0.0	+	14	noun	phrase	1	14	match	petit	5	1	p	0.82214
133.7167	0.0	[response]	14	noun	phrase	1	15	match	petit	5	1	p	0.82214
135.29430000000002	0.0	+	15	noun	phrase	1	1	match	tablier	5	1	p	0.71498
135.84429999999998	0.2	vbrn	15	noun	phrase	1	2	match	tablier	5	1	p	0.71498
136.04430000000002	0.0	+	15	noun	phrase	1	3	match	tablier	5	1	p	0.71498
136.4443	0.2	lfnt	15	noun	phrase	1	4	match	tablier	5	1	p	0.71498
136.6442	0.0	+	15	noun	phrase	1	5	match	tablier	5	1	p	0.71498
137.0442	0.2	pjf	15	noun	phrase	1	6	match	tablier	5	1	p	0.71498
137.24419999999998	0.0	+	15	noun	phrase	1	7	match	tablier	5	1	p	0.71498
137.6442	0.2	sxfrc	15	noun	phrase	1	8	match	tablier	5	1	p	0.71498
137.84409999999997	0.0	+	15	noun	phrase	1	9	match	tablier	5	1	p	0.71498
138.2441	0.2	tablier	15	noun	phrase	1	10	match	tablier	5	1	p	0.71498
138.4441	0.0	+	15	noun	phrase	1	11	match	tablier	5	1	p	0.71498
138.84409999999997	0.0	+	15	noun	phrase	1	12	match	tablier	5	1	p	0.71498
140.84390000000002	0.0	TABLIER	15	noun	phrase	1	13	match	tablier	5	1	p	0.71498
141.62720000000002	0.0	+	15	noun	phrase	1	14	match	tablier	5	1	p	0.71498
141.55890000000005	0.0	[response]	15	noun	phrase	1	15	match	tablier	5	1	p	0.71498
143.2437	0.0	+	16	verb	phrase	1	1	nomatch	petit	-1	1	y	1.2227
143.7937	0.2	drhkzs	16	verb	phrase	1	2	nomatch	petit	-1	1	y	1.2227
143.9937	0.0	+	16	verb	phrase	1	3	nomatch	petit	-1	1	y	1.2227
144.3936	0.2	hmzf	16	verb	phrase	1	4	nomatch	petit	-1	1	y	1.2227
144.59359999999998	0.0	+	16	verb	phrase	1	5	nomatch	petit	-1	1	y	1.2227
144.99360000000001	0.2	zmpt	16	verb	phrase	1	6	nomatch	petit	-1	1	y	1.2227
145.1936	0.0	+	16	verb	phrase	1	7	nomatch	petit	-1	1	y	1.2227
145.59359999999998	0.2	wnfgmvj	16	verb	phrase	1	8	nomatch	petit	-1	1	y	1.2227
145.7935	0.0	+	16	verb	phrase	1	9	nomatch	petit	-1	1	y	1.2227
146.19349999999997	0.2	moins	16	verb	phrase	1	10	nomatch	petit	-1	1	y	1.2227
146.39350000000002	0.0	+	16	verb	phrase	1	11	nomatch	petit	-1	1	y	1.2227
146.7935	0.0	+	16	verb	phrase	1	12	nomatch	petit	-1	1	y	1.2227
148.7933	0.0	PETIT	16	verb	phrase	1	13	nomatch	petit	-1	1	y	1.2227
150.0765	0.0	+	16	verb	phrase	1	14	nomatch	petit	-1	1	y	1.2227
150.01600000000002	0.0	[response]	16	verb	phrase	1	15	nomatch	petit	-1	1	y	1.2227
151.19310000000002	0.0	+	17	noun	phrase	4	1	nomatch	galoper	-1	1	y	0.63196
151.74309999999997	0.2	ncrpbm	17	noun	phrase	4	2	nomatch	galoper	-1	1	y	0.63196
151.94310000000002	0.0	+	17	noun	phrase	4	3	nomatch	galoper	-1	1	y	0.63196
152.34300000000002	0.2	dans	17	noun	phrase	4	4	nomatch	galoper	-1	1	y	0.63196
152.543	0.0	+	17	noun	phrase	4	5	nomatch	galoper	-1	1	y	0.63196
152.94299999999998	0.2	son	17	noun	phrase	4	6	nomatch	galoper	-1	1	y	0.63196
153.14299999999997	0.0	+	17	noun	phrase	4	7	nomatch	galoper	-1	1	y	0.63196
153.54289999999997	0.2	sablier	17	noun	phrase	4	8	nomatch	galoper	-1	1	y	0.63196
153.74290000000002	0.0	+	17	noun	phrase	4	9	nomatch	galoper	-1	1	y	0.63196
154.1429	0.2	bleu	17	noun	phrase	4	10	nomatch	galoper	-1	1	y	0.63196
154.3429	0.0	+	17	noun	phrase	4	11	nomatch	galoper	-1	1	y	0.63196
154.74290000000002	0.0	+	17	noun	phrase	4	12	nomatch	galoper	-1	1	y	0.63196
156.7427	0.0	GALOPER	17	noun	phrase	4	13	nomatch	galoper	-1	1	y	0.63196
157.44259999999997	0.0	+	17	noun	phrase	4	14	nomatch	galoper	-1	1	y	0.63196
157.37470000000002	0.0	[response]	17	noun	phrase	4	15	nomatch	galoper	-1	1	y	0.63196
167.14190000000002	0.0	+	18	verb	phrase	4	1	match	jongler	5	1	p	0.8652200000000001
167.69189999999998	0.2	cfphlkr	18	verb	phrase	4	2	match	jongler	5	1	p	0.8652200000000001
167.8918	0.0	+	18	verb	phrase	4	3	match	jongler	5	1	p	0.8652200000000001
168.29180000000002	0.2	yves	18	verb	phrase	4	4	match	jongler	5	1	p	0.8652200000000001
168.4918	0.0	+	18	verb	phrase	4	5	match	jongler	5	1	p	0.8652200000000001
168.8918	0.2	peut	18	verb	phrase	4	6	match	jongler	5	1	p	0.8652200000000001
169.09179999999998	0.0	+	18	verb	phrase	4	7	match	jongler	5	1	p	0.8652200000000001
169.49169999999998	0.2	trop	18	verb	phrase	4	8	match	jongler	5	1	p	0.8652200000000001
169.69169999999997	0.0	+	18	verb	phrase	4	9	match	jongler	5	1	p	0.8652200000000001
170.0917	0.2	jongler	18	verb	phrase	4	10	match	jongler	5	1	p	0.8652200000000001
170.2917	0.0	+	18	verb	phrase	4	11	match	jongler	5	1	p	0.8652200000000001
170.6916	0.0	+	18	verb	phrase	4	12	match	jongler	5	1	p	0.8652200000000001
172.69150000000002	0.0	JONGLER	18	verb	phrase	4	13	match	jongler	5	1	p	0.8652200000000001
173.62470000000002	0.0	+	18	verb	phrase	4	14	match	jongler	5	1	p	0.8652200000000001
173.55669999999998	0.0	[response]	18	verb	phrase	4	15	match	jongler	5	1	p	0.8652200000000001
175.0913	0.0	+	19	noun	list	1	1	match	rocher	5	1	p	0.59568
175.6413	0.2	zcpqk	19	noun	list	1	2	match	rocher	5	1	p	0.59568
175.84120000000001	0.0	+	19	noun	list	1	3	match	rocher	5	1	p	0.59568
176.2412	0.2	ljxk	19	noun	list	1	4	match	rocher	5	1	p	0.59568
176.44119999999998	0.0	+	19	noun	list	1	5	match	rocher	5	1	p	0.59568
176.84120000000001	0.2	vzq	19	noun	list	1	6	match	rocher	5	1	p	0.59568
177.04109999999997	0.0	+	19	noun	list	1	7	match	rocher	5	1	p	0.59568
177.4411	0.2	lbzh	19	noun	list	1	8	match	rocher	5	1	p	0.59568
177.6411	0.0	+	19	noun	list	1	9	match	rocher	5	1	p	0.59568
178.04109999999997	0.2	rocher	19	noun	list	1	10	match	rocher	5	1	p	0.59568
178.24110000000002	0.0	+	19	noun	list	1	11	match	rocher	5	1	p	0.59568
178.64100000000002	0.0	+	19	noun	list	1	12	match	rocher	5	1	p	0.59568
180.6409	0.0	ROCHER	19	noun	list	1	13	match	rocher	5	1	p	0.59568
181.2908	0.0	+	19	noun	list	1	14	match	rocher	5	1	p	0.59568
181.2366	0.0	[response]	19	noun	list	1	15	match	rocher	5	1	p	0.59568
183.04070000000002	0.0	+	20	verb	phrase	1	1	nomatch	leur	-1	1	y	0.7739900000000001
183.5906	0.2	nkwpxd	20	verb	phrase	1	2	nomatch	leur	-1	1	y	0.7739900000000001
183.79059999999998	0.0	+	20	verb	phrase	1	3	nomatch	leur	-1	1	y	0.7739900000000001
184.19060000000002	0.2	kvgl	20	verb	phrase	1	4	nomatch	leur	-1	1	y	0.7739900000000001
184.3906	0.0	+	20	verb	phrase	1	5	nomatch	leur	-1	1	y	0.7739900000000001
184.79059999999998	0.2	zmpt	20	verb	phrase	1	6	nomatch	leur	-1	1	y	0.7739900000000001
184.9905	0.0	+	20	verb	phrase	1	7	nomatch	leur	-1	1	y	0.7739900000000001
185.39049999999997	0.2	smcjrf	20	verb	phrase	1	8	nomatch	leur	-1	1	y	0.7739900000000001
185.59050000000002	0.0	+	20	verb	phrase	1	9	nomatch	leur	-1	1	y	0.7739900000000001
185.9905	0.2	ainsi	20	verb	phrase	1	10	nomatch	leur	-1	1	y	0.7739900000000001
186.1904	0.0	+	20	verb	phrase	1	11	nomatch	leur	-1	1	y	0.7739900000000001
186.5904	0.0	+	20	verb	phrase	1	12	nomatch	leur	-1	1	y	0.7739900000000001
188.5903	0.0	LEUR	20	verb	phrase	1	13	nomatch	leur	-1	1	y	0.7739900000000001
189.4235	0.0	+	20	verb	phrase	1	14	nomatch	leur	-1	1	y	0.7739900000000001
189.36420000000004	0.0	[response]	20	verb	phrase	1	15	nomatch	leur	-1	1	y	0.7739900000000001
190.99009999999998	0.0	+	21	noun	list	2	1	nomatch	son	-1	1	y	0.5846
191.53999999999996	0.2	rlfbt	21	noun	list	2	2	nomatch	son	-1	1	y	0.5846
191.74	0.0	+	21	noun	list	2	3	nomatch	son	-1	1	y	0.5846
192.14	0.2	jgvm	21	noun	list	2	4	nomatch	son	-1	1	y	0.5846
192.33999999999997	0.0	+	21	noun	list	2	5	nomatch	son	-1	1	y	0.5846
192.73989999999998	0.2	pjf	21	noun	list	2	6	nomatch	son	-1	1	y	0.5846
192.93989999999997	0.0	+	21	noun	list	2	7	nomatch	son	-1	1	y	0.5846
193.3399	0.2	trop	21	noun	list	2	8	nomatch	son	-1	1	y	0.5846
193.5399	0.0	+	21	noun	list	2	9	nomatch	son	-1	1	y	0.5846
193.93989999999997	0.2	sablier	21	noun	list	2	10	nomatch	son	-1	1	y	0.5846
194.13979999999998	0.0	+	21	noun	list	2	11	nomatch	son	-1	1	y	0.5846
194.53979999999996	0.0	+	21	noun	list	2	12	nomatch	son	-1	1	y	0.5846
196.53969999999998	0.0	SON	21	noun	list	2	13	nomatch	son	-1	1	y	0.5846
197.18959999999998	0.0	+	21	noun	list	2	14	nomatch	son	-1	1	y	0.5846
197.12430000000006	0.0	[response]	21	noun	list	2	15	nomatch	son	-1	1	y	0.5846
198.9395	0.0	+	22	noun	list	2	1	match	casier	4	1	p	0.86728
199.4894	0.2	mzgjv	22	noun	list	2	2	match	casier	4	1	p	0.86728
199.68939999999998	0.0	+	22	noun	list	2	3	match	casier	4	1	p	0.86728
200.08939999999996	0.2	phxz	22	noun	list	2	4	match	casier	4	1	p	0.86728
200.2894	0.0	+	22	noun	list	2	5	match	casier	4	1	p	0.86728
200.6893	0.2	gxvf	22	noun	list	2	6	match	casier	4	1	p	0.86728
200.8893	0.0	+	22	noun	list	2	7	match	casier	4	1	p	0.86728
201.28929999999997	0.2	casier	22	noun	list	2	8	match	casier	4	1	p	0.86728
201.48929999999996	0.0	+	22	noun	list	2	9	match	casier	4	1	p	0.86728
201.88919999999996	0.2	tard	22	noun	list	2	10	match	casier	4	1	p	0.86728
202.0892	0.0	+	22	noun	list	2	11	match	casier	4	1	p	0.86728
202.48919999999998	0.0	+	22	noun	list	2	12	match	casier	4	1	p	0.86728
204.48899999999998	0.0	CASIER	22	noun	list	2	13	match	casier	4	1	p	0.86728
205.4223	0.0	+	22	noun	list	2	14	match	casier	4	1	p	0.86728
205.35629999999998	0.0	[response]	22	noun	list	2	15	match	casier	4	1	p	0.86728
214.88819999999998	0.0	+	23	noun	list	1	1	match	grenier	5	1	p	0.57028
215.4382	0.2	tgqrn	23	noun	list	1	2	match	grenier	5	1	p	0.57028
215.63819999999998	0.0	+	23	noun	list	1	3	match	grenier	5	1	p	0.57028
216.03819999999996	0.2	jgvm	23	noun	list	1	4	match	grenier	5	1	p	0.57028
216.23809999999997	0.0	+	23	noun	list	1	5	match	grenier	5	1	p	0.57028
216.6381	0.2	vzq	23	noun	list	1	6	match	grenier	5	1	p	0.57028
216.8381	0.0	+	23	noun	list	1	7	match	grenier	5	1	p	0.57028
217.23809999999997	0.2	hbgl	23	noun	list	1	8	match	grenier	5	1	p	0.57028
217.438	0.0	+	23	noun	list	1	9	match	grenier	5	1	p	0.57028
217.83799999999997	0.2	grenier	23	noun	list	1	10	match	grenier	5	1	p	0.57028
218.03799999999995	0.0	+	23	noun	list	1	11	match	grenier	5	1	p	0.57028
218.438	0.0	+	23	noun	list	1	12	match	grenier	5	1	p	0.57028
220.43779999999998	0.0	GRENIER	23	noun	list	1	13	match	grenier	5	1	p	0.57028
221.0711	0.0	+	23	noun	list	1	14	match	grenier	5	1	p	0.57028
221.00809999999996	0.0	[response]	23	noun	list	1	15	match	grenier	5	1	p	0.57028
222.8376	0.0	+	24	noun	phrase	4	1	match	petit	4	1	p	0.58483
223.38759999999996	0.2	mjpf	24	noun	phrase	4	2	match	petit	4	1	p	0.58483
223.5876	0.0	+	24	noun	phrase	4	3	match	petit	4	1	p	0.58483
223.98749999999995	0.2	vers	24	noun	phrase	4	4	match	petit	4	1	p	0.58483
224.1875	0.0	+	24	noun	phrase	4	5	match	petit	4	1	p	0.58483
224.58749999999998	0.2	mon	24	noun	phrase	4	6	match	petit	4	1	p	0.58483
224.78749999999997	0.0	+	24	noun	phrase	4	7	match	petit	4	1	p	0.58483
225.1875	0.2	petit	24	noun	phrase	4	8	match	petit	4	1	p	0.58483
225.38739999999996	0.0	+	24	noun	phrase	4	9	match	petit	4	1	p	0.58483
225.7874	0.2	sablier	24	noun	phrase	4	10	match	petit	4	1	p	0.58483
225.98739999999998	0.0	+	24	noun	phrase	4	11	match	petit	4	1	p	0.58483
226.38739999999996	0.0	+	24	noun	phrase	4	12	match	petit	4	1	p	0.58483
228.3872	0.0	PETIT	24	noun	phrase	4	13	match	petit	4	1	p	0.58483
229.03719999999998	0.0	+	24	noun	phrase	4	14	match	petit	4	1	p	0.58483
228.97199999999998	0.0	[response]	24	noun	phrase	4	15	match	petit	4	1	p	0.58483
230.78699999999998	0.0	+	25	noun	phrase	1	1	nomatch	luc	-1	1	y	0.6392300000000001
231.337	0.2	rzdlphb	25	noun	phrase	1	2	nomatch	luc	-1	1	y	0.6392300000000001
231.53699999999998	0.0	+	25	noun	phrase	1	3	nomatch	luc	-1	1	y	0.6392300000000001
231.93689999999998	0.2	xhls	25	noun	phrase	1	4	nomatch	luc	-1	1	y	0.6392300000000001
232.13689999999997	0.0	+	25	noun	phrase	1	5	nomatch	luc	-1	1	y	0.6392300000000001
232.5369	0.2	dljz	25	noun	phrase	1	6	nomatch	luc	-1	1	y	0.6392300000000001
232.7369	0.0	+	25	noun	phrase	1	7	nomatch	luc	-1	1	y	0.6392300000000001
233.1368	0.2	qnvxflk	25	noun	phrase	1	8	nomatch	luc	-1	1	y	0.6392300000000001
233.33679999999998	0.0	+	25	noun	phrase	1	9	nomatch	luc	-1	1	y	0.6392300000000001
233.73679999999996	0.2	vieux	25	noun	phrase	1	10	nomatch	luc	-1	1	y	0.6392300000000001
233.9368	0.0	+	25	noun	phrase	1	11	nomatch	luc	-1	1	y	0.6392300000000001
234.33679999999998	0.0	+	25	noun	phrase	1	12	nomatch	luc	-1	1	y	0.6392300000000001
236.33659999999998	0.0	LUC	25	noun	phrase	1	13	nomatch	luc	-1	1	y	0.6392300000000001
237.0365	0.0	+	25	noun	phrase	1	14	nomatch	luc	-1	1	y	0.6392300000000001
236.9758	0.0	[response]	25	noun	phrase	1	15	nomatch	luc	-1	1	y	0.6392300000000001
238.7364	0.0	+	26	noun	phrase	3	1	match	bleu	5	1	p	0.46594
239.28639999999996	0.2	nkgc	26	noun	phrase	3	2	match	bleu	5	1	p	0.46594
239.4864	0.0	+	26	noun	phrase	3	3	match	bleu	5	1	p	0.46594
239.8863	0.2	lfnt	26	noun	phrase	3	4	match	bleu	5	1	p	0.46594
240.0863	0.0	+	26	noun	phrase	3	5	match	bleu	5	1	p	0.46594
240.48629999999997	0.2	mon	26	noun	phrase	3	6	match	bleu	5	1	p	0.46594
240.68629999999996	0.0	+	26	noun	phrase	3	7	match	bleu	5	1	p	0.46594
241.08619999999996	0.2	clavier	26	noun	phrase	3	8	match	bleu	5	1	p	0.46594
241.2862	0.0	+	26	noun	phrase	3	9	match	bleu	5	1	p	0.46594
241.68619999999999	0.2	bleu	26	noun	phrase	3	10	match	bleu	5	1	p	0.46594
241.88619999999997	0.0	+	26	noun	phrase	3	11	match	bleu	5	1	p	0.46594
242.28609999999998	0.0	+	26	noun	phrase	3	12	match	bleu	5	1	p	0.46594
244.286	0.0	BLEU	26	noun	phrase	3	13	match	bleu	5	1	p	0.46594
244.8193	0.0	+	26	noun	phrase	3	14	match	bleu	5	1	p	0.46594
244.75190000000003	0.0	[response]	26	noun	phrase	3	15	match	bleu	5	1	p	0.46594
254.6852	0.0	+	27	noun	phrase	1	1	match	noir	5	1	p	0.63212
255.2351	0.2	phx	27	noun	phrase	1	2	match	noir	5	1	p	0.63212
255.43509999999998	0.0	+	27	noun	phrase	1	3	match	noir	5	1	p	0.63212
255.83509999999995	0.2	mdrs	27	noun	phrase	1	4	match	noir	5	1	p	0.63212
256.0351	0.0	+	27	noun	phrase	1	5	match	noir	5	1	p	0.63212
256.4351	0.2	vzq	27	noun	phrase	1	6	match	noir	5	1	p	0.63212
256.635	0.0	+	27	noun	phrase	1	7	match	noir	5	1	p	0.63212
257.03499999999997	0.2	pzmjvdb	27	noun	phrase	1	8	match	noir	5	1	p	0.63212
257.23499999999996	0.0	+	27	noun	phrase	1	9	match	noir	5	1	p	0.63212
257.635	0.2	noir	27	noun	phrase	1	10	match	noir	5	1	p	0.63212
257.835	0.0	+	27	noun	phrase	1	11	match	noir	5	1	p	0.63212
258.2349	0.0	+	27	noun	phrase	1	12	match	noir	5	1	p	0.63212
260.2514	0.0	NOIR	27	noun	phrase	1	13	match	noir	5	1	p	0.63212
260.9514	0.0	+	27	noun	phrase	1	14	match	noir	5	1	p	0.63212
260.8836	0.0	[response]	27	noun	phrase	1	15	match	noir	5	1	p	0.63212
262.65119999999996	0.0	+	28	noun	list	1	1	match	trop	5	1	p	0.39880000000000004
263.2012	0.2	vkrz	28	noun	list	1	2	match	trop	5	1	p	0.39880000000000004
263.40119999999996	0.0	+	28	noun	list	1	3	match	trop	5	1	p	0.39880000000000004
263.8012	0.2	cxg	28	noun	list	1	4	match	trop	5	1	p	0.39880000000000004
264.0011	0.0	+	28	noun	list	1	5	match	trop	5	1	p	0.39880000000000004
264.4011	0.2	dljz	28	noun	list	1	6	match	trop	5	1	p	0.39880000000000004
264.6011	0.0	+	28	noun	list	1	7	match	trop	5	1	p	0.39880000000000004
265.0011	0.2	gbzhdsl	28	noun	list	1	8	match	trop	5	1	p	0.39880000000000004
265.2011	0.0	+	28	noun	list	1	9	match	trop	5	1	p	0.39880000000000004
265.601	0.2	trop	28	noun	list	1	10	match	trop	5	1	p	0.39880000000000004
265.801	0.0	+	28	noun	list	1	11	match	trop	5	1	p	0.39880000000000004
266.20099999999996	0.0	+	28	noun	list	1	12	match	trop	5	1	p	0.39880000000000004
268.20079999999996	0.0	TROP	28	noun	list	1	13	match	trop	5	1	p	0.39880000000000004
268.6674	0.0	+	28	noun	list	1	14	match	trop	5	1	p	0.39880000000000004
268.5996	0.0	[response]	28	noun	list	1	15	match	trop	5	1	p	0.39880000000000004
278.59999999999997	0.0	+	29	noun	list	2	1	nomatch	nager	-1	1	y	0.57771
279.15	0.2	bgcw	29	noun	list	2	2	nomatch	nager	-1	1	y	0.57771
279.34999999999997	0.0	+	29	noun	list	2	3	nomatch	nager	-1	1	y	0.57771
279.74989999999997	0.2	xlb	29	noun	list	2	4	nomatch	nager	-1	1	y	0.57771
279.94989999999996	0.0	+	29	noun	list	2	5	nomatch	nager	-1	1	y	0.57771
280.3499	0.2	zmpt	29	noun	list	2	6	nomatch	nager	-1	1	y	0.57771
280.5499	0.0	+	29	noun	list	2	7	nomatch	nager	-1	1	y	0.57771
280.9498	0.2	voilier	29	noun	list	2	8	nomatch	nager	-1	1	y	0.57771
281.14979999999997	0.0	+	29	noun	list	2	9	nomatch	nager	-1	1	y	0.57771
281.5498	0.2	tôt	29	noun	list	2	10	nomatch	nager	-1	1	y	0.57771
281.7498	0.0	+	29	noun	list	2	11	nomatch	nager	-1	1	y	0.57771
282.14979999999997	0.0	+	29	noun	list	2	12	nomatch	nager	-1	1	y	0.57771
284.14959999999996	0.0	NAGER	29	noun	list	2	13	nomatch	nager	-1	1	y	0.57771
284.7829	0.0	+	29	noun	list	2	14	nomatch	nager	-1	1	y	0.57771
284.72729999999996	0.0	[response]	29	noun	list	2	15	nomatch	nager	-1	1	y	0.57771
286.5494	0.0	+	30	verb	list	1	1	match	parader	5	1	p	0.54837
287.0994	0.2	vrzhmlj	30	verb	list	1	2	match	parader	5	1	p	0.54837
287.2994	0.0	+	30	verb	list	1	3	match	parader	5	1	p	0.54837
287.6993	0.2	zvkc	30	verb	list	1	4	match	parader	5	1	p	0.54837
287.8993	0.0	+	30	verb	list	1	5	match	parader	5	1	p	0.54837
288.29929999999996	0.2	pjf	30	verb	list	1	6	match	parader	5	1	p	0.54837
288.4993	0.0	+	30	verb	list	1	7	match	parader	5	1	p	0.54837
288.8992	0.2	bfzr	30	verb	list	1	8	match	parader	5	1	p	0.54837
289.0992	0.0	+	30	verb	list	1	9	match	parader	5	1	p	0.54837
289.4992	0.2	parader	30	verb	list	1	10	match	parader	5	1	p	0.54837
289.69919999999996	0.0	+	30	verb	list	1	11	match	parader	5	1	p	0.54837
290.09909999999996	0.0	+	30	verb	list	1	12	match	parader	5	1	p	0.54837
292.099	0.0	PARADER	30	verb	list	1	13	match	parader	5	1	p	0.54837
292.7156	0.0	+	30	verb	list	1	14	match	parader	5	1	p	0.54837
292.6474	0.0	[response]	30	verb	list	1	15	match	parader	5	1	p	0.54837
294.49879999999996	0.0	+	31	noun	list	1	1	match	tablier	5	1	p	0.75887
295.04879999999997	0.2	kmrjc	31	noun	list	1	2	match	tablier	5	1	p	0.75887
295.24879999999996	0.0	+	31	noun	list	1	3	match	tablier	5	1	p	0.75887
295.64869999999996	0.2	cxg	31	noun	list	1	4	match	tablier	5	1	p	0.75887
295.8487	0.0	+	31	noun	list	1	5	match	tablier	5	1	p	0.75887
296.2487	0.2	dljz	31	noun	list	1	6	match	tablier	5	1	p	0.75887
296.4487	0.0	+	31	noun	list	1	7	match	tablier	5	1	p	0.75887
296.8486	0.2	mtlhd	31	noun	list	1	8	match	tablier	5	1	p	0.75887
297.04859999999996	0.0	+	31	noun	list	1	9	match	tablier	5	1	p	0.75887
297.4486	0.2	tablier	31	noun	list	1	10	match	tablier	5	1	p	0.75887
297.6486	0.0	+	31	noun	list	1	11	match	tablier	5	1	p	0.75887
298.0485	0.0	+	31	noun	list	1	12	match	tablier	5	1	p	0.75887
300.04839999999996	0.0	TABLIER	31	noun	list	1	13	match	tablier	5	1	p	0.75887
300.865	0.0	+	31	noun	list	1	14	match	tablier	5	1	p	0.75887
300.8072	0.0	[response]	31	noun	list	1	15	match	tablier	5	1	p	0.75887
302.4482	0.0	+	32	verb	list	1	1	match	chasser	5	1	p	0.63568
302.9982	0.2	nxcglkv	32	verb	list	1	2	match	chasser	5	1	p	0.63568
303.19809999999995	0.0	+	32	verb	list	1	3	match	chasser	5	1	p	0.63568
303.5981	0.2	bclj	32	verb	list	1	4	match	chasser	5	1	p	0.63568
303.7981	0.0	+	32	verb	list	1	5	match	chasser	5	1	p	0.63568
304.19809999999995	0.2	vzq	32	verb	list	1	6	match	chasser	5	1	p	0.63568
304.39799999999997	0.0	+	32	verb	list	1	7	match	chasser	5	1	p	0.63568
304.798	0.2	xlgc	32	verb	list	1	8	match	chasser	5	1	p	0.63568
304.998	0.0	+	32	verb	list	1	9	match	chasser	5	1	p	0.63568
305.39799999999997	0.2	chasser	32	verb	list	1	10	match	chasser	5	1	p	0.63568
305.59799999999996	0.0	+	32	verb	list	1	11	match	chasser	5	1	p	0.63568
305.99789999999996	0.0	+	32	verb	list	1	12	match	chasser	5	1	p	0.63568
307.9978	0.0	CHASSER	32	verb	list	1	13	match	chasser	5	1	p	0.63568
308.6977	0.0	+	32	verb	list	1	14	match	chasser	5	1	p	0.63568
308.6334	0.0	[response]	32	verb	list	1	15	match	chasser	5	1	p	0.63568
310.39759999999995	0.0	+	33	noun	list	3	1	nomatch	mon	-1	1	y	0.81977
310.9475	0.2	plqr	33	noun	list	3	2	nomatch	mon	-1	1	y	0.81977
311.1475	0.0	+	33	noun	list	3	3	nomatch	mon	-1	1	y	0.81977
311.54749999999996	0.2	cxg	33	noun	list	3	4	nomatch	mon	-1	1	y	0.81977
311.7475	0.0	+	33	noun	list	3	5	nomatch	mon	-1	1	y	0.81977
312.1475	0.2	son	33	noun	list	3	6	nomatch	mon	-1	1	y	0.81977
312.3474	0.0	+	33	noun	list	3	7	nomatch	mon	-1	1	y	0.81977
312.74739999999997	0.2	trop	33	noun	list	3	8	nomatch	mon	-1	1	y	0.81977
312.94739999999996	0.0	+	33	noun	list	3	9	nomatch	mon	-1	1	y	0.81977
313.3474	0.2	rocher	33	noun	list	3	10	nomatch	mon	-1	1	y	0.81977
313.5473	0.0	+	33	noun	list	3	11	nomatch	mon	-1	1	y	0.81977
313.9473	0.0	+	33	noun	list	3	12	nomatch	mon	-1	1	y	0.81977
315.9472	0.0	MON	33	noun	list	3	13	nomatch	mon	-1	1	y	0.81977
316.8304	0.0	+	33	noun	list	3	14	nomatch	mon	-1	1	y	0.81977
316.76689999999996	0.0	[response]	33	noun	list	3	15	nomatch	mon	-1	1	y	0.81977
318.347	0.0	+	34	verb	phrase	3	1	match	va	3	1	p	0.83248
318.89689999999996	0.2	zbtd	34	verb	phrase	3	2	match	va	3	1	p	0.83248
319.0969	0.0	+	34	verb	phrase	3	3	match	va	3	1	p	0.83248
319.4969	0.2	ljxk	34	verb	phrase	3	4	match	va	3	1	p	0.83248
319.69689999999997	0.0	+	34	verb	phrase	3	5	match	va	3	1	p	0.83248
320.0968	0.2	va	34	verb	phrase	3	6	match	va	3	1	p	0.83248
320.29679999999996	0.0	+	34	verb	phrase	3	7	match	va	3	1	p	0.83248
320.6968	0.2	mieux	34	verb	phrase	3	8	match	va	3	1	p	0.83248
320.8968	0.0	+	34	verb	phrase	3	9	match	va	3	1	p	0.83248
321.29679999999996	0.2	jongler	34	verb	phrase	3	10	match	va	3	1	p	0.83248
321.4967	0.0	+	34	verb	phrase	3	11	match	va	3	1	p	0.83248
321.8967	0.0	+	34	verb	phrase	3	12	match	va	3	1	p	0.83248
323.8966	0.0	VA	34	verb	phrase	3	13	match	va	3	1	p	0.83248
324.7965	0.0	+	34	verb	phrase	3	14	match	va	3	1	p	0.83248
324.729	0.0	[response]	34	verb	phrase	3	15	match	va	3	1	p	0.83248
326.2964	0.0	+	35	noun	phrase	4	1	match	nouveau	4	1	p	0.6792100000000001
326.8463	0.2	fgwb	35	noun	phrase	4	2	match	nouveau	4	1	p	0.6792100000000001
327.0463	0.0	+	35	noun	phrase	4	3	match	nouveau	4	1	p	0.6792100000000001
327.4463	0.2	dans	35	noun	phrase	4	4	match	nouveau	4	1	p	0.6792100000000001
327.6463	0.0	+	35	noun	phrase	4	5	match	nouveau	4	1	p	0.6792100000000001
328.0462	0.2	son	35	noun	phrase	4	6	match	nouveau	4	1	p	0.6792100000000001
328.2462	0.0	+	35	noun	phrase	4	7	match	nouveau	4	1	p	0.6792100000000001
328.64619999999996	0.2	nouveau	35	noun	phrase	4	8	match	nouveau	4	1	p	0.6792100000000001
328.84619999999995	0.0	+	35	noun	phrase	4	9	match	nouveau	4	1	p	0.6792100000000001
329.24609999999996	0.2	voilier	35	noun	phrase	4	10	match	nouveau	4	1	p	0.6792100000000001
329.4461	0.0	+	35	noun	phrase	4	11	match	nouveau	4	1	p	0.6792100000000001
329.8461	0.0	+	35	noun	phrase	4	12	match	nouveau	4	1	p	0.6792100000000001
331.8459	0.0	NOUVEAU	35	noun	phrase	4	13	match	nouveau	4	1	p	0.6792100000000001
332.57919999999996	0.0	+	35	noun	phrase	4	14	match	nouveau	4	1	p	0.6792100000000001
332.5252	0.0	[response]	35	noun	phrase	4	15	match	nouveau	4	1	p	0.6792100000000001
334.2458	0.0	+	36	noun	list	3	1	nomatch	grand	-1	1	y	0.65381
334.79569999999995	0.2	dhn	36	noun	list	3	2	nomatch	grand	-1	1	y	0.65381
334.9957	0.0	+	36	noun	list	3	3	nomatch	grand	-1	1	y	0.65381
335.3957	0.2	lfnt	36	noun	list	3	4	nomatch	grand	-1	1	y	0.65381
335.59569999999997	0.0	+	36	noun	list	3	5	nomatch	grand	-1	1	y	0.65381
335.99559999999997	0.2	doit	36	noun	list	3	6	nomatch	grand	-1	1	y	0.65381
336.19559999999996	0.0	+	36	noun	list	3	7	nomatch	grand	-1	1	y	0.65381
336.5956	0.2	casier	36	noun	list	3	8	nomatch	grand	-1	1	y	0.65381
336.7956	0.0	+	36	noun	list	3	9	nomatch	grand	-1	1	y	0.65381
337.1955	0.2	tôt	36	noun	list	3	10	nomatch	grand	-1	1	y	0.65381
337.39549999999997	0.0	+	36	noun	list	3	11	nomatch	grand	-1	1	y	0.65381
337.7955	0.0	+	36	noun	list	3	12	nomatch	grand	-1	1	y	0.65381
339.7953	0.0	GRAND	36	noun	list	3	13	nomatch	grand	-1	1	y	0.65381
340.51189999999997	0.0	+	36	noun	list	3	14	nomatch	grand	-1	1	y	0.65381
340.4491	0.0	[response]	36	noun	list	3	15	nomatch	grand	-1	1	y	0.65381
342.19509999999997	0.0	+	37	noun	list	4	1	nomatch	vert	-1	1	y	0.65225
342.7451	0.2	znqvblh	37	noun	list	4	2	nomatch	vert	-1	1	y	0.65225
342.94509999999997	0.0	+	37	noun	list	4	3	nomatch	vert	-1	1	y	0.65225
343.3451	0.2	jade	37	noun	list	4	4	nomatch	vert	-1	1	y	0.65225
343.54499999999996	0.0	+	37	noun	list	4	5	nomatch	vert	-1	1	y	0.65225
343.945	0.2	leur	37	noun	list	4	6	nomatch	vert	-1	1	y	0.65225
344.145	0.0	+	37	noun	list	4	7	nomatch	vert	-1	1	y	0.65225
344.54499999999996	0.2	trop	37	noun	list	4	8	nomatch	vert	-1	1	y	0.65225
344.745	0.0	+	37	noun	list	4	9	nomatch	vert	-1	1	y	0.65225
345.1449	0.2	voilier	37	noun	list	4	10	nomatch	vert	-1	1	y	0.65225
345.3449	0.0	+	37	noun	list	4	11	nomatch	vert	-1	1	y	0.65225
345.7449	0.0	+	37	noun	list	4	12	nomatch	vert	-1	1	y	0.65225
347.74469999999997	0.0	VERT	37	noun	list	4	13	nomatch	vert	-1	1	y	0.65225
348.4613	0.0	+	37	noun	list	4	14	nomatch	vert	-1	1	y	0.65225
348.397	0.0	[response]	37	noun	list	4	15	nomatch	vert	-1	1	y	0.65225
350.1445	0.0	+	38	noun	phrase	1	1	nomatch	voyager	-1	1	y	0.76894
350.6945	0.2	jngt	38	noun	phrase	1	2	nomatch	voyager	-1	1	y	0.76894
350.8945	0.0	+	38	noun	phrase	1	3	nomatch	voyager	-1	1	y	0.76894
351.2944	0.2	xhls	38	noun	phrase	1	4	nomatch	voyager	-1	1	y	0.76894
351.4944	0.0	+	38	noun	phrase	1	5	nomatch	voyager	-1	1	y	0.76894
351.89439999999996	0.2	dljz	38	noun	phrase	1	6	nomatch	voyager	-1	1	y	0.76894
352.0944	0.0	+	38	noun	phrase	1	7	nomatch	voyager	-1	1	y	0.76894
352.4944	0.2	sxfrc	38	noun	phrase	1	8	nomatch	voyager	-1	1	y	0.76894
352.6943	0.0	+	38	noun	phrase	1	9	nomatch	voyager	-1	1	y	0.76894
353.0943	0.2	casier	38	noun	phrase	1	10	nomatch	voyager	-1	1	y	0.76894
353.29429999999996	0.0	+	38	noun	phrase	1	11	nomatch	voyager	-1	1	y	0.76894
353.6943	0.0	+	38	noun	phrase	1	12	nomatch	voyager	-1	1	y	0.76894
355.6941	0.0	VOYAGER	38	noun	phrase	1	13	nomatch	voyager	-1	1	y	0.76894
356.5274	0.0	+	38	noun	phrase	1	14	nomatch	voyager	-1	1	y	0.76894
356.46299999999997	0.0	[response]	38	noun	phrase	1	15	nomatch	voyager	-1	1	y	0.76894
358.09389999999996	0.0	+	39	noun	phrase	2	1	match	rocher	4	1	p	0.84711
358.6439	0.2	tzjw	39	noun	phrase	2	2	match	rocher	4	1	p	0.84711
358.84389999999996	0.0	+	39	noun	phrase	2	3	match	rocher	4	1	p	0.84711
359.24379999999996	0.2	bjsm	39	noun	phrase	2	4	match	rocher	4	1	p	0.84711
359.4438	0.0	+	39	noun	phrase	2	5	match	rocher	4	1	p	0.84711
359.8438	0.2	pjf	39	noun	phrase	2	6	match	rocher	4	1	p	0.84711
360.0438	0.0	+	39	noun	phrase	2	7	match	rocher	4	1	p	0.84711
360.4437	0.2	rocher	39	noun	phrase	2	8	match	rocher	4	1	p	0.84711
360.64369999999997	0.0	+	39	noun	phrase	2	9	match	rocher	4	1	p	0.84711
361.0437	0.2	vert	39	noun	phrase	2	10	match	rocher	4	1	p	0.84711
361.2437	0.0	+	39	noun	phrase	2	11	match	rocher	4	1	p	0.84711
361.64369999999997	0.0	+	39	noun	phrase	2	12	match	rocher	4	1	p	0.84711
363.64349999999996	0.0	ROCHER	39	noun	phrase	2	13	match	rocher	4	1	p	0.84711
364.5601	0.0	+	39	noun	phrase	2	14	match	rocher	4	1	p	0.84711
364.4906	0.0	[response]	39	noun	phrase	2	15	match	rocher	4	1	p	0.84711
366.0433	0.0	+	40	noun	list	3	1	nomatch	beaucoup	-1	1	y	0.7575000000000001
366.5933	0.2	fbmjrp	40	noun	list	3	2	nomatch	beaucoup	-1	1	y	0.7575000000000001
366.7933	0.0	+	40	noun	list	3	3	nomatch	beaucoup	-1	1	y	0.7575000000000001
367.1932	0.2	ljxk	40	noun	list	3	4	nomatch	beaucoup	-1	1	y	0.7575000000000001
367.3932	0.0	+	40	noun	list	3	5	nomatch	beaucoup	-1	1	y	0.7575000000000001
367.79319999999996	0.2	mon	40	noun	list	3	6	nomatch	beaucoup	-1	1	y	0.7575000000000001
367.9932	0.0	+	40	noun	list	3	7	nomatch	beaucoup	-1	1	y	0.7575000000000001
368.3931	0.2	plus	40	noun	list	3	8	nomatch	beaucoup	-1	1	y	0.7575000000000001
368.5931	0.0	+	40	noun	list	3	9	nomatch	beaucoup	-1	1	y	0.7575000000000001
368.99309999999997	0.2	tablier	40	noun	list	3	10	nomatch	beaucoup	-1	1	y	0.7575000000000001
369.19309999999996	0.0	+	40	noun	list	3	11	nomatch	beaucoup	-1	1	y	0.7575000000000001
369.59299999999996	0.0	+	40	noun	list	3	12	nomatch	beaucoup	-1	1	y	0.7575000000000001
371.5929	0.0	BEAUCOUP	40	noun	list	3	13	nomatch	beaucoup	-1	1	y	0.7575000000000001
372.4095	0.0	+	40	noun	list	3	14	nomatch	beaucoup	-1	1	y	0.7575000000000001
372.35040000000004	0.0	[response]	40	noun	list	3	15	nomatch	beaucoup	-1	1	y	0.7575000000000001
373.99269999999996	0.0	+	41	noun	phrase	1	1	match	rouge	5	1	p	0.52248
374.54269999999997	0.2	klcn	41	noun	phrase	1	2	match	rouge	5	1	p	0.52248
374.7426	0.0	+	41	noun	phrase	1	3	match	rouge	5	1	p	0.52248
375.14259999999996	0.2	bjsm	41	noun	phrase	1	4	match	rouge	5	1	p	0.52248
375.3426	0.0	+	41	noun	phrase	1	5	match	rouge	5	1	p	0.52248
375.7426	0.2	vzq	41	noun	phrase	1	6	match	rouge	5	1	p	0.52248
375.94259999999997	0.0	+	41	noun	phrase	1	7	match	rouge	5	1	p	0.52248
376.3425	0.2	pnjtbg	41	noun	phrase	1	8	match	rouge	5	1	p	0.52248
376.54249999999996	0.0	+	41	noun	phrase	1	9	match	rouge	5	1	p	0.52248
376.9425	0.2	rouge	41	noun	phrase	1	10	match	rouge	5	1	p	0.52248
377.1425	0.0	+	41	noun	phrase	1	11	match	rouge	5	1	p	0.52248
377.5424	0.0	+	41	noun	phrase	1	12	match	rouge	5	1	p	0.52248
379.54229999999995	0.0	ROUGE	41	noun	phrase	1	13	match	rouge	5	1	p	0.52248
380.12559999999996	0.0	+	41	noun	phrase	1	14	match	rouge	5	1	p	0.52248
380.0648	0.0	[response]	41	noun	phrase	1	15	match	rouge	5	1	p	0.52248
381.9421	0.0	+	42	verb	list	1	1	nomatch	jade	-1	1	y	1.0504000000000002
382.4921	0.2	bxqt	42	verb	list	1	2	nomatch	jade	-1	1	y	1.0504000000000002
382.692	0.0	+	42	verb	list	1	3	nomatch	jade	-1	1	y	1.0504000000000002
383.092	0.2	phxz	42	verb	list	1	4	nomatch	jade	-1	1	y	1.0504000000000002
383.292	0.0	+	42	verb	list	1	5	nomatch	jade	-1	1	y	1.0504000000000002
383.692	0.2	gxvf	42	verb	list	1	6	nomatch	jade	-1	1	y	1.0504000000000002
383.89189999999996	0.0	+	42	verb	list	1	7	nomatch	jade	-1	1	y	1.0504000000000002
384.2919	0.2	hmdvrlb	42	verb	list	1	8	nomatch	jade	-1	1	y	1.0504000000000002
384.4919	0.0	+	42	verb	list	1	9	nomatch	jade	-1	1	y	1.0504000000000002
384.89189999999996	0.2	rouler	42	verb	list	1	10	nomatch	jade	-1	1	y	1.0504000000000002
385.0919	0.0	+	42	verb	list	1	11	nomatch	jade	-1	1	y	1.0504000000000002
385.49179999999996	0.0	+	42	verb	list	1	12	nomatch	jade	-1	1	y	1.0504000000000002
387.4917	0.0	JADE	42	verb	list	1	13	nomatch	jade	-1	1	y	1.0504000000000002
388.60819999999995	0.0	+	42	verb	list	1	14	nomatch	jade	-1	1	y	1.0504000000000002
388.542	0.0	[response]	42	verb	list	1	15	nomatch	jade	-1	1	y	1.0504000000000002
389.8915	0.0	+	43	noun	phrase	2	1	match	boîtier	5	1	p	0.67558
390.4414	0.2	gqc	43	noun	phrase	2	2	match	boîtier	5	1	p	0.67558
390.6414	0.0	+	43	noun	phrase	2	3	match	boîtier	5	1	p	0.67558
391.0414	0.2	lfnt	43	noun	phrase	2	4	match	boîtier	5	1	p	0.67558
391.2414	0.0	+	43	noun	phrase	2	5	match	boîtier	5	1	p	0.67558
391.6414	0.2	dljz	43	noun	phrase	2	6	match	boîtier	5	1	p	0.67558
391.8413	0.0	+	43	noun	phrase	2	7	match	boîtier	5	1	p	0.67558
392.24129999999997	0.2	beau	43	noun	phrase	2	8	match	boîtier	5	1	p	0.67558
392.44129999999996	0.0	+	43	noun	phrase	2	9	match	boîtier	5	1	p	0.67558
392.8413	0.2	boîtier	43	noun	phrase	2	10	match	boîtier	5	1	p	0.67558
393.0412	0.0	+	43	noun	phrase	2	11	match	boîtier	5	1	p	0.67558
393.4412	0.0	+	43	noun	phrase	2	12	match	boîtier	5	1	p	0.67558
395.4411	0.0	BOÎTIER	43	noun	phrase	2	13	match	boîtier	5	1	p	0.67558
396.17429999999996	0.0	+	43	noun	phrase	2	14	match	boîtier	5	1	p	0.67558
396.1166	0.0	[response]	43	noun	phrase	2	15	match	boîtier	5	1	p	0.67558
397.8409	0.0	+	44	verb	list	1	1	nomatch	patiner	-1	1	y	0.6060100000000002
398.39079999999996	0.2	ztfcbw	44	verb	list	1	2	nomatch	patiner	-1	1	y	0.6060100000000002
398.5908	0.0	+	44	verb	list	1	3	nomatch	patiner	-1	1	y	0.6060100000000002
398.9908	0.2	gscb	44	verb	list	1	4	nomatch	patiner	-1	1	y	0.6060100000000002
399.19079999999997	0.0	+	44	verb	list	1	5	nomatch	patiner	-1	1	y	0.6060100000000002
399.59069999999997	0.2	zmpt	44	verb	list	1	6	nomatch	patiner	-1	1	y	0.6060100000000002
399.79069999999996	0.0	+	44	verb	list	1	7	nomatch	patiner	-1	1	y	0.6060100000000002
400.1907	0.2	vcbxj	44	verb	list	1	8	nomatch	patiner	-1	1	y	0.6060100000000002
400.3907	0.0	+	44	verb	list	1	9	nomatch	patiner	-1	1	y	0.6060100000000002
400.79069999999996	0.2	chasser	44	verb	list	1	10	nomatch	patiner	-1	1	y	0.6060100000000002
400.9906	0.0	+	44	verb	list	1	11	nomatch	patiner	-1	1	y	0.6060100000000002
401.3906	0.0	+	44	verb	list	1	12	nomatch	patiner	-1	1	y	0.6060100000000002
403.3905	0.0	PATINER	44	verb	list	1	13	nomatch	patiner	-1	1	y	0.6060100000000002
404.0571	0.0	+	44	verb	list	1	14	nomatch	patiner	-1	1	y	0.6060100000000002
403.99649999999997	0.0	[response]	44	verb	list	1	15	nomatch	patiner	-1	1	y	0.6060100000000002
405.7903	0.0	+	45	verb	list	4	1	match	bleu	5	0	y	0.93047
406.3402	0.2	drfbx	45	verb	list	4	2	match	bleu	5	0	y	0.93047
406.54019999999997	0.0	+	45	verb	list	4	3	match	bleu	5	0	y	0.93047
406.9402	0.2	paul	45	verb	list	4	4	match	bleu	5	0	y	0.93047
407.1402	0.0	+	45	verb	list	4	5	match	bleu	5	0	y	0.93047
407.5401	0.2	son	45	verb	list	4	6	match	bleu	5	0	y	0.93047
407.7401	0.0	+	45	verb	list	4	7	match	bleu	5	0	y	0.93047
408.14009999999996	0.2	jongler	45	verb	list	4	8	match	bleu	5	0	y	0.93047
408.3401	0.0	+	45	verb	list	4	9	match	bleu	5	0	y	0.93047
408.74	0.2	bleu	45	verb	list	4	10	match	bleu	5	0	y	0.93047
408.94	0.0	+	45	verb	list	4	11	match	bleu	5	0	y	0.93047
409.34	0.0	+	45	verb	list	4	12	match	bleu	5	0	y	0.93047
411.33979999999997	0.0	BLEU	45	verb	list	4	13	match	bleu	5	0	y	0.93047
412.33979999999997	0.0	+	45	verb	list	4	14	match	bleu	5	0	y	0.93047
412.27029999999996	0.0	[response]	45	verb	list	4	15	match	bleu	5	0	y	0.93047
413.7396	0.0	+	46	noun	list	4	1	match	rocher	4	1	p	0.6333
414.2896	0.2	hxm	46	noun	list	4	2	match	rocher	4	1	p	0.6333
414.4896	0.0	+	46	noun	list	4	3	match	rocher	4	1	p	0.6333
414.8896	0.2	pour	46	noun	list	4	4	match	rocher	4	1	p	0.6333
415.08959999999996	0.0	+	46	noun	list	4	5	match	rocher	4	1	p	0.6333
415.48949999999996	0.2	doit	46	noun	list	4	6	match	rocher	4	1	p	0.6333
415.6895	0.0	+	46	noun	list	4	7	match	rocher	4	1	p	0.6333
416.0895	0.2	rocher	46	noun	list	4	8	match	rocher	4	1	p	0.6333
416.2895	0.0	+	46	noun	list	4	9	match	rocher	4	1	p	0.6333
416.6894	0.2	tard	46	noun	list	4	10	match	rocher	4	1	p	0.6333
416.88939999999997	0.0	+	46	noun	list	4	11	match	rocher	4	1	p	0.6333
417.2894	0.0	+	46	noun	list	4	12	match	rocher	4	1	p	0.6333
419.2892	0.0	ROCHER	46	noun	list	4	13	match	rocher	4	1	p	0.6333
419.9892	0.0	+	46	noun	list	4	14	match	rocher	4	1	p	0.6333
419.9225	0.0	[response]	46	noun	list	4	15	match	rocher	4	1	p	0.6333
421.68899999999996	0.0	+	47	verb	phrase	1	1	nomatch	son	-1	1	y	0.68374
422.239	0.2	ntkqdw	47	verb	phrase	1	2	nomatch	son	-1	1	y	0.68374
422.43899999999996	0.0	+	47	verb	phrase	1	3	nomatch	son	-1	1	y	0.68374
422.839	0.2	jgvm	47	verb	phrase	1	4	nomatch	son	-1	1	y	0.68374
423.03889999999996	0.0	+	47	verb	phrase	1	5	nomatch	son	-1	1	y	0.68374
423.4389	0.2	xv	47	verb	phrase	1	6	nomatch	son	-1	1	y	0.68374
423.6389	0.0	+	47	verb	phrase	1	7	nomatch	son	-1	1	y	0.68374
424.03889999999996	0.2	fkmv	47	verb	phrase	1	8	nomatch	son	-1	1	y	0.68374
424.2389	0.0	+	47	verb	phrase	1	9	nomatch	son	-1	1	y	0.68374
424.6388	0.2	chasser	47	verb	phrase	1	10	nomatch	son	-1	1	y	0.68374
424.8388	0.0	+	47	verb	phrase	1	11	nomatch	son	-1	1	y	0.68374
425.23879999999997	0.0	+	47	verb	phrase	1	12	nomatch	son	-1	1	y	0.68374
427.23859999999996	0.0	SON	47	verb	phrase	1	13	nomatch	son	-1	1	y	0.68374
427.98859999999996	0.0	+	47	verb	phrase	1	14	nomatch	son	-1	1	y	0.68374
427.92240000000004	0.0	[response]	47	verb	phrase	1	15	nomatch	son	-1	1	y	0.68374
429.6384	0.0	+	48	verb	list	1	1	match	rouge	5	1	p	0.6025
430.1884	0.2	bgvjsd	48	verb	list	1	2	match	rouge	5	1	p	0.6025
430.3884	0.0	+	48	verb	list	1	3	match	rouge	5	1	p	0.6025
430.78839999999997	0.2	kvgl	48	verb	list	1	4	match	rouge	5	1	p	0.6025
430.9883	0.0	+	48	verb	list	1	5	match	rouge	5	1	p	0.6025
431.38829999999996	0.2	pjf	48	verb	list	1	6	match	rouge	5	1	p	0.6025
431.5883	0.0	+	48	verb	list	1	7	match	rouge	5	1	p	0.6025
431.9883	0.2	wnfgmvj	48	verb	list	1	8	match	rouge	5	1	p	0.6025
432.1882	0.0	+	48	verb	list	1	9	match	rouge	5	1	p	0.6025
432.5882	0.2	rouge	48	verb	list	1	10	match	rouge	5	1	p	0.6025
432.78819999999996	0.0	+	48	verb	list	1	11	match	rouge	5	1	p	0.6025
433.1882	0.0	+	48	verb	list	1	12	match	rouge	5	1	p	0.6025
435.188	0.0	ROUGE	48	verb	list	1	13	match	rouge	5	1	p	0.6025
435.8546	0.0	+	48	verb	list	1	14	match	rouge	5	1	p	0.6025
435.7905	0.0	[response]	48	verb	list	1	15	match	rouge	5	1	p	0.6025
437.58779999999996	0.0	+	49	verb	list	3	1	match	galoper	5	1	p	0.5847900000000001
438.13779999999997	0.2	gfkx	49	verb	list	3	2	match	galoper	5	1	p	0.5847900000000001
438.33779999999996	0.0	+	49	verb	list	3	3	match	galoper	5	1	p	0.5847900000000001
438.73769999999996	0.2	gscb	49	verb	list	3	4	match	galoper	5	1	p	0.5847900000000001
438.9377	0.0	+	49	verb	list	3	5	match	galoper	5	1	p	0.5847900000000001
439.3377	0.2	doit	49	verb	list	3	6	match	galoper	5	1	p	0.5847900000000001
439.5377	0.0	+	49	verb	list	3	7	match	galoper	5	1	p	0.5847900000000001
439.9376	0.2	vieux	49	verb	list	3	8	match	galoper	5	1	p	0.5847900000000001
440.13759999999996	0.0	+	49	verb	list	3	9	match	galoper	5	1	p	0.5847900000000001
440.5376	0.2	galoper	49	verb	list	3	10	match	galoper	5	1	p	0.5847900000000001
440.7376	0.0	+	49	verb	list	3	11	match	galoper	5	1	p	0.5847900000000001
441.13759999999996	0.0	+	49	verb	list	3	12	match	galoper	5	1	p	0.5847900000000001
443.13739999999996	0.0	GALOPER	49	verb	list	3	13	match	galoper	5	1	p	0.5847900000000001
443.78729999999996	0.0	+	49	verb	list	3	14	match	galoper	5	1	p	0.5847900000000001
443.7222	0.0	[response]	49	verb	list	3	15	match	galoper	5	1	p	0.5847900000000001
453.5366	0.0	+	50	verb	list	3	1	nomatch	sans	-1	1	y	0.7019100000000001
454.0866	0.2	rpzlhg	50	verb	list	3	2	nomatch	sans	-1	1	y	0.7019100000000001
454.28649999999993	0.0	+	50	verb	list	3	3	nomatch	sans	-1	1	y	0.7019100000000001
454.6865	0.2	hmzf	50	verb	list	3	4	nomatch	sans	-1	1	y	0.7019100000000001
454.88649999999996	0.0	+	50	verb	list	3	5	nomatch	sans	-1	1	y	0.7019100000000001
455.28649999999993	0.2	son	50	verb	list	3	6	nomatch	sans	-1	1	y	0.7019100000000001
455.4865	0.0	+	50	verb	list	3	7	nomatch	sans	-1	1	y	0.7019100000000001
455.8864	0.2	jongler	50	verb	list	3	8	nomatch	sans	-1	1	y	0.7019100000000001
456.0864	0.0	+	50	verb	list	3	9	nomatch	sans	-1	1	y	0.7019100000000001
456.4864	0.2	rouge	50	verb	list	3	10	nomatch	sans	-1	1	y	0.7019100000000001
456.68639999999994	0.0	+	50	verb	list	3	11	nomatch	sans	-1	1	y	0.7019100000000001
457.08629999999994	0.0	+	50	verb	list	3	12	nomatch	sans	-1	1	y	0.7019100000000001
459.08619999999996	0.0	SANS	50	verb	list	3	13	nomatch	sans	-1	1	y	0.7019100000000001
459.8528	0.0	+	50	verb	list	3	14	nomatch	sans	-1	1	y	0.7019100000000001
459.7881	0.0	[response]	50	verb	list	3	15	nomatch	sans	-1	1	y	0.7019100000000001
461.486	0.0	+	51	verb	list	1	1	nomatch	trop	-1	1	y	0.61809
462.03599999999994	0.2	jxwmtv	51	verb	list	1	2	nomatch	trop	-1	1	y	0.61809
462.2359	0.0	+	51	verb	list	1	3	nomatch	trop	-1	1	y	0.61809
462.6359	0.2	zvkc	51	verb	list	1	4	nomatch	trop	-1	1	y	0.61809
462.83590000000004	0.0	+	51	verb	list	1	5	nomatch	trop	-1	1	y	0.61809
463.2359	0.2	pjf	51	verb	list	1	6	nomatch	trop	-1	1	y	0.61809
463.4358	0.0	+	51	verb	list	1	7	nomatch	trop	-1	1	y	0.61809
463.83579999999995	0.2	fkjrqdc	51	verb	list	1	8	nomatch	trop	-1	1	y	0.61809
464.0358	0.0	+	51	verb	list	1	9	nomatch	trop	-1	1	y	0.61809
464.4358	0.2	noir	51	verb	list	1	10	nomatch	trop	-1	1	y	0.61809
464.6358	0.0	+	51	verb	list	1	11	nomatch	trop	-1	1	y	0.61809
465.0357	0.0	+	51	verb	list	1	12	nomatch	trop	-1	1	y	0.61809
467.03559999999993	0.0	TROP	51	verb	list	1	13	nomatch	trop	-1	1	y	0.61809
467.7188	0.0	+	51	verb	list	1	14	nomatch	trop	-1	1	y	0.61809
467.65369999999996	0.0	[response]	51	verb	list	1	15	nomatch	trop	-1	1	y	0.61809
477.45140000000004	0.0	+	52	verb	list	4	1	match	voyager	4	1	p	0.6510200000000002
478.0014	0.2	drgktl	52	verb	list	4	2	match	voyager	4	1	p	0.6510200000000002
478.20140000000004	0.0	+	52	verb	list	4	3	match	voyager	4	1	p	0.6510200000000002
478.60130000000004	0.2	marc	52	verb	list	4	4	match	voyager	4	1	p	0.6510200000000002
478.80129999999997	0.0	+	52	verb	list	4	5	match	voyager	4	1	p	0.6510200000000002
479.20129999999995	0.2	mon	52	verb	list	4	6	match	voyager	4	1	p	0.6510200000000002
479.4013	0.0	+	52	verb	list	4	7	match	voyager	4	1	p	0.6510200000000002
479.80129999999997	0.2	voyager	52	verb	list	4	8	match	voyager	4	1	p	0.6510200000000002
480.0011999999999	0.0	+	52	verb	list	4	9	match	voyager	4	1	p	0.6510200000000002
480.4012	0.2	blanc	52	verb	list	4	10	match	voyager	4	1	p	0.6510200000000002
480.60119999999995	0.0	+	52	verb	list	4	11	match	voyager	4	1	p	0.6510200000000002
481.0011999999999	0.0	+	52	verb	list	4	12	match	voyager	4	1	p	0.6510200000000002
483.001	0.0	VOYAGER	52	verb	list	4	13	match	voyager	4	1	p	0.6510200000000002
483.71759999999995	0.0	+	52	verb	list	4	14	match	voyager	4	1	p	0.6510200000000002
483.65200000000004	0.0	[response]	52	verb	list	4	15	match	voyager	4	1	p	0.6510200000000002
485.4008	0.0	+	53	noun	list	3	1	match	sablier	4	1	p	0.72767
485.95079999999996	0.2	lmsr	53	noun	list	3	2	match	sablier	4	1	p	0.72767
486.1508	0.0	+	53	noun	list	3	3	match	sablier	4	1	p	0.72767
486.5507	0.2	xlb	53	noun	list	3	4	match	sablier	4	1	p	0.72767
486.75069999999994	0.0	+	53	noun	list	3	5	match	sablier	4	1	p	0.72767
487.15070000000003	0.2	peut	53	noun	list	3	6	match	sablier	4	1	p	0.72767
487.35069999999996	0.0	+	53	noun	list	3	7	match	sablier	4	1	p	0.72767
487.75059999999996	0.2	sablier	53	noun	list	3	8	match	sablier	4	1	p	0.72767
487.9506	0.0	+	53	noun	list	3	9	match	sablier	4	1	p	0.72767
488.3506	0.2	ainsi	53	noun	list	3	10	match	sablier	4	1	p	0.72767
488.55060000000003	0.0	+	53	noun	list	3	11	match	sablier	4	1	p	0.72767
488.9506	0.0	+	53	noun	list	3	12	match	sablier	4	1	p	0.72767
490.95039999999995	0.0	SABLIER	53	noun	list	3	13	match	sablier	4	1	p	0.72767
491.7337	0.0	+	53	noun	list	3	14	match	sablier	4	1	p	0.72767
491.6781	0.0	[response]	53	noun	list	3	15	match	sablier	4	1	p	0.72767
493.3502	0.0	+	54	verb	list	3	1	match	chasser	5	1	p	0.73588
493.9001999999999	0.2	qsx	54	verb	list	3	2	match	chasser	5	1	p	0.73588
494.1002	0.0	+	54	verb	list	3	3	match	chasser	5	1	p	0.73588
494.5001	0.2	lfnt	54	verb	list	3	4	match	chasser	5	1	p	0.73588
494.7001	0.0	+	54	verb	list	3	5	match	chasser	5	1	p	0.73588
495.1001	0.2	va	54	verb	list	3	6	match	chasser	5	1	p	0.73588
495.30009999999993	0.0	+	54	verb	list	3	7	match	chasser	5	1	p	0.73588
495.69999999999993	0.2	grand	54	verb	list	3	8	match	chasser	5	1	p	0.73588
495.9	0.0	+	54	verb	list	3	9	match	chasser	5	1	p	0.73588
496.29999999999995	0.2	chasser	54	verb	list	3	10	match	chasser	5	1	p	0.73588
496.5	0.0	+	54	verb	list	3	11	match	chasser	5	1	p	0.73588
496.8999	0.0	+	54	verb	list	3	12	match	chasser	5	1	p	0.73588
498.8998	0.0	CHASSER	54	verb	list	3	13	match	chasser	5	1	p	0.73588
499.6997	0.0	+	54	verb	list	3	14	match	chasser	5	1	p	0.73588
499.63569999999993	0.0	[response]	54	verb	list	3	15	match	chasser	5	1	p	0.73588
501.29959999999994	0.0	+	55	verb	list	1	1	nomatch	galoper	-1	1	y	0.64839
501.8496	0.2	hcsgjm	55	verb	list	1	2	nomatch	galoper	-1	1	y	0.64839
502.04949999999997	0.0	+	55	verb	list	1	3	nomatch	galoper	-1	1	y	0.64839
502.44949999999994	0.2	hmzf	55	verb	list	1	4	nomatch	galoper	-1	1	y	0.64839
502.6495	0.0	+	55	verb	list	1	5	nomatch	galoper	-1	1	y	0.64839
503.04949999999997	0.2	pjf	55	verb	list	1	6	nomatch	galoper	-1	1	y	0.64839
503.2495	0.0	+	55	verb	list	1	7	nomatch	galoper	-1	1	y	0.64839
503.6494	0.2	nzprw	55	verb	list	1	8	nomatch	galoper	-1	1	y	0.64839
503.84939999999995	0.0	+	55	verb	list	1	9	nomatch	galoper	-1	1	y	0.64839
504.24940000000004	0.2	patiner	55	verb	list	1	10	nomatch	galoper	-1	1	y	0.64839
504.44939999999997	0.0	+	55	verb	list	1	11	nomatch	galoper	-1	1	y	0.64839
504.84929999999997	0.0	+	55	verb	list	1	12	nomatch	galoper	-1	1	y	0.64839
506.8492	0.0	GALOPER	55	verb	list	1	13	nomatch	galoper	-1	1	y	0.64839
507.56579999999997	0.0	+	55	verb	list	1	14	nomatch	galoper	-1	1	y	0.64839
507.49760000000003	0.0	[response]	55	verb	list	1	15	nomatch	galoper	-1	1	y	0.64839
509.249	0.0	+	56	verb	list	4	1	nomatch	sans	-1	1	y	1.0711
509.799	0.2	kstlhd	56	verb	list	4	2	nomatch	sans	-1	1	y	1.0711
509.99889999999994	0.0	+	56	verb	list	4	3	nomatch	sans	-1	1	y	1.0711
510.3989	0.2	yves	56	verb	list	4	4	nomatch	sans	-1	1	y	1.0711
510.59889999999996	0.0	+	56	verb	list	4	5	nomatch	sans	-1	1	y	1.0711
510.99889999999994	0.2	leur	56	verb	list	4	6	nomatch	sans	-1	1	y	1.0711
511.1988	0.0	+	56	verb	list	4	7	nomatch	sans	-1	1	y	1.0711
511.5988	0.2	chasser	56	verb	list	4	8	nomatch	sans	-1	1	y	1.0711
511.7988	0.0	+	56	verb	list	4	9	nomatch	sans	-1	1	y	1.0711
512.1988	0.2	rouge	56	verb	list	4	10	nomatch	sans	-1	1	y	1.0711
512.3987	0.0	+	56	verb	list	4	11	nomatch	sans	-1	1	y	1.0711
512.7986999999999	0.0	+	56	verb	list	4	12	nomatch	sans	-1	1	y	1.0711
514.7986	0.0	SANS	56	verb	list	4	13	nomatch	sans	-1	1	y	1.0711
515.9318	0.0	+	56	verb	list	4	14	nomatch	sans	-1	1	y	1.0711
515.8697	0.0	[response]	56	verb	list	4	15	nomatch	sans	-1	1	y	1.0711
517.1984	0.0	+	57	verb	phrase	4	1	match	va	3	1	p	0.8456
517.7483	0.2	mxqdkw	57	verb	phrase	4	2	match	va	3	1	p	0.8456
517.9483	0.0	+	57	verb	phrase	4	3	match	va	3	1	p	0.8456
518.3483	0.2	jade	57	verb	phrase	4	4	match	va	3	1	p	0.8456
518.5482999999999	0.0	+	57	verb	phrase	4	5	match	va	3	1	p	0.8456
518.9481999999999	0.2	va	57	verb	phrase	4	6	match	va	3	1	p	0.8456
519.1482	0.0	+	57	verb	phrase	4	7	match	va	3	1	p	0.8456
519.5482	0.2	rouler	57	verb	phrase	4	8	match	va	3	1	p	0.8456
519.7482	0.0	+	57	verb	phrase	4	9	match	va	3	1	p	0.8456
520.1482	0.2	loin	57	verb	phrase	4	10	match	va	3	1	p	0.8456
520.3480999999999	0.0	+	57	verb	phrase	4	11	match	va	3	1	p	0.8456
520.7481	0.0	+	57	verb	phrase	4	12	match	va	3	1	p	0.8456
522.7479999999999	0.0	VA	57	verb	phrase	4	13	match	va	3	1	p	0.8456
523.6478999999999	0.0	+	57	verb	phrase	4	14	match	va	3	1	p	0.8456
523.5936	0.0	[response]	57	verb	phrase	4	15	match	va	3	1	p	0.8456
525.1478	0.0	+	58	verb	list	1	1	nomatch	son	-1	1	y	0.59399
525.6976999999999	0.2	sfdhlt	58	verb	list	1	2	nomatch	son	-1	1	y	0.59399
525.8977	0.0	+	58	verb	list	1	3	nomatch	son	-1	1	y	0.59399
526.2977	0.2	xlb	58	verb	list	1	4	nomatch	son	-1	1	y	0.59399
526.4977	0.0	+	58	verb	list	1	5	nomatch	son	-1	1	y	0.59399
526.8976	0.2	xv	58	verb	list	1	6	nomatch	son	-1	1	y	0.59399
527.0975999999999	0.0	+	58	verb	list	1	7	nomatch	son	-1	1	y	0.59399
527.4976	0.2	ndsvg	58	verb	list	1	8	nomatch	son	-1	1	y	0.59399
527.6976	0.0	+	58	verb	list	1	9	nomatch	son	-1	1	y	0.59399
528.0975	0.2	nouveau	58	verb	list	1	10	nomatch	son	-1	1	y	0.59399
528.2975	0.0	+	58	verb	list	1	11	nomatch	son	-1	1	y	0.59399
528.6975	0.0	+	58	verb	list	1	12	nomatch	son	-1	1	y	0.59399
530.6972999999999	0.0	SON	58	verb	list	1	13	nomatch	son	-1	1	y	0.59399
531.3473	0.0	+	58	verb	list	1	14	nomatch	son	-1	1	y	0.59399
531.2913000000001	0.0	[response]	58	verb	list	1	15	nomatch	son	-1	1	y	0.59399
533.0971999999999	0.0	+	59	verb	phrase	1	1	nomatch	galoper	-1	1	y	0.91856
533.6471	0.2	zxqjdn	59	verb	phrase	1	2	nomatch	galoper	-1	1	y	0.91856
533.8471	0.0	+	59	verb	phrase	1	3	nomatch	galoper	-1	1	y	0.91856
534.2470999999999	0.2	kvgl	59	verb	phrase	1	4	nomatch	galoper	-1	1	y	0.91856
534.4471	0.0	+	59	verb	phrase	1	5	nomatch	galoper	-1	1	y	0.91856
534.847	0.2	zmpt	59	verb	phrase	1	6	nomatch	galoper	-1	1	y	0.91856
535.047	0.0	+	59	verb	phrase	1	7	nomatch	galoper	-1	1	y	0.91856
535.447	0.2	bncmh	59	verb	phrase	1	8	nomatch	galoper	-1	1	y	0.91856
535.6469999999999	0.0	+	59	verb	phrase	1	9	nomatch	galoper	-1	1	y	0.91856
536.0468999999999	0.2	jongler	59	verb	phrase	1	10	nomatch	galoper	-1	1	y	0.91856
536.2469	0.0	+	59	verb	phrase	1	11	nomatch	galoper	-1	1	y	0.91856
536.6469	0.0	+	59	verb	phrase	1	12	nomatch	galoper	-1	1	y	0.91856
538.6467	0.0	GALOPER	59	verb	phrase	1	13	nomatch	galoper	-1	1	y	0.91856
539.63	0.0	+	59	verb	phrase	1	14	nomatch	galoper	-1	1	y	0.91856
539.5653000000001	0.0	[response]	59	verb	phrase	1	15	nomatch	galoper	-1	1	y	0.91856
541.0465	0.0	+	60	noun	list	4	1	nomatch	clavier	-1	1	y	0.69525
541.5965	0.2	zvprnfd	60	noun	list	4	2	nomatch	clavier	-1	1	y	0.69525
541.7965	0.0	+	60	noun	list	4	3	nomatch	clavier	-1	1	y	0.69525
542.1965	0.2	adam	60	noun	list	4	4	nomatch	clavier	-1	1	y	0.69525
542.3964	0.0	+	60	noun	list	4	5	nomatch	clavier	-1	1	y	0.69525
542.7964	0.2	leur	60	noun	list	4	6	nomatch	clavier	-1	1	y	0.69525
542.9964	0.0	+	60	noun	list	4	7	nomatch	clavier	-1	1	y	0.69525
543.3964	0.2	trop	60	noun	list	4	8	nomatch	clavier	-1	1	y	0.69525
543.5964	0.0	+	60	noun	list	4	9	nomatch	clavier	-1	1	y	0.69525
543.9963	0.2	rocher	60	noun	list	4	10	nomatch	clavier	-1	1	y	0.69525
544.1963	0.0	+	60	noun	list	4	11	nomatch	clavier	-1	1	y	0.69525
544.5962999999999	0.0	+	60	noun	list	4	12	nomatch	clavier	-1	1	y	0.69525
546.5961	0.0	CLAVIER	60	noun	list	4	13	nomatch	clavier	-1	1	y	0.69525
547.3461	0.0	+	60	noun	list	4	14	nomatch	clavier	-1	1	y	0.69525
547.2914000000001	0.0	[response]	60	noun	list	4	15	nomatch	clavier	-1	1	y	0.69525
572.9941	0.0	+	61	verb	phrase	2	1	nomatch	jade	-1	1	y	0.63125
573.5441	0.2	jmr	61	verb	phrase	2	2	nomatch	jade	-1	1	y	0.63125
573.744	0.0	+	61	verb	phrase	2	3	nomatch	jade	-1	1	y	0.63125
574.144	0.2	bclj	61	verb	phrase	2	4	nomatch	jade	-1	1	y	0.63125
574.3439999999999	0.0	+	61	verb	phrase	2	5	nomatch	jade	-1	1	y	0.63125
574.744	0.2	xv	61	verb	phrase	2	6	nomatch	jade	-1	1	y	0.63125
574.9439	0.0	+	61	verb	phrase	2	7	nomatch	jade	-1	1	y	0.63125
575.3439	0.2	jongler	61	verb	phrase	2	8	nomatch	jade	-1	1	y	0.63125
575.5439	0.0	+	61	verb	phrase	2	9	nomatch	jade	-1	1	y	0.63125
575.9439	0.2	tôt	61	verb	phrase	2	10	nomatch	jade	-1	1	y	0.63125
576.1439	0.0	+	61	verb	phrase	2	11	nomatch	jade	-1	1	y	0.63125
576.5438	0.0	+	61	verb	phrase	2	12	nomatch	jade	-1	1	y	0.63125
578.5437	0.0	JADE	61	verb	phrase	2	13	nomatch	jade	-1	1	y	0.63125
579.2436	0.0	+	61	verb	phrase	2	14	nomatch	jade	-1	1	y	0.63125
579.1749	0.0	[response]	61	verb	phrase	2	15	nomatch	jade	-1	1	y	0.63125
588.9429	0.0	+	62	noun	phrase	4	1	match	bleu	5	1	p	0.78047
589.4928	0.2	qxcntw	62	noun	phrase	4	2	match	bleu	5	1	p	0.78047
589.6928	0.0	+	62	noun	phrase	4	3	match	bleu	5	1	p	0.78047
590.0928	0.2	pour	62	noun	phrase	4	4	match	bleu	5	1	p	0.78047
590.2927999999999	0.0	+	62	noun	phrase	4	5	match	bleu	5	1	p	0.78047
590.6927	0.2	leur	62	noun	phrase	4	6	match	bleu	5	1	p	0.78047
590.8927	0.0	+	62	noun	phrase	4	7	match	bleu	5	1	p	0.78047
591.2927	0.2	tablier	62	noun	phrase	4	8	match	bleu	5	1	p	0.78047
591.4927	0.0	+	62	noun	phrase	4	9	match	bleu	5	1	p	0.78047
591.8926	0.2	bleu	62	noun	phrase	4	10	match	bleu	5	1	p	0.78047
592.0926	0.0	+	62	noun	phrase	4	11	match	bleu	5	1	p	0.78047
592.4926	0.0	+	62	noun	phrase	4	12	match	bleu	5	1	p	0.78047
594.4924	0.0	BLEU	62	noun	phrase	4	13	match	bleu	5	1	p	0.78047
595.3424	0.0	+	62	noun	phrase	4	14	match	bleu	5	1	p	0.78047
595.2728999999999	0.0	[response]	62	noun	phrase	4	15	match	bleu	5	1	p	0.78047
596.8923	0.0	+	63	verb	list	4	1	nomatch	parader	-1	1	y	0.965
597.4422	0.2	tsk	63	verb	list	4	2	nomatch	parader	-1	1	y	0.965
597.6422	0.0	+	63	verb	list	4	3	nomatch	parader	-1	1	y	0.965
598.0422	0.2	avec	63	verb	list	4	4	nomatch	parader	-1	1	y	0.965
598.2422	0.0	+	63	verb	list	4	5	nomatch	parader	-1	1	y	0.965
598.6421	0.2	doit	63	verb	list	4	6	nomatch	parader	-1	1	y	0.965
598.8421	0.0	+	63	verb	list	4	7	nomatch	parader	-1	1	y	0.965
599.2420999999999	0.2	petit	63	verb	list	4	8	nomatch	parader	-1	1	y	0.965
599.4421	0.0	+	63	verb	list	4	9	nomatch	parader	-1	1	y	0.965
599.842	0.2	galoper	63	verb	list	4	10	nomatch	parader	-1	1	y	0.965
600.042	0.0	+	63	verb	list	4	11	nomatch	parader	-1	1	y	0.965
600.442	0.0	+	63	verb	list	4	12	nomatch	parader	-1	1	y	0.965
602.4418	0.0	PARADER	63	verb	list	4	13	nomatch	parader	-1	1	y	0.965
603.4751	0.0	+	63	verb	list	4	14	nomatch	parader	-1	1	y	0.965
603.4068000000001	0.0	[response]	63	verb	list	4	15	nomatch	parader	-1	1	y	0.965
604.8416	0.0	+	64	verb	list	2	1	nomatch	rocher	-1	1	y	0.7914800000000001
605.3915999999999	0.2	wbjx	64	verb	list	2	2	nomatch	rocher	-1	1	y	0.7914800000000001
605.5916	0.0	+	64	verb	list	2	3	nomatch	rocher	-1	1	y	0.7914800000000001
605.9916	0.2	zvkc	64	verb	list	2	4	nomatch	rocher	-1	1	y	0.7914800000000001
606.1915	0.0	+	64	verb	list	2	5	nomatch	rocher	-1	1	y	0.7914800000000001
606.5915	0.2	vzq	64	verb	list	2	6	nomatch	rocher	-1	1	y	0.7914800000000001
606.7914999999999	0.0	+	64	verb	list	2	7	nomatch	rocher	-1	1	y	0.7914800000000001
607.1915	0.2	patiner	64	verb	list	2	8	nomatch	rocher	-1	1	y	0.7914800000000001
607.3915	0.0	+	64	verb	list	2	9	nomatch	rocher	-1	1	y	0.7914800000000001
607.7914	0.2	rouge	64	verb	list	2	10	nomatch	rocher	-1	1	y	0.7914800000000001
607.9914	0.0	+	64	verb	list	2	11	nomatch	rocher	-1	1	y	0.7914800000000001
608.3914	0.0	+	64	verb	list	2	12	nomatch	rocher	-1	1	y	0.7914800000000001
610.3912	0.0	ROCHER	64	verb	list	2	13	nomatch	rocher	-1	1	y	0.7914800000000001
611.2411999999999	0.0	+	64	verb	list	2	14	nomatch	rocher	-1	1	y	0.7914800000000001
611.1827	0.0	[response]	64	verb	list	2	15	nomatch	rocher	-1	1	y	0.7914800000000001
612.7909999999999	0.0	+	65	verb	phrase	1	1	match	tard	5	1	p	0.52646
613.341	0.2	bpxmn	65	verb	phrase	1	2	match	tard	5	1	p	0.52646
613.5409999999999	0.0	+	65	verb	phrase	1	3	match	tard	5	1	p	0.52646
613.9408999999999	0.2	hmzf	65	verb	phrase	1	4	match	tard	5	1	p	0.52646
614.1409	0.0	+	65	verb	phrase	1	5	match	tard	5	1	p	0.52646
614.5409	0.2	xv	65	verb	phrase	1	6	match	tard	5	1	p	0.52646
614.7409	0.0	+	65	verb	phrase	1	7	match	tard	5	1	p	0.52646
615.1409	0.2	rnxhwcm	65	verb	phrase	1	8	match	tard	5	1	p	0.52646
615.3408	0.0	+	65	verb	phrase	1	9	match	tard	5	1	p	0.52646
615.7408	0.2	tard	65	verb	phrase	1	10	match	tard	5	1	p	0.52646
615.9408	0.0	+	65	verb	phrase	1	11	match	tard	5	1	p	0.52646
616.3408	0.0	+	65	verb	phrase	1	12	match	tard	5	1	p	0.52646
618.3406	0.0	TARD	65	verb	phrase	1	13	match	tard	5	1	p	0.52646
618.9239	0.0	+	65	verb	phrase	1	14	match	tard	5	1	p	0.52646
618.8670999999999	0.0	[response]	65	verb	phrase	1	15	match	tard	5	1	p	0.52646
620.7404	0.0	+	66	verb	phrase	3	1	match	parader	5	1	p	0.77663
621.2904	0.2	dlxwqtp	66	verb	phrase	3	2	match	parader	5	1	p	0.77663
621.4904	0.0	+	66	verb	phrase	3	3	match	parader	5	1	p	0.77663
621.8903	0.2	kvgl	66	verb	phrase	3	4	match	parader	5	1	p	0.77663
622.0903	0.0	+	66	verb	phrase	3	5	match	parader	5	1	p	0.77663
622.4902999999999	0.2	va	66	verb	phrase	3	6	match	parader	5	1	p	0.77663
622.6903	0.0	+	66	verb	phrase	3	7	match	parader	5	1	p	0.77663
623.0902	0.2	moins	66	verb	phrase	3	8	match	parader	5	1	p	0.77663
623.2902	0.0	+	66	verb	phrase	3	9	match	parader	5	1	p	0.77663
623.6902	0.2	parader	66	verb	phrase	3	10	match	parader	5	1	p	0.77663
623.8901999999999	0.0	+	66	verb	phrase	3	11	match	parader	5	1	p	0.77663
624.2902	0.0	+	66	verb	phrase	3	12	match	parader	5	1	p	0.77663
626.29	0.0	PARADER	66	verb	phrase	3	13	match	parader	5	1	p	0.77663
627.1233	0.0	+	66	verb	phrase	3	14	match	parader	5	1	p	0.77663
627.0666	0.0	[response]	66	verb	phrase	3	15	match	parader	5	1	p	0.77663
628.6898	0.0	+	67	verb	phrase	1	1	match	mieux	5	1	p	0.41508
629.2398	0.2	pjdgnh	67	verb	phrase	1	2	match	mieux	5	1	p	0.41508
629.4398	0.0	+	67	verb	phrase	1	3	match	mieux	5	1	p	0.41508
629.8397	0.2	bclj	67	verb	phrase	1	4	match	mieux	5	1	p	0.41508
630.0396999999999	0.0	+	67	verb	phrase	1	5	match	mieux	5	1	p	0.41508
630.4397	0.2	zmpt	67	verb	phrase	1	6	match	mieux	5	1	p	0.41508
630.6397	0.0	+	67	verb	phrase	1	7	match	mieux	5	1	p	0.41508
631.0396	0.2	smcjrf	67	verb	phrase	1	8	match	mieux	5	1	p	0.41508
631.2396	0.0	+	67	verb	phrase	1	9	match	mieux	5	1	p	0.41508
631.6396	0.2	mieux	67	verb	phrase	1	10	match	mieux	5	1	p	0.41508
631.8396	0.0	+	67	verb	phrase	1	11	match	mieux	5	1	p	0.41508
632.2395	0.0	+	67	verb	phrase	1	12	match	mieux	5	1	p	0.41508
634.2393999999999	0.0	MIEUX	67	verb	phrase	1	13	match	mieux	5	1	p	0.41508
634.7227	0.0	+	67	verb	phrase	1	14	match	mieux	5	1	p	0.41508
634.6545	0.0	[response]	67	verb	phrase	1	15	match	mieux	5	1	p	0.41508
636.6392	0.0	+	68	noun	phrase	1	1	nomatch	vite	-1	1	y	0.56368
637.1892	0.2	mjfvz	68	noun	phrase	1	2	nomatch	vite	-1	1	y	0.56368
637.3891	0.0	+	68	noun	phrase	1	3	nomatch	vite	-1	1	y	0.56368
637.7891	0.2	xlb	68	noun	phrase	1	4	nomatch	vite	-1	1	y	0.56368
637.9891	0.0	+	68	noun	phrase	1	5	nomatch	vite	-1	1	y	0.56368
638.3891	0.2	dljz	68	noun	phrase	1	6	nomatch	vite	-1	1	y	0.56368
638.5891	0.0	+	68	noun	phrase	1	7	nomatch	vite	-1	1	y	0.56368
638.989	0.2	bfzr	68	noun	phrase	1	8	nomatch	vite	-1	1	y	0.56368
639.189	0.0	+	68	noun	phrase	1	9	nomatch	vite	-1	1	y	0.56368
639.5889999999999	0.2	tablier	68	noun	phrase	1	10	nomatch	vite	-1	1	y	0.56368
639.789	0.0	+	68	noun	phrase	1	11	nomatch	vite	-1	1	y	0.56368
640.1889	0.0	+	68	noun	phrase	1	12	nomatch	vite	-1	1	y	0.56368
642.1888	0.0	VITE	68	noun	phrase	1	13	nomatch	vite	-1	1	y	0.56368
642.8221	0.0	+	68	noun	phrase	1	14	nomatch	vite	-1	1	y	0.56368
642.7524999999999	0.0	[response]	68	noun	phrase	1	15	nomatch	vite	-1	1	y	0.56368
644.5885999999999	0.0	+	69	verb	list	2	1	match	petit	4	1	p	0.74419
645.1385	0.2	dvtwbh	69	verb	list	2	2	match	petit	4	1	p	0.74419
645.3385	0.0	+	69	verb	list	2	3	match	petit	4	1	p	0.74419
645.7384999999999	0.2	bjsm	69	verb	list	2	4	match	petit	4	1	p	0.74419
645.9385	0.0	+	69	verb	list	2	5	match	petit	4	1	p	0.74419
646.3385	0.2	xv	69	verb	list	2	6	match	petit	4	1	p	0.74419
646.5384	0.0	+	69	verb	list	2	7	match	petit	4	1	p	0.74419
646.9384	0.2	petit	69	verb	list	2	8	match	petit	4	1	p	0.74419
647.1383999999999	0.0	+	69	verb	list	2	9	match	petit	4	1	p	0.74419
647.5384	0.2	chasser	69	verb	list	2	10	match	petit	4	1	p	0.74419
647.7384	0.0	+	69	verb	list	2	11	match	petit	4	1	p	0.74419
648.1383	0.0	+	69	verb	list	2	12	match	petit	4	1	p	0.74419
650.1382	0.0	PETIT	69	verb	list	2	13	match	petit	4	1	p	0.74419
650.9381	0.0	+	69	verb	list	2	14	match	petit	4	1	p	0.74419
650.8824000000001	0.0	[response]	69	verb	list	2	15	match	petit	4	1	p	0.74419
668.5367	0.0	+	70	verb	phrase	3	1	match	doit	3	1	p	0.64806
669.0867	0.2	dkp	70	verb	phrase	3	2	match	doit	3	1	p	0.64806
669.2867	0.0	+	70	verb	phrase	3	3	match	doit	3	1	p	0.64806
669.6867	0.2	hmzf	70	verb	phrase	3	4	match	doit	3	1	p	0.64806
669.8865999999999	0.0	+	70	verb	phrase	3	5	match	doit	3	1	p	0.64806
670.2866	0.2	doit	70	verb	phrase	3	6	match	doit	3	1	p	0.64806
670.4866	0.0	+	70	verb	phrase	3	7	match	doit	3	1	p	0.64806
670.8865999999999	0.2	beaucoup	70	verb	phrase	3	8	match	doit	3	1	p	0.64806
671.0866	0.0	+	70	verb	phrase	3	9	match	doit	3	1	p	0.64806
671.4865	0.2	patiner	70	verb	phrase	3	10	match	doit	3	1	p	0.64806
671.6865	0.0	+	70	verb	phrase	3	11	match	doit	3	1	p	0.64806
672.0865	0.0	+	70	verb	phrase	3	12	match	doit	3	1	p	0.64806
674.0862999999999	0.0	DOIT	70	verb	phrase	3	13	match	doit	3	1	p	0.64806
674.8029	0.0	+	70	verb	phrase	3	14	match	doit	3	1	p	0.64806
674.7343999999999	0.0	[response]	70	verb	phrase	3	15	match	doit	3	1	p	0.64806
676.4861	0.0	+	71	verb	phrase	1	1	match	rouler	5	1	p	0.50812
677.0361	0.2	lxsc	71	verb	phrase	1	2	match	rouler	5	1	p	0.50812
677.2361	0.0	+	71	verb	phrase	1	3	match	rouler	5	1	p	0.50812
677.6360999999999	0.2	kvgl	71	verb	phrase	1	4	match	rouler	5	1	p	0.50812
677.836	0.0	+	71	verb	phrase	1	5	match	rouler	5	1	p	0.50812
678.236	0.2	gxvf	71	verb	phrase	1	6	match	rouler	5	1	p	0.50812
678.436	0.0	+	71	verb	phrase	1	7	match	rouler	5	1	p	0.50812
678.836	0.2	mtlhd	71	verb	phrase	1	8	match	rouler	5	1	p	0.50812
679.0359	0.0	+	71	verb	phrase	1	9	match	rouler	5	1	p	0.50812
679.4359	0.2	rouler	71	verb	phrase	1	10	match	rouler	5	1	p	0.50812
679.6359	0.0	+	71	verb	phrase	1	11	match	rouler	5	1	p	0.50812
680.0359	0.0	+	71	verb	phrase	1	12	match	rouler	5	1	p	0.50812
682.0357	0.0	ROULER	71	verb	phrase	1	13	match	rouler	5	1	p	0.50812
682.6023	0.0	+	71	verb	phrase	1	14	match	rouler	5	1	p	0.50812
682.5438	0.0	[response]	71	verb	phrase	1	15	match	rouler	5	1	p	0.50812
692.4349	0.0	+	72	noun	phrase	2	1	nomatch	casier	-1	1	y	1.1368
692.9848999999999	0.2	wghxmf	72	noun	phrase	2	2	nomatch	casier	-1	1	y	1.1368
693.1849	0.0	+	72	noun	phrase	2	3	nomatch	casier	-1	1	y	1.1368
693.5849	0.2	phxz	72	noun	phrase	2	4	nomatch	casier	-1	1	y	1.1368
693.7848	0.0	+	72	noun	phrase	2	5	nomatch	casier	-1	1	y	1.1368
694.1849	0.2	pjf	72	noun	phrase	2	6	nomatch	casier	-1	1	y	1.1368
694.3847999999999	0.0	+	72	noun	phrase	2	7	nomatch	casier	-1	1	y	1.1368
694.8014	0.2	clavier	72	noun	phrase	2	8	nomatch	casier	-1	1	y	1.1368
695.0014	0.0	+	72	noun	phrase	2	9	nomatch	casier	-1	1	y	1.1368
695.4014	0.2	rouge	72	noun	phrase	2	10	nomatch	casier	-1	1	y	1.1368
695.6013	0.0	+	72	noun	phrase	2	11	nomatch	casier	-1	1	y	1.1368
696.0013	0.0	+	72	noun	phrase	2	12	nomatch	casier	-1	1	y	1.1368
698.0011999999999	0.0	CASIER	72	noun	phrase	2	13	nomatch	casier	-1	1	y	1.1368
699.2011	0.0	+	72	noun	phrase	2	14	nomatch	casier	-1	1	y	1.1368
699.138	0.0	[response]	72	noun	phrase	2	15	nomatch	casier	-1	1	y	1.1368
700.401	0.0	+	73	verb	phrase	1	1	match	tard	5	1	p	0.90697
700.9508999999999	0.2	mlctw	73	verb	phrase	1	2	match	tard	5	1	p	0.90697
701.1509	0.0	+	73	verb	phrase	1	3	match	tard	5	1	p	0.90697
701.5509	0.2	bclj	73	verb	phrase	1	4	match	tard	5	1	p	0.90697
701.7509	0.0	+	73	verb	phrase	1	5	match	tard	5	1	p	0.90697
702.1508	0.2	gxvf	73	verb	phrase	1	6	match	tard	5	1	p	0.90697
702.3507999999999	0.0	+	73	verb	phrase	1	7	match	tard	5	1	p	0.90697
702.7508	0.2	ndsvg	73	verb	phrase	1	8	match	tard	5	1	p	0.90697
702.9508	0.0	+	73	verb	phrase	1	9	match	tard	5	1	p	0.90697
703.3507	0.2	tard	73	verb	phrase	1	10	match	tard	5	1	p	0.90697
703.5507	0.0	+	73	verb	phrase	1	11	match	tard	5	1	p	0.90697
703.9507	0.0	+	73	verb	phrase	1	12	match	tard	5	1	p	0.90697
705.9505	0.0	TARD	73	verb	phrase	1	13	match	tard	5	1	p	0.90697
706.9171	0.0	+	73	verb	phrase	1	14	match	tard	5	1	p	0.90697
706.8575	0.0	[response]	73	verb	phrase	1	15	match	tard	5	1	p	0.90697
708.3503	0.0	+	74	verb	phrase	4	1	match	yves	2	1	p	1.0239
708.9003	0.2	vtg	74	verb	phrase	4	2	match	yves	2	1	p	1.0239
709.1003	0.0	+	74	verb	phrase	4	3	match	yves	2	1	p	1.0239
709.5003	0.2	yves	74	verb	phrase	4	4	match	yves	2	1	p	1.0239
709.7003	0.0	+	74	verb	phrase	4	5	match	yves	2	1	p	1.0239
710.1002	0.2	peut	74	verb	phrase	4	6	match	yves	2	1	p	1.0239
710.3002	0.0	+	74	verb	phrase	4	7	match	yves	2	1	p	1.0239
710.7002	0.2	moins	74	verb	phrase	4	8	match	yves	2	1	p	1.0239
710.9001999999999	0.0	+	74	verb	phrase	4	9	match	yves	2	1	p	1.0239
711.3000999999999	0.2	chasser	74	verb	phrase	4	10	match	yves	2	1	p	1.0239
711.5001	0.0	+	74	verb	phrase	4	11	match	yves	2	1	p	1.0239
711.9001	0.0	+	74	verb	phrase	4	12	match	yves	2	1	p	1.0239
713.8999	0.0	YVES	74	verb	phrase	4	13	match	yves	2	1	p	1.0239
714.9832	0.0	+	74	verb	phrase	4	14	match	yves	2	1	p	1.0239
714.9238	0.0	[response]	74	verb	phrase	4	15	match	yves	2	1	p	1.0239
716.2997	0.0	+	75	verb	phrase	3	1	nomatch	luc	-1	1	y	0.78651
716.8497	0.2	ghvwmxc	75	verb	phrase	3	2	nomatch	luc	-1	1	y	0.78651
717.0497	0.0	+	75	verb	phrase	3	3	nomatch	luc	-1	1	y	0.78651
717.4497	0.2	kvgl	75	verb	phrase	3	4	nomatch	luc	-1	1	y	0.78651
717.6496	0.0	+	75	verb	phrase	3	5	nomatch	luc	-1	1	y	0.78651
718.0495999999999	0.2	doit	75	verb	phrase	3	6	nomatch	luc	-1	1	y	0.78651
718.2496	0.0	+	75	verb	phrase	3	7	nomatch	luc	-1	1	y	0.78651
718.6496	0.2	trop	75	verb	phrase	3	8	nomatch	luc	-1	1	y	0.78651
718.8495	0.0	+	75	verb	phrase	3	9	nomatch	luc	-1	1	y	0.78651
719.2495	0.2	voyager	75	verb	phrase	3	10	nomatch	luc	-1	1	y	0.78651
719.4495	0.0	+	75	verb	phrase	3	11	nomatch	luc	-1	1	y	0.78651
719.8495	0.0	+	75	verb	phrase	3	12	nomatch	luc	-1	1	y	0.78651
721.8493	0.0	LUC	75	verb	phrase	3	13	nomatch	luc	-1	1	y	0.78651
722.6992	0.0	+	75	verb	phrase	3	14	nomatch	luc	-1	1	y	0.78651
722.6358	0.0	[response]	75	verb	phrase	3	15	nomatch	luc	-1	1	y	0.78651
724.2491	0.0	+	76	verb	list	2	1	nomatch	vert	-1	1	y	0.75449
724.7991	0.2	wdvg	76	verb	list	2	2	nomatch	vert	-1	1	y	0.75449
724.9991	0.0	+	76	verb	list	2	3	nomatch	vert	-1	1	y	0.75449
725.399	0.2	hmzf	76	verb	list	2	4	nomatch	vert	-1	1	y	0.75449
725.5989999999999	0.0	+	76	verb	list	2	5	nomatch	vert	-1	1	y	0.75449
725.999	0.2	dljz	76	verb	list	2	6	nomatch	vert	-1	1	y	0.75449
726.199	0.0	+	76	verb	list	2	7	nomatch	vert	-1	1	y	0.75449
726.5989999999999	0.2	jongler	76	verb	list	2	8	nomatch	vert	-1	1	y	0.75449
726.7989	0.0	+	76	verb	list	2	9	nomatch	vert	-1	1	y	0.75449
727.1989	0.2	rouge	76	verb	list	2	10	nomatch	vert	-1	1	y	0.75449
727.3989	0.0	+	76	verb	list	2	11	nomatch	vert	-1	1	y	0.75449
727.7989	0.0	+	76	verb	list	2	12	nomatch	vert	-1	1	y	0.75449
729.7986999999999	0.0	VERT	76	verb	list	2	13	nomatch	vert	-1	1	y	0.75449
730.6152999999999	0.0	+	76	verb	list	2	14	nomatch	vert	-1	1	y	0.75449
730.5532	0.0	[response]	76	verb	list	2	15	nomatch	vert	-1	1	y	0.75449
732.1985	0.0	+	77	verb	phrase	2	1	match	vite	5	1	p	0.62391
732.7485	0.2	gmbfrlz	77	verb	phrase	2	2	match	vite	5	1	p	0.62391
732.9485	0.0	+	77	verb	phrase	2	3	match	vite	5	1	p	0.62391
733.3484	0.2	jgvm	77	verb	phrase	2	4	match	vite	5	1	p	0.62391
733.5484	0.0	+	77	verb	phrase	2	5	match	vite	5	1	p	0.62391
733.9484	0.2	gxvf	77	verb	phrase	2	6	match	vite	5	1	p	0.62391
734.1484	0.0	+	77	verb	phrase	2	7	match	vite	5	1	p	0.62391
734.5482999999999	0.2	chasser	77	verb	phrase	2	8	match	vite	5	1	p	0.62391
734.7483	0.0	+	77	verb	phrase	2	9	match	vite	5	1	p	0.62391
735.1483	0.2	vite	77	verb	phrase	2	10	match	vite	5	1	p	0.62391
735.3483	0.0	+	77	verb	phrase	2	11	match	vite	5	1	p	0.62391
735.7482	0.0	+	77	verb	phrase	2	12	match	vite	5	1	p	0.62391
737.7481	0.0	VITE	77	verb	phrase	2	13	match	vite	5	1	p	0.62391
738.4313999999999	0.0	+	77	verb	phrase	2	14	match	vite	5	1	p	0.62391
738.372	0.0	[response]	77	verb	phrase	2	15	match	vite	5	1	p	0.62391
740.1478999999999	0.0	+	78	verb	phrase	4	1	match	marc	2	1	p	0.90121
740.6979	0.2	rmhjcsq	78	verb	phrase	4	2	match	marc	2	1	p	0.90121
740.8978999999999	0.0	+	78	verb	phrase	4	3	match	marc	2	1	p	0.90121
741.2977999999999	0.2	marc	78	verb	phrase	4	4	match	marc	2	1	p	0.90121
741.4978	0.0	+	78	verb	phrase	4	5	match	marc	2	1	p	0.90121
741.8978	0.2	va	78	verb	phrase	4	6	match	marc	2	1	p	0.90121
742.0978	0.0	+	78	verb	phrase	4	7	match	marc	2	1	p	0.90121
742.4977	0.2	trop	78	verb	phrase	4	8	match	marc	2	1	p	0.90121
742.6976999999999	0.0	+	78	verb	phrase	4	9	match	marc	2	1	p	0.90121
743.0977	0.2	nager	78	verb	phrase	4	10	match	marc	2	1	p	0.90121
743.2977	0.0	+	78	verb	phrase	4	11	match	marc	2	1	p	0.90121
743.6976	0.0	+	78	verb	phrase	4	12	match	marc	2	1	p	0.90121
745.6975	0.0	MARC	78	verb	phrase	4	13	match	marc	2	1	p	0.90121
746.6641	0.0	+	78	verb	phrase	4	14	match	marc	2	1	p	0.90121
746.5987000000001	0.0	[response]	78	verb	phrase	4	15	match	marc	2	1	p	0.90121
748.0973	0.0	+	79	verb	phrase	2	1	match	beaucoup	4	1	p	0.70055
748.6473	0.2	ltbj	79	verb	phrase	2	2	match	beaucoup	4	1	p	0.70055
748.8471999999999	0.0	+	79	verb	phrase	2	3	match	beaucoup	4	1	p	0.70055
749.2472	0.2	hmzf	79	verb	phrase	2	4	match	beaucoup	4	1	p	0.70055
749.4472	0.0	+	79	verb	phrase	2	5	match	beaucoup	4	1	p	0.70055
749.8471999999999	0.2	zmpt	79	verb	phrase	2	6	match	beaucoup	4	1	p	0.70055
750.0471	0.0	+	79	verb	phrase	2	7	match	beaucoup	4	1	p	0.70055
750.4471	0.2	beaucoup	79	verb	phrase	2	8	match	beaucoup	4	1	p	0.70055
750.6471	0.0	+	79	verb	phrase	2	9	match	beaucoup	4	1	p	0.70055
751.0471	0.2	galoper	79	verb	phrase	2	10	match	beaucoup	4	1	p	0.70055
751.2470999999999	0.0	+	79	verb	phrase	2	11	match	beaucoup	4	1	p	0.70055
751.6469999999999	0.0	+	79	verb	phrase	2	12	match	beaucoup	4	1	p	0.70055
753.6469	0.0	BEAUCOUP	79	verb	phrase	2	13	match	beaucoup	4	1	p	0.70055
754.4135	0.0	+	79	verb	phrase	2	14	match	beaucoup	4	1	p	0.70055
754.3474	0.0	[response]	79	verb	phrase	2	15	match	beaucoup	4	1	p	0.70055
756.0467	0.0	+	80	verb	list	2	1	nomatch	avec	-1	1	y	0.81928
756.5966	0.2	dslz	80	verb	list	2	2	nomatch	avec	-1	1	y	0.81928
756.7966	0.0	+	80	verb	list	2	3	nomatch	avec	-1	1	y	0.81928
757.1966	0.2	kvgl	80	verb	list	2	4	nomatch	avec	-1	1	y	0.81928
757.3966	0.0	+	80	verb	list	2	5	nomatch	avec	-1	1	y	0.81928
757.7966	0.2	pjf	80	verb	list	2	6	nomatch	avec	-1	1	y	0.81928
757.9965	0.0	+	80	verb	list	2	7	nomatch	avec	-1	1	y	0.81928
758.3965	0.2	rouler	80	verb	list	2	8	nomatch	avec	-1	1	y	0.81928
758.5965	0.0	+	80	verb	list	2	9	nomatch	avec	-1	1	y	0.81928
758.9965	0.2	noir	80	verb	list	2	10	nomatch	avec	-1	1	y	0.81928
759.1963999999999	0.0	+	80	verb	list	2	11	nomatch	avec	-1	1	y	0.81928
759.5964	0.0	+	80	verb	list	2	12	nomatch	avec	-1	1	y	0.81928
761.5962999999999	0.0	AVEC	80	verb	list	2	13	nomatch	avec	-1	1	y	0.81928
762.4795	0.0	+	80	verb	list	2	14	nomatch	avec	-1	1	y	0.81928
763.9961	0.0	+	80	verb	list	2	15	nomatch	avec	-1	1	y	0.81928
765.0127	0.0	+	80	verb	list	2	16	nomatch	avec	-1	1	y	0.81928
765.1127	0.0	+	80	verb	list	2	17	nomatch	avec	-1	1	y	0.81928
766.5126	0.0	+	80	verb	list	2	18	nomatch	avec	-1	1	y	0.81928
766.6125	0.0	+	80	verb	list	2	19	nomatch	avec	-1	1	y	0.81928
768.0124	0.0	+	80	verb	list	2	20	nomatch	avec	-1	1	y	0.81928
768.1124	0.0	+	80	verb	list	2	21	nomatch	avec	-1	1	y	0.81928
769.5123	0.0	+	80	verb	list	2	22	nomatch	avec	-1	1	y	0.81928
769.6123	0.0	+	80	verb	list	2	23	nomatch	avec	-1	1	y	0.81928
771.0122	0.0	+	80	verb	list	2	24	nomatch	avec	-1	1	y	0.81928
771.1122	0.0	+	80	verb	list	2	25	nomatch	avec	-1	1	y	0.81928
772.5121	0.0	+	80	verb	list	2	26	nomatch	avec	-1	1	y	0.81928
772.6120999999999	0.0	+	80	verb	list	2	27	nomatch	avec	-1	1	y	0.81928
774.012	0.0	+	80	verb	list	2	28	nomatch	avec	-1	1	y	0.81928
774.112	0.0	+	80	verb	list	2	29	nomatch	avec	-1	1	y	0.81928
775.5119	0.0	+	80	verb	list	2	30	nomatch	avec	-1	1	y	0.81928
775.6118	0.0	+	80	verb	list	2	31	nomatch	avec	-1	1	y	0.81928
777.0117	0.0	+	80	verb	list	2	32	nomatch	avec	-1	1	y	0.81928
777.1116999999999	0.0	+	80	verb	list	2	33	nomatch	avec	-1	1	y	0.81928
778.5115999999999	0.0	+	80	verb	list	2	34	nomatch	avec	-1	1	y	0.81928
778.6116	0.0	+	80	verb	list	2	35	nomatch	avec	-1	1	y	0.81928
782.6946	0.0	+	80	verb	list	2	36	nomatch	avec	-1	1	y	0.81928
762.4155	0.0	[response]	80	verb	list	2	37	nomatch	avec	-1	1	y	0.81928
