onset	duration	stim	trial_number	trial_type	trial_structure	trial_length	sequential_position	probe_type	probe	probe_position	response_correct	response_key	response_time
0.061399999999991905	0.0	+	1	noun	list	1	1	nomatch	vite	-1	1	y	1.3517
0.5446999999999917	0.2	mwps	1	noun	list	1	2	nomatch	vite	-1	1	y	1.3517
0.7446999999999946	0.0	+	1	noun	list	1	3	nomatch	vite	-1	1	y	1.3517
1.1447000000000003	0.2	gscb	1	noun	list	1	4	nomatch	vite	-1	1	y	1.3517
1.3445999999999998	0.0	+	1	noun	list	1	5	nomatch	vite	-1	1	y	1.3517
1.7446000000000055	0.2	gxvf	1	noun	list	1	6	nomatch	vite	-1	1	y	1.3517
1.944599999999994	0.0	+	1	noun	list	1	7	nomatch	vite	-1	1	y	1.3517
2.3446	0.2	qnvxflk	1	noun	list	1	8	nomatch	vite	-1	1	y	1.3517
2.5444999999999993	0.0	+	1	noun	list	1	9	nomatch	vite	-1	1	y	1.3517
2.944500000000005	0.2	ainsi	1	noun	list	1	10	nomatch	vite	-1	1	y	1.3517
3.1444999999999936	0.0	+	1	noun	list	1	11	nomatch	vite	-1	1	y	1.3517
3.5444999999999993	0.0	+	1	noun	list	1	12	nomatch	vite	-1	1	y	1.3517
5.544299999999993	0.0	VITE	1	noun	list	1	13	nomatch	vite	-1	1	y	1.3517
6.960899999999995	0.0	+	1	noun	list	1	14	nomatch	vite	-1	1	y	1.3517
6.896000000000001	0.0	[response]	1	noun	list	1	15	nomatch	vite	-1	1	y	1.3517
7.944099999999992	0.0	+	2	noun	phrase	3	1	nomatch	peut	-1	1	y	0.67987
8.494100000000003	0.2	plnrq	2	noun	phrase	3	2	nomatch	peut	-1	1	y	0.67987
8.694099999999992	0.0	+	2	noun	phrase	3	3	nomatch	peut	-1	1	y	0.67987
9.093999999999994	0.2	xlb	2	noun	phrase	3	4	nomatch	peut	-1	1	y	0.67987
9.293999999999997	0.0	+	2	noun	phrase	3	5	nomatch	peut	-1	1	y	0.67987
9.694000000000003	0.2	leur	2	noun	phrase	3	6	nomatch	peut	-1	1	y	0.67987
9.894000000000005	0.0	+	2	noun	phrase	3	7	nomatch	peut	-1	1	y	0.67987
10.293999999999997	0.2	rocher	2	noun	phrase	3	8	nomatch	peut	-1	1	y	0.67987
10.493899999999996	0.0	+	2	noun	phrase	3	9	nomatch	peut	-1	1	y	0.67987
10.893900000000002	0.2	bleu	2	noun	phrase	3	10	nomatch	peut	-1	1	y	0.67987
11.093900000000005	0.0	+	2	noun	phrase	3	11	nomatch	peut	-1	1	y	0.67987
11.493899999999996	0.0	+	2	noun	phrase	3	12	nomatch	peut	-1	1	y	0.67987
13.493700000000004	0.0	PEUT	2	noun	phrase	3	13	nomatch	peut	-1	1	y	0.67987
14.2436	0.0	+	2	noun	phrase	3	14	nomatch	peut	-1	1	y	0.67987
14.173599999999993	0.0	[response]	2	noun	phrase	3	15	nomatch	peut	-1	1	y	0.67987
23.892899999999997	0.0	+	3	noun	list	1	1	match	moins	5	1	p	0.59895
24.442899999999995	0.2	fspjk	3	noun	list	1	2	match	moins	5	1	p	0.59895
24.642899999999997	0.0	+	3	noun	list	1	3	match	moins	5	1	p	0.59895
25.0428	0.2	cxg	3	noun	list	1	4	match	moins	5	1	p	0.59895
25.242800000000003	0.0	+	3	noun	list	1	5	match	moins	5	1	p	0.59895
25.642799999999994	0.2	vzq	3	noun	list	1	6	match	moins	5	1	p	0.59895
25.842799999999997	0.0	+	3	noun	list	1	7	match	moins	5	1	p	0.59895
26.2427	0.2	tmvbxw	3	noun	list	1	8	match	moins	5	1	p	0.59895
26.442700000000002	0.0	+	3	noun	list	1	9	match	moins	5	1	p	0.59895
26.842699999999994	0.2	moins	3	noun	list	1	10	match	moins	5	1	p	0.59895
27.042699999999996	0.0	+	3	noun	list	1	11	match	moins	5	1	p	0.59895
27.4426	0.0	+	3	noun	list	1	12	match	moins	5	1	p	0.59895
29.442499999999995	0.0	MOINS	3	noun	list	1	13	match	moins	5	1	p	0.59895
30.109099999999998	0.0	+	3	noun	list	1	14	match	moins	5	1	p	0.59895
30.041399999999996	0.0	[response]	3	noun	list	1	15	match	moins	5	1	p	0.59895
31.842299999999994	0.0	+	4	noun	list	4	1	nomatch	nouveau	-1	1	y	0.70161
32.39229999999999	0.2	bgmwl	4	noun	list	4	2	nomatch	nouveau	-1	1	y	0.70161
32.592299999999994	0.0	+	4	noun	list	4	3	nomatch	nouveau	-1	1	y	0.70161
32.9922	0.2	vers	4	noun	list	4	4	nomatch	nouveau	-1	1	y	0.70161
33.1922	0.0	+	4	noun	list	4	5	nomatch	nouveau	-1	1	y	0.70161
33.592200000000005	0.2	va	4	noun	list	4	6	nomatch	nouveau	-1	1	y	0.70161
33.792199999999994	0.0	+	4	noun	list	4	7	nomatch	nouveau	-1	1	y	0.70161
34.192099999999996	0.2	casier	4	noun	list	4	8	nomatch	nouveau	-1	1	y	0.70161
34.3921	0.0	+	4	noun	list	4	9	nomatch	nouveau	-1	1	y	0.70161
34.792100000000005	0.2	tôt	4	noun	list	4	10	nomatch	nouveau	-1	1	y	0.70161
34.99209999999999	0.0	+	4	noun	list	4	11	nomatch	nouveau	-1	1	y	0.70161
35.391999999999996	0.0	+	4	noun	list	4	12	nomatch	nouveau	-1	1	y	0.70161
37.39189999999999	0.0	NOUVEAU	4	noun	list	4	13	nomatch	nouveau	-1	1	y	0.70161
38.158500000000004	0.0	+	4	noun	list	4	14	nomatch	nouveau	-1	1	y	0.70161
38.09349999999999	0.0	[response]	4	noun	list	4	15	nomatch	nouveau	-1	1	y	0.70161
39.79169999999999	0.0	+	5	noun	phrase	2	1	match	sablier	5	1	p	0.67026
40.3417	0.2	ktxrgs	5	noun	phrase	2	2	match	sablier	5	1	p	0.67026
40.5416	0.0	+	5	noun	phrase	2	3	match	sablier	5	1	p	0.67026
40.941599999999994	0.2	gscb	5	noun	phrase	2	4	match	sablier	5	1	p	0.67026
41.1416	0.0	+	5	noun	phrase	2	5	match	sablier	5	1	p	0.67026
41.5416	0.2	vzq	5	noun	phrase	2	6	match	sablier	5	1	p	0.67026
41.741600000000005	0.0	+	5	noun	phrase	2	7	match	sablier	5	1	p	0.67026
42.14149999999999	0.2	petit	5	noun	phrase	2	8	match	sablier	5	1	p	0.67026
42.341499999999996	0.0	+	5	noun	phrase	2	9	match	sablier	5	1	p	0.67026
42.74149999999999	0.2	sablier	5	noun	phrase	2	10	match	sablier	5	1	p	0.67026
42.941500000000005	0.0	+	5	noun	phrase	2	11	match	sablier	5	1	p	0.67026
43.34140000000001	0.0	+	5	noun	phrase	2	12	match	sablier	5	1	p	0.67026
45.341300000000004	0.0	SABLIER	5	noun	phrase	2	13	match	sablier	5	1	p	0.67026
46.074499999999986	0.0	+	5	noun	phrase	2	14	match	sablier	5	1	p	0.67026
46.0115	0.0	[response]	5	noun	phrase	2	15	match	sablier	5	1	p	0.67026
55.74050000000001	0.0	+	6	noun	phrase	1	1	nomatch	blanc	-1	1	y	0.6232
56.29039999999999	0.2	xzndhk	6	noun	phrase	1	2	nomatch	blanc	-1	1	y	0.6232
56.49040000000001	0.0	+	6	noun	phrase	1	3	nomatch	blanc	-1	1	y	0.6232
56.890399999999985	0.2	lfnt	6	noun	phrase	1	4	nomatch	blanc	-1	1	y	0.6232
57.0904	0.0	+	6	noun	phrase	1	5	nomatch	blanc	-1	1	y	0.6232
57.490300000000005	0.2	dljz	6	noun	phrase	1	6	nomatch	blanc	-1	1	y	0.6232
57.69029999999999	0.0	+	6	noun	phrase	1	7	nomatch	blanc	-1	1	y	0.6232
58.0903	0.2	tmvbxw	6	noun	phrase	1	8	nomatch	blanc	-1	1	y	0.6232
58.29029999999999	0.0	+	6	noun	phrase	1	9	nomatch	blanc	-1	1	y	0.6232
58.690899999999985	0.2	bleu	6	noun	phrase	1	10	nomatch	blanc	-1	1	y	0.6232
58.89020000000001	0.0	+	6	noun	phrase	1	11	nomatch	blanc	-1	1	y	0.6232
59.290199999999984	0.0	+	6	noun	phrase	1	12	nomatch	blanc	-1	1	y	0.6232
61.29010000000001	0.0	BLANC	6	noun	phrase	1	13	nomatch	blanc	-1	1	y	0.6232
61.97330000000001	0.0	+	6	noun	phrase	1	14	nomatch	blanc	-1	1	y	0.6232
61.91330000000001	0.0	[response]	6	noun	phrase	1	15	nomatch	blanc	-1	1	y	0.6232
63.68990000000001	0.0	+	7	verb	phrase	1	1	nomatch	luc	-1	1	y	0.69365
64.23979999999999	0.2	jqzsf	7	verb	phrase	1	2	nomatch	luc	-1	1	y	0.69365
64.4398	0.0	+	7	verb	phrase	1	3	nomatch	luc	-1	1	y	0.69365
64.83980000000001	0.2	cxg	7	verb	phrase	1	4	nomatch	luc	-1	1	y	0.69365
65.0398	0.0	+	7	verb	phrase	1	5	nomatch	luc	-1	1	y	0.69365
65.4397	0.2	gxvf	7	verb	phrase	1	6	nomatch	luc	-1	1	y	0.69365
65.63969999999999	0.0	+	7	verb	phrase	1	7	nomatch	luc	-1	1	y	0.69365
66.0397	0.2	hbgl	7	verb	phrase	1	8	nomatch	luc	-1	1	y	0.69365
66.23969999999998	0.0	+	7	verb	phrase	1	9	nomatch	luc	-1	1	y	0.69365
66.63959999999999	0.2	voyager	7	verb	phrase	1	10	nomatch	luc	-1	1	y	0.69365
66.8396	0.0	+	7	verb	phrase	1	11	nomatch	luc	-1	1	y	0.69365
67.23960000000001	0.0	+	7	verb	phrase	1	12	nomatch	luc	-1	1	y	0.69365
69.2394	0.0	LUC	7	verb	phrase	1	13	nomatch	luc	-1	1	y	0.69365
69.9894	0.0	+	7	verb	phrase	1	14	nomatch	luc	-1	1	y	0.69365
69.93310000000001	0.0	[response]	7	verb	phrase	1	15	nomatch	luc	-1	1	y	0.69365
95.6374	0.0	+	8	noun	list	3	1	nomatch	tôt	-1	1	y	0.72374
96.18740000000001	0.2	wctvb	8	noun	list	3	2	nomatch	tôt	-1	1	y	0.72374
96.3874	0.0	+	8	noun	list	3	3	nomatch	tôt	-1	1	y	0.72374
96.7873	0.2	mdrs	8	noun	list	3	4	nomatch	tôt	-1	1	y	0.72374
96.98729999999999	0.0	+	8	noun	list	3	5	nomatch	tôt	-1	1	y	0.72374
97.3873	0.2	peut	8	noun	list	3	6	nomatch	tôt	-1	1	y	0.72374
97.58729999999998	0.0	+	8	noun	list	3	7	nomatch	tôt	-1	1	y	0.72374
97.98729999999999	0.2	voilier	8	noun	list	3	8	nomatch	tôt	-1	1	y	0.72374
98.1872	0.0	+	8	noun	list	3	9	nomatch	tôt	-1	1	y	0.72374
98.58720000000001	0.2	vite	8	noun	list	3	10	nomatch	tôt	-1	1	y	0.72374
98.7872	0.0	+	8	noun	list	3	11	nomatch	tôt	-1	1	y	0.72374
99.1872	0.0	+	8	noun	list	3	12	nomatch	tôt	-1	1	y	0.72374
101.187	0.0	TÔT	8	noun	list	3	13	nomatch	tôt	-1	1	y	0.72374
101.9703	0.0	+	8	noun	list	3	14	nomatch	tôt	-1	1	y	0.72374
101.91080000000004	0.0	[response]	8	noun	list	3	15	nomatch	tôt	-1	1	y	0.72374
111.5862	0.0	+	9	noun	phrase	2	1	nomatch	va	-1	1	y	1.163
112.13619999999999	0.2	fhlcdq	9	noun	phrase	2	2	nomatch	va	-1	1	y	1.163
112.3362	0.0	+	9	noun	phrase	2	3	nomatch	va	-1	1	y	1.163
112.73610000000001	0.2	lfnt	9	noun	phrase	2	4	nomatch	va	-1	1	y	1.163
112.9361	0.0	+	9	noun	phrase	2	5	nomatch	va	-1	1	y	1.163
113.3361	0.2	dljz	9	noun	phrase	2	6	nomatch	va	-1	1	y	1.163
113.53609999999999	0.0	+	9	noun	phrase	2	7	nomatch	va	-1	1	y	1.163
113.93599999999999	0.2	grand	9	noun	phrase	2	8	nomatch	va	-1	1	y	1.163
114.13600000000001	0.0	+	9	noun	phrase	2	9	nomatch	va	-1	1	y	1.163
114.53599999999999	0.2	grenier	9	noun	phrase	2	10	nomatch	va	-1	1	y	1.163
114.736	0.0	+	9	noun	phrase	2	11	nomatch	va	-1	1	y	1.163
115.1359	0.0	+	9	noun	phrase	2	12	nomatch	va	-1	1	y	1.163
117.1358	0.0	VA	9	noun	phrase	2	13	nomatch	va	-1	1	y	1.163
118.36899999999999	0.0	+	9	noun	phrase	2	14	nomatch	va	-1	1	y	1.163
118.29879999999999	0.0	[response]	9	noun	phrase	2	15	nomatch	va	-1	1	y	1.163
119.5356	0.0	+	10	noun	phrase	4	1	match	sans	2	1	p	0.61369
120.08559999999999	0.2	lvztfdc	10	noun	phrase	4	2	match	sans	2	1	p	0.61369
120.2855	0.0	+	10	noun	phrase	4	3	match	sans	2	1	p	0.61369
120.6855	0.2	sans	10	noun	phrase	4	4	match	sans	2	1	p	0.61369
120.8855	0.0	+	10	noun	phrase	4	5	match	sans	2	1	p	0.61369
121.2855	0.2	leur	10	noun	phrase	4	6	match	sans	2	1	p	0.61369
121.48549999999999	0.0	+	10	noun	phrase	4	7	match	sans	2	1	p	0.61369
121.88539999999999	0.2	boîtier	10	noun	phrase	4	8	match	sans	2	1	p	0.61369
122.0854	0.0	+	10	noun	phrase	4	9	match	sans	2	1	p	0.61369
122.48539999999998	0.2	vert	10	noun	phrase	4	10	match	sans	2	1	p	0.61369
122.6854	0.0	+	10	noun	phrase	4	11	match	sans	2	1	p	0.61369
123.0853	0.0	+	10	noun	phrase	4	12	match	sans	2	1	p	0.61369
125.0852	0.0	SANS	10	noun	phrase	4	13	match	sans	2	1	p	0.61369
125.7685	0.0	+	10	noun	phrase	4	14	match	sans	2	1	p	0.61369
125.6989	0.0	[response]	10	noun	phrase	4	15	match	sans	2	1	p	0.61369
127.485	0.0	+	11	verb	list	4	1	nomatch	va	-1	1	y	1.3974
128.03500000000003	0.2	zpdvm	11	verb	list	4	2	nomatch	va	-1	1	y	1.3974
128.23489999999998	0.0	+	11	verb	list	4	3	nomatch	va	-1	1	y	1.3974
128.63490000000002	0.2	sous	11	verb	list	4	4	nomatch	va	-1	1	y	1.3974
128.8349	0.0	+	11	verb	list	4	5	nomatch	va	-1	1	y	1.3974
129.23489999999998	0.2	doit	11	verb	list	4	6	nomatch	va	-1	1	y	1.3974
129.4348	0.0	+	11	verb	list	4	7	nomatch	va	-1	1	y	1.3974
129.8349	0.2	vieux	11	verb	list	4	8	nomatch	va	-1	1	y	1.3974
130.03480000000002	0.0	+	11	verb	list	4	9	nomatch	va	-1	1	y	1.3974
130.4348	0.2	patiner	11	verb	list	4	10	nomatch	va	-1	1	y	1.3974
130.63479999999998	0.0	+	11	verb	list	4	11	nomatch	va	-1	1	y	1.3974
131.0514	0.0	+	11	verb	list	4	12	nomatch	va	-1	1	y	1.3974
133.0512	0.0	VA	11	verb	list	4	13	nomatch	va	-1	1	y	1.3974
134.51780000000002	0.0	+	11	verb	list	4	14	nomatch	va	-1	1	y	1.3974
134.4486	0.0	[response]	11	verb	list	4	15	nomatch	va	-1	1	y	1.3974
135.45100000000002	0.0	+	12	noun	list	2	1	nomatch	tablier	-1	1	y	0.95358
136.00099999999998	0.2	dzw	12	noun	list	2	2	nomatch	tablier	-1	1	y	0.95358
136.20100000000002	0.0	+	12	noun	list	2	3	nomatch	tablier	-1	1	y	0.95358
136.601	0.2	cxg	12	noun	list	2	4	nomatch	tablier	-1	1	y	0.95358
136.8009	0.0	+	12	noun	list	2	5	nomatch	tablier	-1	1	y	0.95358
137.2009	0.2	dljz	12	noun	list	2	6	nomatch	tablier	-1	1	y	0.95358
137.40089999999998	0.0	+	12	noun	list	2	7	nomatch	tablier	-1	1	y	0.95358
137.8009	0.2	plus	12	noun	list	2	8	nomatch	tablier	-1	1	y	0.95358
138.0009	0.0	+	12	noun	list	2	9	nomatch	tablier	-1	1	y	0.95358
138.4008	0.2	grenier	12	noun	list	2	10	nomatch	tablier	-1	1	y	0.95358
138.6008	0.0	+	12	noun	list	2	11	nomatch	tablier	-1	1	y	0.95358
139.00080000000003	0.0	+	12	noun	list	2	12	nomatch	tablier	-1	1	y	0.95358
141.00060000000002	0.0	TABLIER	12	noun	list	2	13	nomatch	tablier	-1	1	y	0.95358
142.0172	0.0	+	12	noun	list	2	14	nomatch	tablier	-1	1	y	0.95358
141.95420000000001	0.0	[response]	12	noun	list	2	15	nomatch	tablier	-1	1	y	0.95358
143.4004	0.0	+	13	noun	phrase	3	1	nomatch	parader	-1	1	y	0.7082
143.9504	0.2	wvtdsp	13	noun	phrase	3	2	nomatch	parader	-1	1	y	0.7082
144.1504	0.0	+	13	noun	phrase	3	3	nomatch	parader	-1	1	y	0.7082
144.55040000000002	0.2	mdrs	13	noun	phrase	3	4	nomatch	parader	-1	1	y	0.7082
144.75029999999998	0.0	+	13	noun	phrase	3	5	nomatch	parader	-1	1	y	0.7082
145.15030000000002	0.2	mon	13	noun	phrase	3	6	nomatch	parader	-1	1	y	0.7082
145.3503	0.0	+	13	noun	phrase	3	7	nomatch	parader	-1	1	y	0.7082
145.75029999999998	0.2	grand	13	noun	phrase	3	8	nomatch	parader	-1	1	y	0.7082
145.9502	0.0	+	13	noun	phrase	3	9	nomatch	parader	-1	1	y	0.7082
146.35019999999997	0.2	boîtier	13	noun	phrase	3	10	nomatch	parader	-1	1	y	0.7082
146.55020000000002	0.0	+	13	noun	phrase	3	11	nomatch	parader	-1	1	y	0.7082
146.9502	0.0	+	13	noun	phrase	3	12	nomatch	parader	-1	1	y	0.7082
148.95	0.0	PARADER	13	noun	phrase	3	13	nomatch	parader	-1	1	y	0.7082
149.71659999999997	0.0	+	13	noun	phrase	3	14	nomatch	parader	-1	1	y	0.7082
149.65820000000002	0.0	[response]	13	noun	phrase	3	15	nomatch	parader	-1	1	y	0.7082
151.34980000000002	0.0	+	14	verb	phrase	2	1	nomatch	petit	-1	1	y	0.59111
151.89979999999997	0.2	hwf	14	verb	phrase	2	2	nomatch	petit	-1	1	y	0.59111
152.09980000000002	0.0	+	14	verb	phrase	2	3	nomatch	petit	-1	1	y	0.59111
152.4998	0.2	cxg	14	verb	phrase	2	4	nomatch	petit	-1	1	y	0.59111
152.6997	0.0	+	14	verb	phrase	2	5	nomatch	petit	-1	1	y	0.59111
153.09969999999998	0.2	gxvf	14	verb	phrase	2	6	nomatch	petit	-1	1	y	0.59111
153.29969999999997	0.0	+	14	verb	phrase	2	7	nomatch	petit	-1	1	y	0.59111
153.6997	0.2	voyager	14	verb	phrase	2	8	nomatch	petit	-1	1	y	0.59111
153.89960000000002	0.0	+	14	verb	phrase	2	9	nomatch	petit	-1	1	y	0.59111
154.2996	0.2	tard	14	verb	phrase	2	10	nomatch	petit	-1	1	y	0.59111
154.4996	0.0	+	14	verb	phrase	2	11	nomatch	petit	-1	1	y	0.59111
154.89960000000002	0.0	+	14	verb	phrase	2	12	nomatch	petit	-1	1	y	0.59111
156.8994	0.0	PETIT	14	verb	phrase	2	13	nomatch	petit	-1	1	y	0.59111
157.5494	0.0	+	14	verb	phrase	2	14	nomatch	petit	-1	1	y	0.59111
157.4905	0.0	[response]	14	verb	phrase	2	15	nomatch	petit	-1	1	y	0.59111
159.29919999999998	0.0	+	15	noun	phrase	2	1	match	noir	5	1	p	0.68988
159.8492	0.2	qcrnfw	15	noun	phrase	2	2	match	noir	5	1	p	0.68988
160.04919999999998	0.0	+	15	noun	phrase	2	3	match	noir	5	1	p	0.68988
160.4491	0.2	xlb	15	noun	phrase	2	4	match	noir	5	1	p	0.68988
160.64909999999998	0.0	+	15	noun	phrase	2	5	match	noir	5	1	p	0.68988
161.0491	0.2	vzq	15	noun	phrase	2	6	match	noir	5	1	p	0.68988
161.2491	0.0	+	15	noun	phrase	2	7	match	noir	5	1	p	0.68988
161.649	0.2	grenier	15	noun	phrase	2	8	match	noir	5	1	p	0.68988
161.849	0.0	+	15	noun	phrase	2	9	match	noir	5	1	p	0.68988
162.24900000000002	0.2	noir	15	noun	phrase	2	10	match	noir	5	1	p	0.68988
162.449	0.0	+	15	noun	phrase	2	11	match	noir	5	1	p	0.68988
162.849	0.0	+	15	noun	phrase	2	12	match	noir	5	1	p	0.68988
164.84879999999998	0.0	NOIR	15	noun	phrase	2	13	match	noir	5	1	p	0.68988
165.5987	0.0	+	15	noun	phrase	2	14	match	noir	5	1	p	0.68988
165.5387	0.0	[response]	15	noun	phrase	2	15	match	noir	5	1	p	0.68988
167.2486	0.0	+	16	noun	phrase	1	1	match	casier	5	1	p	0.71009
167.79860000000002	0.2	qpvjt	16	noun	phrase	1	2	match	casier	5	1	p	0.71009
167.9986	0.0	+	16	noun	phrase	1	3	match	casier	5	1	p	0.71009
168.3985	0.2	lfnt	16	noun	phrase	1	4	match	casier	5	1	p	0.71009
168.5985	0.0	+	16	noun	phrase	1	5	match	casier	5	1	p	0.71009
168.99849999999998	0.2	pjf	16	noun	phrase	1	6	match	casier	5	1	p	0.71009
169.19850000000002	0.0	+	16	noun	phrase	1	7	match	casier	5	1	p	0.71009
169.59840000000003	0.2	xznbq	16	noun	phrase	1	8	match	casier	5	1	p	0.71009
169.79840000000002	0.0	+	16	noun	phrase	1	9	match	casier	5	1	p	0.71009
170.1984	0.2	casier	16	noun	phrase	1	10	match	casier	5	1	p	0.71009
170.39839999999998	0.0	+	16	noun	phrase	1	11	match	casier	5	1	p	0.71009
170.79839999999996	0.0	+	16	noun	phrase	1	12	match	casier	5	1	p	0.71009
172.7982	0.0	CASIER	16	noun	phrase	1	13	match	casier	5	1	p	0.71009
173.5648	0.0	+	16	noun	phrase	1	14	match	casier	5	1	p	0.71009
173.50829999999996	0.0	[response]	16	noun	phrase	1	15	match	casier	5	1	p	0.71009
175.19799999999998	0.0	+	17	noun	list	3	1	match	sablier	5	1	p	0.80443
175.748	0.2	xpgw	17	noun	list	3	2	match	sablier	5	1	p	0.80443
175.94799999999998	0.0	+	17	noun	list	3	3	match	sablier	5	1	p	0.80443
176.34789999999998	0.2	ljxk	17	noun	list	3	4	match	sablier	5	1	p	0.80443
176.54789999999997	0.0	+	17	noun	list	3	5	match	sablier	5	1	p	0.80443
176.9479	0.2	son	17	noun	list	3	6	match	sablier	5	1	p	0.80443
177.1479	0.0	+	17	noun	list	3	7	match	sablier	5	1	p	0.80443
177.5478	0.2	beaucoup	17	noun	list	3	8	match	sablier	5	1	p	0.80443
177.74779999999998	0.0	+	17	noun	list	3	9	match	sablier	5	1	p	0.80443
178.14779999999996	0.2	sablier	17	noun	list	3	10	match	sablier	5	1	p	0.80443
178.3478	0.0	+	17	noun	list	3	11	match	sablier	5	1	p	0.80443
178.7477	0.0	+	17	noun	list	3	12	match	sablier	5	1	p	0.80443
180.74759999999998	0.0	SABLIER	17	noun	list	3	13	match	sablier	5	1	p	0.80443
181.61419999999998	0.0	+	17	noun	list	3	14	match	sablier	5	1	p	0.80443
181.55199999999996	0.0	[response]	17	noun	list	3	15	match	sablier	5	1	p	0.80443
183.1474	0.0	+	18	noun	list	1	1	nomatch	vite	-1	1	y	0.60714
183.69739999999996	0.2	ndfpsjk	18	noun	list	1	2	nomatch	vite	-1	1	y	0.60714
183.89729999999997	0.0	+	18	noun	list	1	3	nomatch	vite	-1	1	y	0.60714
184.2973	0.2	phxz	18	noun	list	1	4	nomatch	vite	-1	1	y	0.60714
184.4973	0.0	+	18	noun	list	1	5	nomatch	vite	-1	1	y	0.60714
184.89729999999997	0.2	gxvf	18	noun	list	1	6	nomatch	vite	-1	1	y	0.60714
185.09729999999996	0.0	+	18	noun	list	1	7	nomatch	vite	-1	1	y	0.60714
185.49719999999996	0.2	gbzhdsl	18	noun	list	1	8	nomatch	vite	-1	1	y	0.60714
185.6972	0.0	+	18	noun	list	1	9	nomatch	vite	-1	1	y	0.60714
186.0972	0.2	tard	18	noun	list	1	10	nomatch	vite	-1	1	y	0.60714
186.29719999999998	0.0	+	18	noun	list	1	11	nomatch	vite	-1	1	y	0.60714
186.69709999999998	0.0	+	18	noun	list	1	12	nomatch	vite	-1	1	y	0.60714
188.697	0.0	VITE	18	noun	list	1	13	nomatch	vite	-1	1	y	0.60714
189.36359999999996	0.0	+	18	noun	list	1	14	nomatch	vite	-1	1	y	0.60714
189.3041	0.0	[response]	18	noun	list	1	15	nomatch	vite	-1	1	y	0.60714
191.09679999999997	0.0	+	19	noun	list	4	1	nomatch	va	-1	1	y	1.0397
191.64679999999998	0.2	dpwqhv	19	noun	list	4	2	nomatch	va	-1	1	y	1.0397
191.8467	0.0	+	19	noun	list	4	3	nomatch	va	-1	1	y	1.0397
192.24669999999998	0.2	dans	19	noun	list	4	4	nomatch	va	-1	1	y	1.0397
192.44669999999996	0.0	+	19	noun	list	4	5	nomatch	va	-1	1	y	1.0397
192.8467	0.2	peut	19	noun	list	4	6	nomatch	va	-1	1	y	1.0397
193.0466	0.0	+	19	noun	list	4	7	nomatch	va	-1	1	y	1.0397
193.4466	0.2	voilier	19	noun	list	4	8	nomatch	va	-1	1	y	1.0397
193.64659999999998	0.0	+	19	noun	list	4	9	nomatch	va	-1	1	y	1.0397
194.0466	0.2	loin	19	noun	list	4	10	nomatch	va	-1	1	y	1.0397
194.2466	0.0	+	19	noun	list	4	11	nomatch	va	-1	1	y	1.0397
194.6465	0.0	+	19	noun	list	4	12	nomatch	va	-1	1	y	1.0397
196.64639999999997	0.0	VA	19	noun	list	4	13	nomatch	va	-1	1	y	1.0397
197.74629999999996	0.0	+	19	noun	list	4	14	nomatch	va	-1	1	y	1.0397
197.6861	0.0	[response]	19	noun	list	4	15	nomatch	va	-1	1	y	1.0397
215.04499999999996	0.0	+	20	verb	phrase	2	1	nomatch	plus	-1	1	y	0.58697
215.5949	0.2	sjtwzc	20	verb	phrase	2	2	nomatch	plus	-1	1	y	0.58697
215.79489999999998	0.0	+	20	verb	phrase	2	3	nomatch	plus	-1	1	y	0.58697
216.19489999999996	0.2	jgvm	20	verb	phrase	2	4	nomatch	plus	-1	1	y	0.58697
216.3949	0.0	+	20	verb	phrase	2	5	nomatch	plus	-1	1	y	0.58697
216.7948	0.2	xv	20	verb	phrase	2	6	nomatch	plus	-1	1	y	0.58697
216.9948	0.0	+	20	verb	phrase	2	7	nomatch	plus	-1	1	y	0.58697
217.39479999999998	0.2	trop	20	verb	phrase	2	8	nomatch	plus	-1	1	y	0.58697
217.59479999999996	0.0	+	20	verb	phrase	2	9	nomatch	plus	-1	1	y	0.58697
217.99469999999997	0.2	jongler	20	verb	phrase	2	10	nomatch	plus	-1	1	y	0.58697
218.1947	0.0	+	20	verb	phrase	2	11	nomatch	plus	-1	1	y	0.58697
218.5947	0.0	+	20	verb	phrase	2	12	nomatch	plus	-1	1	y	0.58697
220.59449999999998	0.0	PLUS	20	verb	phrase	2	13	nomatch	plus	-1	1	y	0.58697
221.24449999999996	0.0	+	20	verb	phrase	2	14	nomatch	plus	-1	1	y	0.58697
221.18149999999997	0.0	[response]	20	verb	phrase	2	15	nomatch	plus	-1	1	y	0.58697
222.9943	0.0	+	21	verb	list	1	1	nomatch	chasser	-1	1	y	1.1318
223.54429999999996	0.2	hmrgb	21	verb	list	1	2	nomatch	chasser	-1	1	y	1.1318
223.7443	0.0	+	21	verb	list	1	3	nomatch	chasser	-1	1	y	1.1318
224.1443	0.2	hmzf	21	verb	list	1	4	nomatch	chasser	-1	1	y	1.1318
224.3442	0.0	+	21	verb	list	1	5	nomatch	chasser	-1	1	y	1.1318
224.74419999999998	0.2	vzq	21	verb	list	1	6	nomatch	chasser	-1	1	y	1.1318
224.94419999999997	0.0	+	21	verb	list	1	7	nomatch	chasser	-1	1	y	1.1318
225.3442	0.2	rpdczvl	21	verb	list	1	8	nomatch	chasser	-1	1	y	1.1318
225.5442	0.0	+	21	verb	list	1	9	nomatch	chasser	-1	1	y	1.1318
225.9441	0.2	bleu	21	verb	list	1	10	nomatch	chasser	-1	1	y	1.1318
226.14409999999998	0.0	+	21	verb	list	1	11	nomatch	chasser	-1	1	y	1.1318
226.54409999999996	0.0	+	21	verb	list	1	12	nomatch	chasser	-1	1	y	1.1318
228.5439	0.0	CHASSER	21	verb	list	1	13	nomatch	chasser	-1	1	y	1.1318
229.74379999999996	0.0	+	21	verb	list	1	14	nomatch	chasser	-1	1	y	1.1318
229.67580000000004	0.0	[response]	21	verb	list	1	15	nomatch	chasser	-1	1	y	1.1318
230.94369999999998	0.0	+	22	noun	list	3	1	nomatch	rouler	-1	1	y	0.57637
231.4937	0.2	fxlvcn	22	noun	list	3	2	nomatch	rouler	-1	1	y	0.57637
231.69369999999998	0.0	+	22	noun	list	3	3	nomatch	rouler	-1	1	y	0.57637
232.0937	0.2	jgvm	22	noun	list	3	4	nomatch	rouler	-1	1	y	0.57637
232.29359999999997	0.0	+	22	noun	list	3	5	nomatch	rouler	-1	1	y	0.57637
232.6936	0.2	son	22	noun	list	3	6	nomatch	rouler	-1	1	y	0.57637
232.8936	0.0	+	22	noun	list	3	7	nomatch	rouler	-1	1	y	0.57637
233.29359999999997	0.2	moins	22	noun	list	3	8	nomatch	rouler	-1	1	y	0.57637
233.49349999999998	0.0	+	22	noun	list	3	9	nomatch	rouler	-1	1	y	0.57637
233.89349999999996	0.2	boîtier	22	noun	list	3	10	nomatch	rouler	-1	1	y	0.57637
234.0935	0.0	+	22	noun	list	3	11	nomatch	rouler	-1	1	y	0.57637
234.49349999999998	0.0	+	22	noun	list	3	12	nomatch	rouler	-1	1	y	0.57637
236.49329999999998	0.0	ROULER	22	noun	list	3	13	nomatch	rouler	-1	1	y	0.57637
237.1266	0.0	+	22	noun	list	3	14	nomatch	rouler	-1	1	y	0.57637
237.0697	0.0	[response]	22	noun	list	3	15	nomatch	rouler	-1	1	y	0.57637
238.8931	0.0	+	23	verb	phrase	1	1	match	parader	5	1	p	0.55121
239.44309999999996	0.2	gjf	23	verb	phrase	1	2	match	parader	5	1	p	0.55121
239.6431	0.0	+	23	verb	phrase	1	3	match	parader	5	1	p	0.55121
240.043	0.2	bclj	23	verb	phrase	1	4	match	parader	5	1	p	0.55121
240.243	0.0	+	23	verb	phrase	1	5	match	parader	5	1	p	0.55121
240.64299999999997	0.2	gxvf	23	verb	phrase	1	6	match	parader	5	1	p	0.55121
240.84299999999996	0.0	+	23	verb	phrase	1	7	match	parader	5	1	p	0.55121
241.243	0.2	zjqt	23	verb	phrase	1	8	match	parader	5	1	p	0.55121
241.4429	0.0	+	23	verb	phrase	1	9	match	parader	5	1	p	0.55121
241.8429	0.2	parader	23	verb	phrase	1	10	match	parader	5	1	p	0.55121
242.04289999999997	0.0	+	23	verb	phrase	1	11	match	parader	5	1	p	0.55121
242.4429	0.0	+	23	verb	phrase	1	12	match	parader	5	1	p	0.55121
244.4427	0.0	PARADER	23	verb	phrase	1	13	match	parader	5	1	p	0.55121
245.0593	0.0	+	23	verb	phrase	1	14	match	parader	5	1	p	0.55121
244.9939	0.0	[response]	23	verb	phrase	1	15	match	parader	5	1	p	0.55121
246.84249999999997	0.0	+	24	noun	list	1	1	match	tard	5	1	p	0.72965
247.39249999999998	0.2	skvjcb	24	noun	list	1	2	match	tard	5	1	p	0.72965
247.59249999999997	0.0	+	24	noun	list	1	3	match	tard	5	1	p	0.72965
247.99239999999998	0.2	lfnt	24	noun	list	1	4	match	tard	5	1	p	0.72965
248.19239999999996	0.0	+	24	noun	list	1	5	match	tard	5	1	p	0.72965
248.5924	0.2	zmpt	24	noun	list	1	6	match	tard	5	1	p	0.72965
248.7924	0.0	+	24	noun	list	1	7	match	tard	5	1	p	0.72965
249.1923	0.2	pzmjvdb	24	noun	list	1	8	match	tard	5	1	p	0.72965
249.39229999999998	0.0	+	24	noun	list	1	9	match	tard	5	1	p	0.72965
249.7923	0.2	tard	24	noun	list	1	10	match	tard	5	1	p	0.72965
249.9923	0.0	+	24	noun	list	1	11	match	tard	5	1	p	0.72965
250.39229999999998	0.0	+	24	noun	list	1	12	match	tard	5	1	p	0.72965
252.39209999999997	0.0	TARD	24	noun	list	1	13	match	tard	5	1	p	0.72965
253.192	0.0	+	24	noun	list	1	14	match	tard	5	1	p	0.72965
253.1218	0.0	[response]	24	noun	list	1	15	match	tard	5	1	p	0.72965
254.7919	0.0	+	25	verb	list	1	1	match	nager	5	1	p	0.57432
255.3419	0.2	ncp	25	verb	list	1	2	match	nager	5	1	p	0.57432
255.5419	0.0	+	25	verb	list	1	3	match	nager	5	1	p	0.57432
255.9418	0.2	bjsm	25	verb	list	1	4	match	nager	5	1	p	0.57432
256.1418	0.0	+	25	verb	list	1	5	match	nager	5	1	p	0.57432
256.54179999999997	0.2	xv	25	verb	list	1	6	match	nager	5	1	p	0.57432
256.7418	0.0	+	25	verb	list	1	7	match	nager	5	1	p	0.57432
257.14169999999996	0.2	mtgbk	25	verb	list	1	8	match	nager	5	1	p	0.57432
257.3417	0.0	+	25	verb	list	1	9	match	nager	5	1	p	0.57432
257.7417	0.2	nager	25	verb	list	1	10	match	nager	5	1	p	0.57432
257.94169999999997	0.0	+	25	verb	list	1	11	match	nager	5	1	p	0.57432
258.3417	0.0	+	25	verb	list	1	12	match	nager	5	1	p	0.57432
260.3415	0.0	NAGER	25	verb	list	1	13	match	nager	5	1	p	0.57432
260.97479999999996	0.0	+	25	verb	list	1	14	match	nager	5	1	p	0.57432
260.9158	0.0	[response]	25	verb	list	1	15	match	nager	5	1	p	0.57432
262.74129999999997	0.0	+	26	noun	phrase	2	1	nomatch	bleu	-1	1	y	0.58053
263.2913	0.2	lcjsbd	26	noun	phrase	2	2	nomatch	bleu	-1	1	y	0.58053
263.49129999999997	0.0	+	26	noun	phrase	2	3	nomatch	bleu	-1	1	y	0.58053
263.89119999999997	0.2	mdrs	26	noun	phrase	2	4	nomatch	bleu	-1	1	y	0.58053
264.09119999999996	0.0	+	26	noun	phrase	2	5	nomatch	bleu	-1	1	y	0.58053
264.4912	0.2	pjf	26	noun	phrase	2	6	nomatch	bleu	-1	1	y	0.58053
264.6912	0.0	+	26	noun	phrase	2	7	nomatch	bleu	-1	1	y	0.58053
265.0911	0.2	petit	26	noun	phrase	2	8	nomatch	bleu	-1	1	y	0.58053
265.2911	0.0	+	26	noun	phrase	2	9	nomatch	bleu	-1	1	y	0.58053
265.6911	0.2	clavier	26	noun	phrase	2	10	nomatch	bleu	-1	1	y	0.58053
265.8911	0.0	+	26	noun	phrase	2	11	nomatch	bleu	-1	1	y	0.58053
266.291	0.0	+	26	noun	phrase	2	12	nomatch	bleu	-1	1	y	0.58053
268.29089999999997	0.0	BLEU	26	noun	phrase	2	13	nomatch	bleu	-1	1	y	0.58053
268.94079999999997	0.0	+	26	noun	phrase	2	14	nomatch	bleu	-1	1	y	0.58053
268.8714	0.0	[response]	26	noun	phrase	2	15	nomatch	bleu	-1	1	y	0.58053
270.6907	0.0	+	27	noun	list	3	1	match	mieux	4	1	p	1.5252
271.2407	0.2	sgndtcq	27	noun	list	3	2	match	mieux	4	1	p	1.5252
271.44059999999996	0.0	+	27	noun	list	3	3	match	mieux	4	1	p	1.5252
271.8406	0.2	kvgl	27	noun	list	3	4	match	mieux	4	1	p	1.5252
272.0406	0.0	+	27	noun	list	3	5	match	mieux	4	1	p	1.5252
272.44059999999996	0.2	leur	27	noun	list	3	6	match	mieux	4	1	p	1.5252
272.6406	0.0	+	27	noun	list	3	7	match	mieux	4	1	p	1.5252
273.0405	0.2	mieux	27	noun	list	3	8	match	mieux	4	1	p	1.5252
273.2405	0.0	+	27	noun	list	3	9	match	mieux	4	1	p	1.5252
273.6405	0.2	grenier	27	noun	list	3	10	match	mieux	4	1	p	1.5252
273.84049999999996	0.0	+	27	noun	list	3	11	match	mieux	4	1	p	1.5252
274.24039999999997	0.0	+	27	noun	list	3	12	match	mieux	4	1	p	1.5252
276.2403	0.0	MIEUX	27	noun	list	3	13	match	mieux	4	1	p	1.5252
277.82349999999997	0.0	+	27	noun	list	3	14	match	mieux	4	1	p	1.5252
277.7655	0.0	[response]	27	noun	list	3	15	match	mieux	4	1	p	1.5252
278.64009999999996	0.0	+	28	verb	list	4	1	match	noir	5	1	p	1.1175
279.1901	0.2	kxr	28	verb	list	4	2	match	noir	5	1	p	1.1175
279.39	0.0	+	28	verb	list	4	3	match	noir	5	1	p	1.1175
279.78999999999996	0.2	adam	28	verb	list	4	4	match	noir	5	1	p	1.1175
279.99	0.0	+	28	verb	list	4	5	match	noir	5	1	p	1.1175
280.39	0.2	mon	28	verb	list	4	6	match	noir	5	1	p	1.1175
280.5899	0.0	+	28	verb	list	4	7	match	noir	5	1	p	1.1175
280.9899	0.2	galoper	28	verb	list	4	8	match	noir	5	1	p	1.1175
281.18989999999997	0.0	+	28	verb	list	4	9	match	noir	5	1	p	1.1175
281.5899	0.2	noir	28	verb	list	4	10	match	noir	5	1	p	1.1175
281.7899	0.0	+	28	verb	list	4	11	match	noir	5	1	p	1.1175
282.1898	0.0	+	28	verb	list	4	12	match	noir	5	1	p	1.1175
284.18969999999996	0.0	NOIR	28	verb	list	4	13	match	noir	5	1	p	1.1175
285.37289999999996	0.0	+	28	verb	list	4	14	match	noir	5	1	p	1.1175
285.30719999999997	0.0	[response]	28	verb	list	4	15	match	noir	5	1	p	1.1175
286.5895	0.0	+	29	verb	list	1	1	match	rouge	5	1	p	0.5122000000000001
287.13939999999997	0.2	zghjrl	29	verb	list	1	2	match	rouge	5	1	p	0.5122000000000001
287.3394	0.0	+	29	verb	list	1	3	match	rouge	5	1	p	0.5122000000000001
287.7394	0.2	bclj	29	verb	list	1	4	match	rouge	5	1	p	0.5122000000000001
287.9394	0.0	+	29	verb	list	1	5	match	rouge	5	1	p	0.5122000000000001
288.3394	0.2	dljz	29	verb	list	1	6	match	rouge	5	1	p	0.5122000000000001
288.53929999999997	0.0	+	29	verb	list	1	7	match	rouge	5	1	p	0.5122000000000001
288.9393	0.2	smcjrf	29	verb	list	1	8	match	rouge	5	1	p	0.5122000000000001
289.1393	0.0	+	29	verb	list	1	9	match	rouge	5	1	p	0.5122000000000001
289.53929999999997	0.2	rouge	29	verb	list	1	10	match	rouge	5	1	p	0.5122000000000001
289.7392	0.0	+	29	verb	list	1	11	match	rouge	5	1	p	0.5122000000000001
290.13919999999996	0.0	+	29	verb	list	1	12	match	rouge	5	1	p	0.5122000000000001
292.1391	0.0	ROUGE	29	verb	list	1	13	match	rouge	5	1	p	0.5122000000000001
292.7057	0.0	+	29	verb	list	1	14	match	rouge	5	1	p	0.5122000000000001
292.6513	0.0	[response]	29	verb	list	1	15	match	rouge	5	1	p	0.5122000000000001
294.5389	0.0	+	30	verb	list	2	1	nomatch	petit	-1	1	y	0.81098
295.0888	0.2	zdcf	30	verb	list	2	2	nomatch	petit	-1	1	y	0.81098
295.2888	0.0	+	30	verb	list	2	3	nomatch	petit	-1	1	y	0.81098
295.68879999999996	0.2	bjsm	30	verb	list	2	4	nomatch	petit	-1	1	y	0.81098
295.8888	0.0	+	30	verb	list	2	5	nomatch	petit	-1	1	y	0.81098
296.2887	0.2	xv	30	verb	list	2	6	nomatch	petit	-1	1	y	0.81098
296.4887	0.0	+	30	verb	list	2	7	nomatch	petit	-1	1	y	0.81098
296.8887	0.2	vieux	30	verb	list	2	8	nomatch	petit	-1	1	y	0.81098
297.08869999999996	0.0	+	30	verb	list	2	9	nomatch	petit	-1	1	y	0.81098
297.4887	0.2	jongler	30	verb	list	2	10	nomatch	petit	-1	1	y	0.81098
297.6886	0.0	+	30	verb	list	2	11	nomatch	petit	-1	1	y	0.81098
298.0886	0.0	+	30	verb	list	2	12	nomatch	petit	-1	1	y	0.81098
300.0885	0.0	PETIT	30	verb	list	2	13	nomatch	petit	-1	1	y	0.81098
300.955	0.0	+	30	verb	list	2	14	nomatch	petit	-1	1	y	0.81098
300.8994	0.0	[response]	30	verb	list	2	15	nomatch	petit	-1	1	y	0.81098
310.4876	0.0	+	31	noun	phrase	3	1	match	leur	3	1	p	0.49692
311.0376	0.2	fqts	31	noun	phrase	3	2	match	leur	3	1	p	0.49692
311.2376	0.0	+	31	noun	phrase	3	3	match	leur	3	1	p	0.49692
311.63759999999996	0.2	gscb	31	noun	phrase	3	4	match	leur	3	1	p	0.49692
311.8375	0.0	+	31	noun	phrase	3	5	match	leur	3	1	p	0.49692
312.2375	0.2	leur	31	noun	phrase	3	6	match	leur	3	1	p	0.49692
312.4375	0.0	+	31	noun	phrase	3	7	match	leur	3	1	p	0.49692
312.8375	0.2	boîtier	31	noun	phrase	3	8	match	leur	3	1	p	0.49692
313.03749999999997	0.0	+	31	noun	phrase	3	9	match	leur	3	1	p	0.49692
313.43739999999997	0.2	noir	31	noun	phrase	3	10	match	leur	3	1	p	0.49692
313.63739999999996	0.0	+	31	noun	phrase	3	11	match	leur	3	1	p	0.49692
314.0374	0.0	+	31	noun	phrase	3	12	match	leur	3	1	p	0.49692
316.0372	0.0	LEUR	31	noun	phrase	3	13	match	leur	3	1	p	0.49692
316.6038	0.0	+	31	noun	phrase	3	14	match	leur	3	1	p	0.49692
316.5342	0.0	[response]	31	noun	phrase	3	15	match	leur	3	1	p	0.49692
318.437	0.0	+	32	noun	list	2	1	match	vite	5	1	p	0.77054
318.98699999999997	0.2	hdzxkn	32	noun	list	2	2	match	vite	5	1	p	0.77054
319.187	0.0	+	32	noun	list	2	3	match	vite	5	1	p	0.77054
319.587	0.2	xlb	32	noun	list	2	4	match	vite	5	1	p	0.77054
319.7869	0.0	+	32	noun	list	2	5	match	vite	5	1	p	0.77054
320.1869	0.2	gxvf	32	noun	list	2	6	match	vite	5	1	p	0.77054
320.38689999999997	0.0	+	32	noun	list	2	7	match	vite	5	1	p	0.77054
320.7869	0.2	sablier	32	noun	list	2	8	match	vite	5	1	p	0.77054
320.9869	0.0	+	32	noun	list	2	9	match	vite	5	1	p	0.77054
321.3868	0.2	vite	32	noun	list	2	10	match	vite	5	1	p	0.77054
321.5868	0.0	+	32	noun	list	2	11	match	vite	5	1	p	0.77054
321.98679999999996	0.0	+	32	noun	list	2	12	match	vite	5	1	p	0.77054
323.9866	0.0	VITE	32	noun	list	2	13	match	vite	5	1	p	0.77054
324.81989999999996	0.0	+	32	noun	list	2	14	match	vite	5	1	p	0.77054
324.7572	0.0	[response]	32	noun	list	2	15	match	vite	5	1	p	0.77054
326.3864	0.0	+	33	verb	phrase	2	1	match	ainsi	5	1	p	0.61913
326.9364	0.2	hmv	33	verb	phrase	2	2	match	ainsi	5	1	p	0.61913
327.1364	0.0	+	33	verb	phrase	2	3	match	ainsi	5	1	p	0.61913
327.53639999999996	0.2	kvgl	33	verb	phrase	2	4	match	ainsi	5	1	p	0.61913
327.73629999999997	0.0	+	33	verb	phrase	2	5	match	ainsi	5	1	p	0.61913
328.1363	0.2	xv	33	verb	phrase	2	6	match	ainsi	5	1	p	0.61913
328.3363	0.0	+	33	verb	phrase	2	7	match	ainsi	5	1	p	0.61913
328.73629999999997	0.2	rouler	33	verb	phrase	2	8	match	ainsi	5	1	p	0.61913
328.9362	0.0	+	33	verb	phrase	2	9	match	ainsi	5	1	p	0.61913
329.33619999999996	0.2	ainsi	33	verb	phrase	2	10	match	ainsi	5	1	p	0.61913
329.5362	0.0	+	33	verb	phrase	2	11	match	ainsi	5	1	p	0.61913
329.9362	0.0	+	33	verb	phrase	2	12	match	ainsi	5	1	p	0.61913
331.936	0.0	AINSI	33	verb	phrase	2	13	match	ainsi	5	1	p	0.61913
332.6193	0.0	+	33	verb	phrase	2	14	match	ainsi	5	1	p	0.61913
332.5551	0.0	[response]	33	verb	phrase	2	15	match	ainsi	5	1	p	0.61913
334.3358	0.0	+	34	noun	phrase	3	1	match	son	3	1	p	0.6652
334.88579999999996	0.2	rdszvxb	34	noun	phrase	3	2	match	son	3	1	p	0.6652
335.0858	0.0	+	34	noun	phrase	3	3	match	son	3	1	p	0.6652
335.4857	0.2	gscb	34	noun	phrase	3	4	match	son	3	1	p	0.6652
335.6857	0.0	+	34	noun	phrase	3	5	match	son	3	1	p	0.6652
336.0857	0.2	son	34	noun	phrase	3	6	match	son	3	1	p	0.6652
336.28569999999996	0.0	+	34	noun	phrase	3	7	match	son	3	1	p	0.6652
336.68559999999997	0.2	beau	34	noun	phrase	3	8	match	son	3	1	p	0.6652
336.8856	0.0	+	34	noun	phrase	3	9	match	son	3	1	p	0.6652
337.2856	0.2	grenier	34	noun	phrase	3	10	match	son	3	1	p	0.6652
337.4856	0.0	+	34	noun	phrase	3	11	match	son	3	1	p	0.6652
337.8856	0.0	+	34	noun	phrase	3	12	match	son	3	1	p	0.6652
339.8854	0.0	SON	34	noun	phrase	3	13	match	son	3	1	p	0.6652
340.6187	0.0	+	34	noun	phrase	3	14	match	son	3	1	p	0.6652
340.55060000000003	0.0	[response]	34	noun	phrase	3	15	match	son	3	1	p	0.6652
342.2852	0.0	+	35	noun	list	1	1	match	boîtier	5	1	p	0.5621800000000001
342.8352	0.2	bqxwpm	35	noun	list	1	2	match	boîtier	5	1	p	0.5621800000000001
343.0352	0.0	+	35	noun	list	1	3	match	boîtier	5	1	p	0.5621800000000001
343.4351	0.2	xlb	35	noun	list	1	4	match	boîtier	5	1	p	0.5621800000000001
343.63509999999997	0.0	+	35	noun	list	1	5	match	boîtier	5	1	p	0.5621800000000001
344.0351	0.2	gxvf	35	noun	list	1	6	match	boîtier	5	1	p	0.5621800000000001
344.2351	0.0	+	35	noun	list	1	7	match	boîtier	5	1	p	0.5621800000000001
344.635	0.2	mfwx	35	noun	list	1	8	match	boîtier	5	1	p	0.5621800000000001
344.835	0.0	+	35	noun	list	1	9	match	boîtier	5	1	p	0.5621800000000001
345.23499999999996	0.2	boîtier	35	noun	list	1	10	match	boîtier	5	1	p	0.5621800000000001
345.435	0.0	+	35	noun	list	1	11	match	boîtier	5	1	p	0.5621800000000001
345.8349	0.0	+	35	noun	list	1	12	match	boîtier	5	1	p	0.5621800000000001
347.8349	0.0	BOÎTIER	35	noun	list	1	13	match	boîtier	5	1	p	0.5621800000000001
348.4514	0.0	+	35	noun	list	1	14	match	boîtier	5	1	p	0.5621800000000001
348.39700000000005	0.0	[response]	35	noun	list	1	15	match	boîtier	5	1	p	0.5621800000000001
350.25129999999996	0.0	+	36	noun	list	1	1	nomatch	trop	-1	1	y	0.61842
350.8012	0.2	zwxpj	36	noun	list	1	2	nomatch	trop	-1	1	y	0.61842
351.0012	0.0	+	36	noun	list	1	3	nomatch	trop	-1	1	y	0.61842
351.40119999999996	0.2	kvgl	36	noun	list	1	4	nomatch	trop	-1	1	y	0.61842
351.6012	0.0	+	36	noun	list	1	5	nomatch	trop	-1	1	y	0.61842
352.0011	0.2	pjf	36	noun	list	1	6	nomatch	trop	-1	1	y	0.61842
352.2011	0.0	+	36	noun	list	1	7	nomatch	trop	-1	1	y	0.61842
352.6011	0.2	bsjgdxq	36	noun	list	1	8	nomatch	trop	-1	1	y	0.61842
352.80109999999996	0.0	+	36	noun	list	1	9	nomatch	trop	-1	1	y	0.61842
353.2011	0.2	moins	36	noun	list	1	10	nomatch	trop	-1	1	y	0.61842
353.401	0.0	+	36	noun	list	1	11	nomatch	trop	-1	1	y	0.61842
353.801	0.0	+	36	noun	list	1	12	nomatch	trop	-1	1	y	0.61842
355.80089999999996	0.0	TROP	36	noun	list	1	13	nomatch	trop	-1	1	y	0.61842
356.4841	0.0	+	36	noun	list	1	14	nomatch	trop	-1	1	y	0.61842
356.41929999999996	0.0	[response]	36	noun	list	1	15	nomatch	trop	-1	1	y	0.61842
358.2007	0.0	+	37	noun	phrase	1	1	match	grenier	5	1	p	0.56864
358.75059999999996	0.2	wcrbfn	37	noun	phrase	1	2	match	grenier	5	1	p	0.56864
358.9506	0.0	+	37	noun	phrase	1	3	match	grenier	5	1	p	0.56864
359.3506	0.2	mdrs	37	noun	phrase	1	4	match	grenier	5	1	p	0.56864
359.5506	0.0	+	37	noun	phrase	1	5	match	grenier	5	1	p	0.56864
359.9505	0.2	vzq	37	noun	phrase	1	6	match	grenier	5	1	p	0.56864
360.15049999999997	0.0	+	37	noun	phrase	1	7	match	grenier	5	1	p	0.56864
360.5505	0.2	bfzr	37	noun	phrase	1	8	match	grenier	5	1	p	0.56864
360.7505	0.0	+	37	noun	phrase	1	9	match	grenier	5	1	p	0.56864
361.1504	0.2	grenier	37	noun	phrase	1	10	match	grenier	5	1	p	0.56864
361.3504	0.0	+	37	noun	phrase	1	11	match	grenier	5	1	p	0.56864
361.75039999999996	0.0	+	37	noun	phrase	1	12	match	grenier	5	1	p	0.56864
363.7502	0.0	GRENIER	37	noun	phrase	1	13	match	grenier	5	1	p	0.56864
364.38349999999997	0.0	+	37	noun	phrase	1	14	match	grenier	5	1	p	0.56864
364.3189	0.0	[response]	37	noun	phrase	1	15	match	grenier	5	1	p	0.56864
366.15	0.0	+	38	verb	phrase	2	1	match	nager	4	1	p	0.48673000000000005
366.7	0.2	klhwd	38	verb	phrase	2	2	match	nager	4	1	p	0.48673000000000005
366.9	0.0	+	38	verb	phrase	2	3	match	nager	4	1	p	0.48673000000000005
367.3	0.2	bclj	38	verb	phrase	2	4	match	nager	4	1	p	0.48673000000000005
367.5	0.0	+	38	verb	phrase	2	5	match	nager	4	1	p	0.48673000000000005
367.8999	0.2	zmpt	38	verb	phrase	2	6	match	nager	4	1	p	0.48673000000000005
368.0999	0.0	+	38	verb	phrase	2	7	match	nager	4	1	p	0.48673000000000005
368.49989999999997	0.2	nager	38	verb	phrase	2	8	match	nager	4	1	p	0.48673000000000005
368.69989999999996	0.0	+	38	verb	phrase	2	9	match	nager	4	1	p	0.48673000000000005
369.09979999999996	0.2	vite	38	verb	phrase	2	10	match	nager	4	1	p	0.48673000000000005
369.2998	0.0	+	38	verb	phrase	2	11	match	nager	4	1	p	0.48673000000000005
369.6998	0.0	+	38	verb	phrase	2	12	match	nager	4	1	p	0.48673000000000005
371.6996	0.0	NAGER	38	verb	phrase	2	13	match	nager	4	1	p	0.48673000000000005
372.2496	0.0	+	38	verb	phrase	2	14	match	nager	4	1	p	0.48673000000000005
372.1864	0.0	[response]	38	verb	phrase	2	15	match	nager	4	1	p	0.48673000000000005
374.0994	0.0	+	39	noun	phrase	1	1	match	noir	5	1	p	0.57769
374.64939999999996	0.2	jgrmszd	39	noun	phrase	1	2	match	noir	5	1	p	0.57769
374.8494	0.0	+	39	noun	phrase	1	3	match	noir	5	1	p	0.57769
375.2494	0.2	gscb	39	noun	phrase	1	4	match	noir	5	1	p	0.57769
375.4493	0.0	+	39	noun	phrase	1	5	match	noir	5	1	p	0.57769
375.84929999999997	0.2	pjf	39	noun	phrase	1	6	match	noir	5	1	p	0.57769
376.04929999999996	0.0	+	39	noun	phrase	1	7	match	noir	5	1	p	0.57769
376.4493	0.2	kmfzsvl	39	noun	phrase	1	8	match	noir	5	1	p	0.57769
376.6493	0.0	+	39	noun	phrase	1	9	match	noir	5	1	p	0.57769
377.0492	0.2	noir	39	noun	phrase	1	10	match	noir	5	1	p	0.57769
377.2492	0.0	+	39	noun	phrase	1	11	match	noir	5	1	p	0.57769
377.6492	0.0	+	39	noun	phrase	1	12	match	noir	5	1	p	0.57769
379.649	0.0	NOIR	39	noun	phrase	1	13	match	noir	5	1	p	0.57769
380.28229999999996	0.0	+	39	noun	phrase	1	14	match	noir	5	1	p	0.57769
380.2267	0.0	[response]	39	noun	phrase	1	15	match	noir	5	1	p	0.57769
382.04879999999997	0.0	+	40	verb	phrase	4	1	match	va	3	1	p	0.78203
382.5988	0.2	hsl	40	verb	phrase	4	2	match	va	3	1	p	0.78203
382.79879999999997	0.0	+	40	verb	phrase	4	3	match	va	3	1	p	0.78203
383.1988	0.2	paul	40	verb	phrase	4	4	match	va	3	1	p	0.78203
383.39869999999996	0.0	+	40	verb	phrase	4	5	match	va	3	1	p	0.78203
383.7987	0.2	va	40	verb	phrase	4	6	match	va	3	1	p	0.78203
383.9987	0.0	+	40	verb	phrase	4	7	match	va	3	1	p	0.78203
384.39869999999996	0.2	plus	40	verb	phrase	4	8	match	va	3	1	p	0.78203
384.5986	0.0	+	40	verb	phrase	4	9	match	va	3	1	p	0.78203
384.9986	0.2	voyager	40	verb	phrase	4	10	match	va	3	1	p	0.78203
385.1986	0.0	+	40	verb	phrase	4	11	match	va	3	1	p	0.78203
385.5986	0.0	+	40	verb	phrase	4	12	match	va	3	1	p	0.78203
387.59839999999997	0.0	VA	40	verb	phrase	4	13	match	va	3	1	p	0.78203
388.44829999999996	0.0	+	40	verb	phrase	4	14	match	va	3	1	p	0.78203
388.3804	0.0	[response]	40	verb	phrase	4	15	match	va	3	1	p	0.78203
389.9982	0.0	+	41	noun	phrase	1	1	match	petit	5	1	p	0.6107
390.5482	0.2	trs	41	noun	phrase	1	2	match	petit	5	1	p	0.6107
390.7482	0.0	+	41	noun	phrase	1	3	match	petit	5	1	p	0.6107
391.1481	0.2	gscb	41	noun	phrase	1	4	match	petit	5	1	p	0.6107
391.3481	0.0	+	41	noun	phrase	1	5	match	petit	5	1	p	0.6107
391.74809999999997	0.2	vzq	41	noun	phrase	1	6	match	petit	5	1	p	0.6107
391.9481	0.0	+	41	noun	phrase	1	7	match	petit	5	1	p	0.6107
392.3481	0.2	pnjtbg	41	noun	phrase	1	8	match	petit	5	1	p	0.6107
392.548	0.0	+	41	noun	phrase	1	9	match	petit	5	1	p	0.6107
392.948	0.2	petit	41	noun	phrase	1	10	match	petit	5	1	p	0.6107
393.14799999999997	0.0	+	41	noun	phrase	1	11	match	petit	5	1	p	0.6107
393.548	0.0	+	41	noun	phrase	1	12	match	petit	5	1	p	0.6107
395.5478	0.0	PETIT	41	noun	phrase	1	13	match	petit	5	1	p	0.6107
396.2144	0.0	+	41	noun	phrase	1	14	match	petit	5	1	p	0.6107
396.1585	0.0	[response]	41	noun	phrase	1	15	match	petit	5	1	p	0.6107
413.9464	0.0	+	42	noun	list	1	1	nomatch	grand	-1	1	y	0.64604
414.4964	0.2	smlgt	42	noun	list	1	2	nomatch	grand	-1	1	y	0.64604
414.6963	0.0	+	42	noun	list	1	3	nomatch	grand	-1	1	y	0.64604
415.0963	0.2	phxz	42	noun	list	1	4	nomatch	grand	-1	1	y	0.64604
415.2963	0.0	+	42	noun	list	1	5	nomatch	grand	-1	1	y	0.64604
415.6963	0.2	zmpt	42	noun	list	1	6	nomatch	grand	-1	1	y	0.64604
415.89619999999996	0.0	+	42	noun	list	1	7	nomatch	grand	-1	1	y	0.64604
416.2962	0.2	zjqt	42	noun	list	1	8	nomatch	grand	-1	1	y	0.64604
416.4962	0.0	+	42	noun	list	1	9	nomatch	grand	-1	1	y	0.64604
416.89619999999996	0.2	casier	42	noun	list	1	10	nomatch	grand	-1	1	y	0.64604
417.0962	0.0	+	42	noun	list	1	11	nomatch	grand	-1	1	y	0.64604
417.49609999999996	0.0	+	42	noun	list	1	12	nomatch	grand	-1	1	y	0.64604
419.496	0.0	GRAND	42	noun	list	1	13	nomatch	grand	-1	1	y	0.64604
420.2126	0.0	+	42	noun	list	1	14	nomatch	grand	-1	1	y	0.64604
420.14200000000005	0.0	[response]	42	noun	list	1	15	nomatch	grand	-1	1	y	0.64604
421.8958	0.0	+	43	noun	list	2	1	match	boîtier	4	1	p	0.48301
422.4457	0.2	jkgh	43	noun	list	2	2	match	boîtier	4	1	p	0.48301
422.6457	0.0	+	43	noun	list	2	3	match	boîtier	4	1	p	0.48301
423.0457	0.2	lfnt	43	noun	list	2	4	match	boîtier	4	1	p	0.48301
423.2457	0.0	+	43	noun	list	2	5	match	boîtier	4	1	p	0.48301
423.6457	0.2	gxvf	43	noun	list	2	6	match	boîtier	4	1	p	0.48301
423.8456	0.0	+	43	noun	list	2	7	match	boîtier	4	1	p	0.48301
424.24559999999997	0.2	boîtier	43	noun	list	2	8	match	boîtier	4	1	p	0.48301
424.44559999999996	0.0	+	43	noun	list	2	9	match	boîtier	4	1	p	0.48301
424.8456	0.2	tard	43	noun	list	2	10	match	boîtier	4	1	p	0.48301
425.0455	0.0	+	43	noun	list	2	11	match	boîtier	4	1	p	0.48301
425.4455	0.0	+	43	noun	list	2	12	match	boîtier	4	1	p	0.48301
427.44539999999995	0.0	BOÎTIER	43	noun	list	2	13	match	boîtier	4	1	p	0.48301
427.99529999999993	0.0	+	43	noun	list	2	14	match	boîtier	4	1	p	0.48301
427.9284	0.0	[response]	43	noun	list	2	15	match	boîtier	4	1	p	0.48301
429.8452	0.0	+	44	noun	phrase	4	1	nomatch	son	-1	1	y	0.7212800000000001
430.39509999999996	0.2	sjpg	44	noun	phrase	4	2	nomatch	son	-1	1	y	0.7212800000000001
430.5951	0.0	+	44	noun	phrase	4	3	nomatch	son	-1	1	y	0.7212800000000001
430.9951	0.2	vers	44	noun	phrase	4	4	nomatch	son	-1	1	y	0.7212800000000001
431.1951	0.0	+	44	noun	phrase	4	5	nomatch	son	-1	1	y	0.7212800000000001
431.595	0.2	mon	44	noun	phrase	4	6	nomatch	son	-1	1	y	0.7212800000000001
431.79499999999996	0.0	+	44	noun	phrase	4	7	nomatch	son	-1	1	y	0.7212800000000001
432.19499999999994	0.2	grenier	44	noun	phrase	4	8	nomatch	son	-1	1	y	0.7212800000000001
432.395	0.0	+	44	noun	phrase	4	9	nomatch	son	-1	1	y	0.7212800000000001
432.79499999999996	0.2	noir	44	noun	phrase	4	10	nomatch	son	-1	1	y	0.7212800000000001
432.99490000000003	0.0	+	44	noun	phrase	4	11	nomatch	son	-1	1	y	0.7212800000000001
433.3949	0.0	+	44	noun	phrase	4	12	nomatch	son	-1	1	y	0.7212800000000001
435.39480000000003	0.0	SON	44	noun	phrase	4	13	nomatch	son	-1	1	y	0.7212800000000001
436.178	0.0	+	44	noun	phrase	4	14	nomatch	son	-1	1	y	0.7212800000000001
436.116	0.0	[response]	44	noun	phrase	4	15	nomatch	son	-1	1	y	0.7212800000000001
445.794	0.0	+	45	verb	phrase	3	1	match	galoper	5	1	p	0.96053
446.34389999999996	0.2	bqrxkn	45	verb	phrase	3	2	match	galoper	5	1	p	0.96053
446.5439	0.0	+	45	verb	phrase	3	3	match	galoper	5	1	p	0.96053
446.9439	0.2	bclj	45	verb	phrase	3	4	match	galoper	5	1	p	0.96053
447.14390000000003	0.0	+	45	verb	phrase	3	5	match	galoper	5	1	p	0.96053
447.54380000000003	0.2	va	45	verb	phrase	3	6	match	galoper	5	1	p	0.96053
447.74379999999996	0.0	+	45	verb	phrase	3	7	match	galoper	5	1	p	0.96053
448.14379999999994	0.2	plus	45	verb	phrase	3	8	match	galoper	5	1	p	0.96053
448.3438	0.0	+	45	verb	phrase	3	9	match	galoper	5	1	p	0.96053
448.7437	0.2	galoper	45	verb	phrase	3	10	match	galoper	5	1	p	0.96053
448.94370000000004	0.0	+	45	verb	phrase	3	11	match	galoper	5	1	p	0.96053
449.3437	0.0	+	45	verb	phrase	3	12	match	galoper	5	1	p	0.96053
451.34349999999995	0.0	GALOPER	45	verb	phrase	3	13	match	galoper	5	1	p	0.96053
452.3601	0.0	+	45	verb	phrase	3	14	match	galoper	5	1	p	0.96053
452.30409999999995	0.0	[response]	45	verb	phrase	3	15	match	galoper	5	1	p	0.96053
453.7433	0.0	+	46	noun	list	4	1	match	pour	2	1	p	0.9971000000000001
454.29329999999993	0.2	gzlq	46	noun	list	4	2	match	pour	2	1	p	0.9971000000000001
454.4933	0.0	+	46	noun	list	4	3	match	pour	2	1	p	0.9971000000000001
454.89329999999995	0.2	pour	46	noun	list	4	4	match	pour	2	1	p	0.9971000000000001
455.0932	0.0	+	46	noun	list	4	5	match	pour	2	1	p	0.9971000000000001
455.4932	0.2	peut	46	noun	list	4	6	match	pour	2	1	p	0.9971000000000001
455.69319999999993	0.0	+	46	noun	list	4	7	match	pour	2	1	p	0.9971000000000001
456.0932	0.2	grenier	46	noun	list	4	8	match	pour	2	1	p	0.9971000000000001
456.29319999999996	0.0	+	46	noun	list	4	9	match	pour	2	1	p	0.9971000000000001
456.69309999999996	0.2	ainsi	46	noun	list	4	10	match	pour	2	1	p	0.9971000000000001
456.8931	0.0	+	46	noun	list	4	11	match	pour	2	1	p	0.9971000000000001
457.2931	0.0	+	46	noun	list	4	12	match	pour	2	1	p	0.9971000000000001
459.29290000000003	0.0	POUR	46	noun	list	4	13	match	pour	2	1	p	0.9971000000000001
460.3595	0.0	+	46	noun	list	4	14	match	pour	2	1	p	0.9971000000000001
460.28999999999996	0.0	[response]	46	noun	list	4	15	match	pour	2	1	p	0.9971000000000001
461.69269999999995	0.0	+	47	verb	list	4	1	nomatch	grand	-1	1	y	0.7517700000000002
462.2427	0.2	rbdksf	47	verb	list	4	2	nomatch	grand	-1	1	y	0.7517700000000002
462.44269999999995	0.0	+	47	verb	list	4	3	nomatch	grand	-1	1	y	0.7517700000000002
462.84259999999995	0.2	avec	47	verb	list	4	4	nomatch	grand	-1	1	y	0.7517700000000002
463.0426	0.0	+	47	verb	list	4	5	nomatch	grand	-1	1	y	0.7517700000000002
463.44259999999997	0.2	va	47	verb	list	4	6	nomatch	grand	-1	1	y	0.7517700000000002
463.6426	0.0	+	47	verb	list	4	7	nomatch	grand	-1	1	y	0.7517700000000002
464.0426	0.2	nouveau	47	verb	list	4	8	nomatch	grand	-1	1	y	0.7517700000000002
464.24249999999995	0.0	+	47	verb	list	4	9	nomatch	grand	-1	1	y	0.7517700000000002
464.64250000000004	0.2	voyager	47	verb	list	4	10	nomatch	grand	-1	1	y	0.7517700000000002
464.8425	0.0	+	47	verb	list	4	11	nomatch	grand	-1	1	y	0.7517700000000002
465.24249999999995	0.0	+	47	verb	list	4	12	nomatch	grand	-1	1	y	0.7517700000000002
467.2423	0.0	GRAND	47	verb	list	4	13	nomatch	grand	-1	1	y	0.7517700000000002
468.0589	0.0	+	47	verb	list	4	14	nomatch	grand	-1	1	y	0.7517700000000002
467.9941000000001	0.0	[response]	47	verb	list	4	15	nomatch	grand	-1	1	y	0.7517700000000002
469.6421	0.0	+	48	verb	list	3	1	match	petit	4	1	p	0.87013
470.1921	0.2	dkgbszm	48	verb	list	3	2	match	petit	4	1	p	0.87013
470.3921	0.0	+	48	verb	list	3	3	match	petit	4	1	p	0.87013
470.79200000000003	0.2	xhls	48	verb	list	3	4	match	petit	4	1	p	0.87013
470.99199999999996	0.0	+	48	verb	list	3	5	match	petit	4	1	p	0.87013
471.39199999999994	0.2	peut	48	verb	list	3	6	match	petit	4	1	p	0.87013
471.592	0.0	+	48	verb	list	3	7	match	petit	4	1	p	0.87013
471.99199999999996	0.2	petit	48	verb	list	3	8	match	petit	4	1	p	0.87013
472.19190000000003	0.0	+	48	verb	list	3	9	match	petit	4	1	p	0.87013
472.5919	0.2	parader	48	verb	list	3	10	match	petit	4	1	p	0.87013
472.79189999999994	0.0	+	48	verb	list	3	11	match	petit	4	1	p	0.87013
473.19190000000003	0.0	+	48	verb	list	3	12	match	petit	4	1	p	0.87013
475.19169999999997	0.0	PETIT	48	verb	list	3	13	match	petit	4	1	p	0.87013
476.125	0.0	+	48	verb	list	3	14	match	petit	4	1	p	0.87013
476.06179999999995	0.0	[response]	48	verb	list	3	15	match	petit	4	1	p	0.87013
485.59090000000003	0.0	+	49	verb	list	4	1	nomatch	tard	-1	1	y	0.77324
486.1409	0.2	sbxl	49	verb	list	4	2	nomatch	tard	-1	1	y	0.77324
486.34090000000003	0.0	+	49	verb	list	4	3	nomatch	tard	-1	1	y	0.77324
486.74080000000004	0.2	sous	49	verb	list	4	4	nomatch	tard	-1	1	y	0.77324
486.94079999999997	0.0	+	49	verb	list	4	5	nomatch	tard	-1	1	y	0.77324
487.34079999999994	0.2	va	49	verb	list	4	6	nomatch	tard	-1	1	y	0.77324
487.5408	0.0	+	49	verb	list	4	7	nomatch	tard	-1	1	y	0.77324
487.9407	0.2	beau	49	verb	list	4	8	nomatch	tard	-1	1	y	0.77324
488.14070000000004	0.0	+	49	verb	list	4	9	nomatch	tard	-1	1	y	0.77324
488.5407	0.2	nager	49	verb	list	4	10	nomatch	tard	-1	1	y	0.77324
488.74069999999995	0.0	+	49	verb	list	4	11	nomatch	tard	-1	1	y	0.77324
489.14059999999995	0.0	+	49	verb	list	4	12	nomatch	tard	-1	1	y	0.77324
491.1405	0.0	TARD	49	verb	list	4	13	nomatch	tard	-1	1	y	0.77324
491.9737	0.0	+	49	verb	list	4	14	nomatch	tard	-1	1	y	0.77324
491.91369999999995	0.0	[response]	49	verb	list	4	15	nomatch	tard	-1	1	y	0.77324
501.53970000000004	0.0	+	50	noun	phrase	4	1	nomatch	nouveau	-1	1	y	0.75467
502.0896	0.2	xwpq	50	noun	phrase	4	2	nomatch	nouveau	-1	1	y	0.75467
502.28959999999995	0.0	+	50	noun	phrase	4	3	nomatch	nouveau	-1	1	y	0.75467
502.6895999999999	0.2	avec	50	noun	phrase	4	4	nomatch	nouveau	-1	1	y	0.75467
502.8896	0.0	+	50	noun	phrase	4	5	nomatch	nouveau	-1	1	y	0.75467
503.28959999999995	0.2	son	50	noun	phrase	4	6	nomatch	nouveau	-1	1	y	0.75467
503.4895	0.0	+	50	noun	phrase	4	7	nomatch	nouveau	-1	1	y	0.75467
503.8895	0.2	vieux	50	noun	phrase	4	8	nomatch	nouveau	-1	1	y	0.75467
504.08949999999993	0.0	+	50	noun	phrase	4	9	nomatch	nouveau	-1	1	y	0.75467
504.4895	0.2	boîtier	50	noun	phrase	4	10	nomatch	nouveau	-1	1	y	0.75467
504.6894	0.0	+	50	noun	phrase	4	11	nomatch	nouveau	-1	1	y	0.75467
505.08939999999996	0.0	+	50	noun	phrase	4	12	nomatch	nouveau	-1	1	y	0.75467
507.0893	0.0	NOUVEAU	50	noun	phrase	4	13	nomatch	nouveau	-1	1	y	0.75467
507.9059	0.0	+	50	noun	phrase	4	14	nomatch	nouveau	-1	1	y	0.75467
507.84389999999996	0.0	[response]	50	noun	phrase	4	15	nomatch	nouveau	-1	1	y	0.75467
517.4884999999999	0.0	+	51	noun	list	4	1	match	peut	3	1	p	0.74708
518.0384	0.2	jfl	51	noun	list	4	2	match	peut	3	1	p	0.74708
518.2384	0.0	+	51	noun	list	4	3	match	peut	3	1	p	0.74708
518.6383999999999	0.2	sans	51	noun	list	4	4	match	peut	3	1	p	0.74708
518.8384	0.0	+	51	noun	list	4	5	match	peut	3	1	p	0.74708
519.2383	0.2	peut	51	noun	list	4	6	match	peut	3	1	p	0.74708
519.4383	0.0	+	51	noun	list	4	7	match	peut	3	1	p	0.74708
519.8383	0.2	clavier	51	noun	list	4	8	match	peut	3	1	p	0.74708
520.0382999999999	0.0	+	51	noun	list	4	9	match	peut	3	1	p	0.74708
520.4381999999999	0.2	loin	51	noun	list	4	10	match	peut	3	1	p	0.74708
520.6382	0.0	+	51	noun	list	4	11	match	peut	3	1	p	0.74708
521.0382	0.0	+	51	noun	list	4	12	match	peut	3	1	p	0.74708
523.038	0.0	PEUT	51	noun	list	4	13	match	peut	3	1	p	0.74708
523.8546	0.0	+	51	noun	list	4	14	match	peut	3	1	p	0.74708
523.7850999999999	0.0	[response]	51	noun	list	4	15	match	peut	3	1	p	0.74708
525.4378	0.0	+	52	verb	list	1	1	nomatch	beau	-1	1	y	0.73183
525.9878	0.2	qjkszr	52	verb	list	1	2	nomatch	beau	-1	1	y	0.73183
526.1878	0.0	+	52	verb	list	1	3	nomatch	beau	-1	1	y	0.73183
526.5878	0.2	xhls	52	verb	list	1	4	nomatch	beau	-1	1	y	0.73183
526.7878	0.0	+	52	verb	list	1	5	nomatch	beau	-1	1	y	0.73183
527.1877	0.2	zmpt	52	verb	list	1	6	nomatch	beau	-1	1	y	0.73183
527.3877	0.0	+	52	verb	list	1	7	nomatch	beau	-1	1	y	0.73183
527.7877	0.2	gxchlzt	52	verb	list	1	8	nomatch	beau	-1	1	y	0.73183
527.9877	0.0	+	52	verb	list	1	9	nomatch	beau	-1	1	y	0.73183
528.3876	0.2	vieux	52	verb	list	1	10	nomatch	beau	-1	1	y	0.73183
528.5876	0.0	+	52	verb	list	1	11	nomatch	beau	-1	1	y	0.73183
528.9875999999999	0.0	+	52	verb	list	1	12	nomatch	beau	-1	1	y	0.73183
530.9874	0.0	BEAU	52	verb	list	1	13	nomatch	beau	-1	1	y	0.73183
531.7873999999999	0.0	+	52	verb	list	1	14	nomatch	beau	-1	1	y	0.73183
531.7193	0.0	[response]	52	verb	list	1	15	nomatch	beau	-1	1	y	0.73183
533.3872	0.0	+	53	verb	phrase	3	1	nomatch	chasser	-1	1	y	0.72432
533.9372	0.2	qgpcb	53	verb	phrase	3	2	nomatch	chasser	-1	1	y	0.72432
534.1372	0.0	+	53	verb	phrase	3	3	nomatch	chasser	-1	1	y	0.72432
534.5372	0.2	bclj	53	verb	phrase	3	4	nomatch	chasser	-1	1	y	0.72432
534.7370999999999	0.0	+	53	verb	phrase	3	5	nomatch	chasser	-1	1	y	0.72432
535.1371	0.2	doit	53	verb	phrase	3	6	nomatch	chasser	-1	1	y	0.72432
535.3371	0.0	+	53	verb	phrase	3	7	nomatch	chasser	-1	1	y	0.72432
535.7370999999999	0.2	patiner	53	verb	phrase	3	8	nomatch	chasser	-1	1	y	0.72432
535.9371	0.0	+	53	verb	phrase	3	9	nomatch	chasser	-1	1	y	0.72432
536.337	0.2	loin	53	verb	phrase	3	10	nomatch	chasser	-1	1	y	0.72432
536.537	0.0	+	53	verb	phrase	3	11	nomatch	chasser	-1	1	y	0.72432
536.937	0.0	+	53	verb	phrase	3	12	nomatch	chasser	-1	1	y	0.72432
538.9368	0.0	CHASSER	53	verb	phrase	3	13	nomatch	chasser	-1	1	y	0.72432
539.7201	0.0	+	53	verb	phrase	3	14	nomatch	chasser	-1	1	y	0.72432
539.6611	0.0	[response]	53	verb	phrase	3	15	nomatch	chasser	-1	1	y	0.72432
541.3366	0.0	+	54	verb	list	1	1	match	vert	5	1	p	0.90472
541.8865999999999	0.2	xbcnp	54	verb	list	1	2	match	vert	5	1	p	0.90472
542.0866	0.0	+	54	verb	list	1	3	match	vert	5	1	p	0.90472
542.4866	0.2	zvkc	54	verb	list	1	4	match	vert	5	1	p	0.90472
542.6865	0.0	+	54	verb	list	1	5	match	vert	5	1	p	0.90472
543.0865	0.2	pjf	54	verb	list	1	6	match	vert	5	1	p	0.90472
543.2864999999999	0.0	+	54	verb	list	1	7	match	vert	5	1	p	0.90472
543.6865	0.2	sxjnhdg	54	verb	list	1	8	match	vert	5	1	p	0.90472
543.8864	0.0	+	54	verb	list	1	9	match	vert	5	1	p	0.90472
544.2864	0.2	vert	54	verb	list	1	10	match	vert	5	1	p	0.90472
544.4866	0.0	+	54	verb	list	1	11	match	vert	5	1	p	0.90472
544.8864	0.0	+	54	verb	list	1	12	match	vert	5	1	p	0.90472
546.8862	0.0	VERT	54	verb	list	1	13	match	vert	5	1	p	0.90472
547.8528	0.0	+	54	verb	list	1	14	match	vert	5	1	p	0.90472
547.7909	0.0	[response]	54	verb	list	1	15	match	vert	5	1	p	0.90472
549.286	0.0	+	55	noun	phrase	1	1	nomatch	avec	-1	1	y	0.73941
549.836	0.2	lrxhdsj	55	noun	phrase	1	2	nomatch	avec	-1	1	y	0.73941
550.036	0.0	+	55	noun	phrase	1	3	nomatch	avec	-1	1	y	0.73941
550.4359	0.2	bjsm	55	noun	phrase	1	4	nomatch	avec	-1	1	y	0.73941
550.6359	0.0	+	55	noun	phrase	1	5	nomatch	avec	-1	1	y	0.73941
551.0359	0.2	vzq	55	noun	phrase	1	6	nomatch	avec	-1	1	y	0.73941
551.2359	0.0	+	55	noun	phrase	1	7	nomatch	avec	-1	1	y	0.73941
551.6358	0.2	dpfz	55	noun	phrase	1	8	nomatch	avec	-1	1	y	0.73941
551.8358	0.0	+	55	noun	phrase	1	9	nomatch	avec	-1	1	y	0.73941
552.2358	0.2	voilier	55	noun	phrase	1	10	nomatch	avec	-1	1	y	0.73941
552.4358	0.0	+	55	noun	phrase	1	11	nomatch	avec	-1	1	y	0.73941
552.8358	0.0	+	55	noun	phrase	1	12	nomatch	avec	-1	1	y	0.73941
554.8356	0.0	AVEC	55	noun	phrase	1	13	nomatch	avec	-1	1	y	0.73941
555.6355	0.0	+	55	noun	phrase	1	14	nomatch	avec	-1	1	y	0.73941
555.5749999999999	0.0	[response]	55	noun	phrase	1	15	nomatch	avec	-1	1	y	0.73941
557.2354	0.0	+	56	noun	list	1	1	nomatch	petit	-1	1	y	0.6717
557.7854	0.2	wfjrhn	56	noun	list	1	2	nomatch	petit	-1	1	y	0.6717
557.9854	0.0	+	56	noun	list	1	3	nomatch	petit	-1	1	y	0.6717
558.3853	0.2	mdrs	56	noun	list	1	4	nomatch	petit	-1	1	y	0.6717
558.5853	0.0	+	56	noun	list	1	5	nomatch	petit	-1	1	y	0.6717
558.9852999999999	0.2	zmpt	56	noun	list	1	6	nomatch	petit	-1	1	y	0.6717
559.1853	0.0	+	56	noun	list	1	7	nomatch	petit	-1	1	y	0.6717
559.5852	0.2	dhxvfsj	56	noun	list	1	8	nomatch	petit	-1	1	y	0.6717
559.7852	0.0	+	56	noun	list	1	9	nomatch	petit	-1	1	y	0.6717
560.1852	0.2	vite	56	noun	list	1	10	nomatch	petit	-1	1	y	0.6717
560.3851999999999	0.0	+	56	noun	list	1	11	nomatch	petit	-1	1	y	0.6717
560.7850999999999	0.0	+	56	noun	list	1	12	nomatch	petit	-1	1	y	0.6717
562.785	0.0	PETIT	56	noun	list	1	13	nomatch	petit	-1	1	y	0.6717
563.5183	0.0	+	56	noun	list	1	14	nomatch	petit	-1	1	y	0.6717
563.4567	0.0	[response]	56	noun	list	1	15	nomatch	petit	-1	1	y	0.6717
565.1848	0.0	+	57	verb	list	1	1	match	grand	5	1	p	0.63597
565.7348	0.2	mbdt	57	verb	list	1	2	match	grand	5	1	p	0.63597
565.9348	0.0	+	57	verb	list	1	3	match	grand	5	1	p	0.63597
566.3514	0.2	bjsm	57	verb	list	1	4	match	grand	5	1	p	0.63597
566.5514	0.0	+	57	verb	list	1	5	match	grand	5	1	p	0.63597
566.9513	0.2	gxvf	57	verb	list	1	6	match	grand	5	1	p	0.63597
567.1513	0.0	+	57	verb	list	1	7	match	grand	5	1	p	0.63597
567.5513	0.2	rpdczvl	57	verb	list	1	8	match	grand	5	1	p	0.63597
567.7513	0.0	+	57	verb	list	1	9	match	grand	5	1	p	0.63597
568.1513	0.2	grand	57	verb	list	1	10	match	grand	5	1	p	0.63597
568.3512	0.0	+	57	verb	list	1	11	match	grand	5	1	p	0.63597
568.7512	0.0	+	57	verb	list	1	12	match	grand	5	1	p	0.63597
570.7511	0.0	GRAND	57	verb	list	1	13	match	grand	5	1	p	0.63597
571.451	0.0	+	57	verb	list	1	14	match	grand	5	1	p	0.63597
571.387	0.0	[response]	57	verb	list	1	15	match	grand	5	1	p	0.63597
573.1509	0.0	+	58	verb	list	3	1	match	noir	5	1	p	0.83884
573.7008	0.2	sgt	58	verb	list	3	2	match	noir	5	1	p	0.83884
573.9008	0.0	+	58	verb	list	3	3	match	noir	5	1	p	0.83884
574.3008	0.2	zvkc	58	verb	list	3	4	match	noir	5	1	p	0.83884
574.5008	0.0	+	58	verb	list	3	5	match	noir	5	1	p	0.83884
574.9007	0.2	mon	58	verb	list	3	6	match	noir	5	1	p	0.83884
575.1007	0.0	+	58	verb	list	3	7	match	noir	5	1	p	0.83884
575.5006999999999	0.2	voyager	58	verb	list	3	8	match	noir	5	1	p	0.83884
575.7007	0.0	+	58	verb	list	3	9	match	noir	5	1	p	0.83884
576.1006	0.2	noir	58	verb	list	3	10	match	noir	5	1	p	0.83884
576.3006	0.0	+	58	verb	list	3	11	match	noir	5	1	p	0.83884
576.7006	0.0	+	58	verb	list	3	12	match	noir	5	1	p	0.83884
578.7004	0.0	NOIR	58	verb	list	3	13	match	noir	5	1	p	0.83884
579.6004	0.0	+	58	verb	list	3	14	match	noir	5	1	p	0.83884
579.5393	0.0	[response]	58	verb	list	3	15	match	noir	5	1	p	0.83884
581.1003	0.0	+	59	verb	phrase	4	1	nomatch	jean	-1	1	y	1.1848000000000003
581.6502	0.2	hvzmwj	59	verb	phrase	4	2	nomatch	jean	-1	1	y	1.1848000000000003
581.8502	0.0	+	59	verb	phrase	4	3	nomatch	jean	-1	1	y	1.1848000000000003
582.2502	0.2	luc	59	verb	phrase	4	4	nomatch	jean	-1	1	y	1.1848000000000003
582.4502	0.0	+	59	verb	phrase	4	5	nomatch	jean	-1	1	y	1.1848000000000003
582.8501	0.2	peut	59	verb	phrase	4	6	nomatch	jean	-1	1	y	1.1848000000000003
583.0500999999999	0.0	+	59	verb	phrase	4	7	nomatch	jean	-1	1	y	1.1848000000000003
583.4501	0.2	beaucoup	59	verb	phrase	4	8	nomatch	jean	-1	1	y	1.1848000000000003
583.6501	0.0	+	59	verb	phrase	4	9	nomatch	jean	-1	1	y	1.1848000000000003
584.05	0.2	galoper	59	verb	phrase	4	10	nomatch	jean	-1	1	y	1.1848000000000003
584.25	0.0	+	59	verb	phrase	4	11	nomatch	jean	-1	1	y	1.1848000000000003
584.65	0.0	+	59	verb	phrase	4	12	nomatch	jean	-1	1	y	1.1848000000000003
586.6498	0.0	JEAN	59	verb	phrase	4	13	nomatch	jean	-1	1	y	1.1848000000000003
587.8996999999999	0.0	+	59	verb	phrase	4	14	nomatch	jean	-1	1	y	1.1848000000000003
587.8346	0.0	[response]	59	verb	phrase	4	15	nomatch	jean	-1	1	y	1.1848000000000003
589.0495999999999	0.0	+	60	verb	list	3	1	match	doit	3	1	p	0.90381
589.5996	0.2	zqc	60	verb	list	3	2	match	doit	3	1	p	0.90381
589.7995999999999	0.0	+	60	verb	list	3	3	match	doit	3	1	p	0.90381
590.1996	0.2	bjsm	60	verb	list	3	4	match	doit	3	1	p	0.90381
590.3995	0.0	+	60	verb	list	3	5	match	doit	3	1	p	0.90381
590.7995	0.2	doit	60	verb	list	3	6	match	doit	3	1	p	0.90381
590.9995	0.0	+	60	verb	list	3	7	match	doit	3	1	p	0.90381
591.3995	0.2	beau	60	verb	list	3	8	match	doit	3	1	p	0.90381
591.5995	0.0	+	60	verb	list	3	9	match	doit	3	1	p	0.90381
591.9994	0.2	jongler	60	verb	list	3	10	match	doit	3	1	p	0.90381
592.1994	0.0	+	60	verb	list	3	11	match	doit	3	1	p	0.90381
592.5994	0.0	+	60	verb	list	3	12	match	doit	3	1	p	0.90381
594.5992	0.0	DOIT	60	verb	list	3	13	match	doit	3	1	p	0.90381
595.5658	0.0	+	60	verb	list	3	14	match	doit	3	1	p	0.90381
595.5029999999999	0.0	[response]	60	verb	list	3	15	match	doit	3	1	p	0.90381
596.999	0.0	+	61	verb	list	1	1	match	petit	5	1	p	0.56413
597.549	0.2	xftpdv	61	verb	list	1	2	match	petit	5	1	p	0.56413
597.749	0.0	+	61	verb	list	1	3	match	petit	5	1	p	0.56413
598.149	0.2	lfnt	61	verb	list	1	4	match	petit	5	1	p	0.56413
598.3489	0.0	+	61	verb	list	1	5	match	petit	5	1	p	0.56413
598.7488999999999	0.2	xv	61	verb	list	1	6	match	petit	5	1	p	0.56413
598.9489	0.0	+	61	verb	list	1	7	match	petit	5	1	p	0.56413
599.3489	0.2	rnxhwcm	61	verb	list	1	8	match	petit	5	1	p	0.56413
599.5488	0.0	+	61	verb	list	1	9	match	petit	5	1	p	0.56413
599.9488	0.2	petit	61	verb	list	1	10	match	petit	5	1	p	0.56413
600.1487999999999	0.0	+	61	verb	list	1	11	match	petit	5	1	p	0.56413
600.5488	0.0	+	61	verb	list	1	12	match	petit	5	1	p	0.56413
602.5486	0.0	PETIT	61	verb	list	1	13	match	petit	5	1	p	0.56413
603.1818999999999	0.0	+	61	verb	list	1	14	match	petit	5	1	p	0.56413
603.1127	0.0	[response]	61	verb	list	1	15	match	petit	5	1	p	0.56413
604.9484	0.0	+	62	noun	phrase	1	1	match	grenier	5	1	p	0.68691
605.4984	0.2	cmxv	62	noun	phrase	1	2	match	grenier	5	1	p	0.68691
605.6984	0.0	+	62	noun	phrase	1	3	match	grenier	5	1	p	0.68691
606.0983	0.2	mdrs	62	noun	phrase	1	4	match	grenier	5	1	p	0.68691
606.2983	0.0	+	62	noun	phrase	1	5	match	grenier	5	1	p	0.68691
606.6983	0.2	dljz	62	noun	phrase	1	6	match	grenier	5	1	p	0.68691
606.8983	0.0	+	62	noun	phrase	1	7	match	grenier	5	1	p	0.68691
607.2983	0.2	hmdvrlb	62	noun	phrase	1	8	match	grenier	5	1	p	0.68691
607.4982	0.0	+	62	noun	phrase	1	9	match	grenier	5	1	p	0.68691
607.8982	0.2	grenier	62	noun	phrase	1	10	match	grenier	5	1	p	0.68691
608.0982	0.0	+	62	noun	phrase	1	11	match	grenier	5	1	p	0.68691
608.4982	0.0	+	62	noun	phrase	1	12	match	grenier	5	1	p	0.68691
610.4979999999999	0.0	GRENIER	62	noun	phrase	1	13	match	grenier	5	1	p	0.68691
611.2479	0.0	+	62	noun	phrase	1	14	match	grenier	5	1	p	0.68691
611.1849	0.0	[response]	62	noun	phrase	1	15	match	grenier	5	1	p	0.68691
612.8978	0.0	+	63	verb	list	1	1	match	grand	5	1	p	0.6116
613.4478	0.2	gwmsnp	63	verb	list	1	2	match	grand	5	1	p	0.6116
613.6478	0.0	+	63	verb	list	1	3	match	grand	5	1	p	0.6116
614.0477	0.2	bjsm	63	verb	list	1	4	match	grand	5	1	p	0.6116
614.2477	0.0	+	63	verb	list	1	5	match	grand	5	1	p	0.6116
614.6477	0.2	gxvf	63	verb	list	1	6	match	grand	5	1	p	0.6116
614.8477	0.0	+	63	verb	list	1	7	match	grand	5	1	p	0.6116
615.2476	0.2	fkjrqdc	63	verb	list	1	8	match	grand	5	1	p	0.6116
615.4476	0.0	+	63	verb	list	1	9	match	grand	5	1	p	0.6116
615.8475999999999	0.2	grand	63	verb	list	1	10	match	grand	5	1	p	0.6116
616.0476	0.0	+	63	verb	list	1	11	match	grand	5	1	p	0.6116
616.4476	0.0	+	63	verb	list	1	12	match	grand	5	1	p	0.6116
618.4474	0.0	GRAND	63	verb	list	1	13	match	grand	5	1	p	0.6116
619.114	0.0	+	63	verb	list	1	14	match	grand	5	1	p	0.6116
619.059	0.0	[response]	63	verb	list	1	15	match	grand	5	1	p	0.6116
628.8466	0.0	+	64	verb	list	3	1	nomatch	mon	-1	1	y	0.6782100000000001
629.3966	0.2	jhnwc	64	verb	list	3	2	nomatch	mon	-1	1	y	0.6782100000000001
629.5965	0.0	+	64	verb	list	3	3	nomatch	mon	-1	1	y	0.6782100000000001
629.9965	0.2	bclj	64	verb	list	3	4	nomatch	mon	-1	1	y	0.6782100000000001
630.1965	0.0	+	64	verb	list	3	5	nomatch	mon	-1	1	y	0.6782100000000001
630.5965	0.2	son	64	verb	list	3	6	nomatch	mon	-1	1	y	0.6782100000000001
630.7965	0.0	+	64	verb	list	3	7	nomatch	mon	-1	1	y	0.6782100000000001
631.1964	0.2	nager	64	verb	list	3	8	nomatch	mon	-1	1	y	0.6782100000000001
631.3964	0.0	+	64	verb	list	3	9	nomatch	mon	-1	1	y	0.6782100000000001
631.7964	0.2	blanc	64	verb	list	3	10	nomatch	mon	-1	1	y	0.6782100000000001
631.9964	0.0	+	64	verb	list	3	11	nomatch	mon	-1	1	y	0.6782100000000001
632.3963	0.0	+	64	verb	list	3	12	nomatch	mon	-1	1	y	0.6782100000000001
634.3962	0.0	MON	64	verb	list	3	13	nomatch	mon	-1	1	y	0.6782100000000001
635.1294	0.0	+	64	verb	list	3	14	nomatch	mon	-1	1	y	0.6782100000000001
635.0744	0.0	[response]	64	verb	list	3	15	nomatch	mon	-1	1	y	0.6782100000000001
636.7959999999999	0.0	+	65	verb	phrase	1	1	nomatch	jongler	-1	1	y	0.92276
637.346	0.2	gvqj	65	verb	phrase	1	2	nomatch	jongler	-1	1	y	0.92276
637.5459	0.0	+	65	verb	phrase	1	3	nomatch	jongler	-1	1	y	0.92276
637.9458999999999	0.2	jgvm	65	verb	phrase	1	4	nomatch	jongler	-1	1	y	0.92276
638.1459	0.0	+	65	verb	phrase	1	5	nomatch	jongler	-1	1	y	0.92276
638.5459	0.2	zmpt	65	verb	phrase	1	6	nomatch	jongler	-1	1	y	0.92276
638.7458	0.0	+	65	verb	phrase	1	7	nomatch	jongler	-1	1	y	0.92276
639.1458	0.2	mtlhd	65	verb	phrase	1	8	nomatch	jongler	-1	1	y	0.92276
639.3457999999999	0.0	+	65	verb	phrase	1	9	nomatch	jongler	-1	1	y	0.92276
639.7458	0.2	patiner	65	verb	phrase	1	10	nomatch	jongler	-1	1	y	0.92276
639.9458	0.0	+	65	verb	phrase	1	11	nomatch	jongler	-1	1	y	0.92276
640.3457	0.0	+	65	verb	phrase	1	12	nomatch	jongler	-1	1	y	0.92276
642.3456	0.0	JONGLER	65	verb	phrase	1	13	nomatch	jongler	-1	1	y	0.92276
643.3288	0.0	+	65	verb	phrase	1	14	nomatch	jongler	-1	1	y	0.92276
643.2683000000001	0.0	[response]	65	verb	phrase	1	15	nomatch	jongler	-1	1	y	0.92276
644.7454	0.0	+	66	verb	phrase	3	1	nomatch	dans	-1	1	y	0.58539
645.2953	0.2	ptfbhjc	66	verb	phrase	3	2	nomatch	dans	-1	1	y	0.58539
645.4952999999999	0.0	+	66	verb	phrase	3	3	nomatch	dans	-1	1	y	0.58539
645.8953	0.2	zvkc	66	verb	phrase	3	4	nomatch	dans	-1	1	y	0.58539
646.0953	0.0	+	66	verb	phrase	3	5	nomatch	dans	-1	1	y	0.58539
646.4952	0.2	peut	66	verb	phrase	3	6	nomatch	dans	-1	1	y	0.58539
646.6952	0.0	+	66	verb	phrase	3	7	nomatch	dans	-1	1	y	0.58539
647.0952	0.2	moins	66	verb	phrase	3	8	nomatch	dans	-1	1	y	0.58539
647.2952	0.0	+	66	verb	phrase	3	9	nomatch	dans	-1	1	y	0.58539
647.6952	0.2	chasser	66	verb	phrase	3	10	nomatch	dans	-1	1	y	0.58539
647.8951	0.0	+	66	verb	phrase	3	11	nomatch	dans	-1	1	y	0.58539
648.2950999999999	0.0	+	66	verb	phrase	3	12	nomatch	dans	-1	1	y	0.58539
650.295	0.0	DANS	66	verb	phrase	3	13	nomatch	dans	-1	1	y	0.58539
650.9449	0.0	+	66	verb	phrase	3	14	nomatch	dans	-1	1	y	0.58539
650.8803	0.0	[response]	66	verb	phrase	3	15	nomatch	dans	-1	1	y	0.58539
652.6948	0.0	+	67	verb	phrase	1	1	nomatch	tablier	-1	1	y	0.9498200000000001
653.2447	0.2	hwvt	67	verb	phrase	1	2	nomatch	tablier	-1	1	y	0.9498200000000001
653.4447	0.0	+	67	verb	phrase	1	3	nomatch	tablier	-1	1	y	0.9498200000000001
653.8447	0.2	kvgl	67	verb	phrase	1	4	nomatch	tablier	-1	1	y	0.9498200000000001
654.0447	0.0	+	67	verb	phrase	1	5	nomatch	tablier	-1	1	y	0.9498200000000001
654.4446	0.2	gxvf	67	verb	phrase	1	6	nomatch	tablier	-1	1	y	0.9498200000000001
654.6446	0.0	+	67	verb	phrase	1	7	nomatch	tablier	-1	1	y	0.9498200000000001
655.0446	0.2	rpdczvl	67	verb	phrase	1	8	nomatch	tablier	-1	1	y	0.9498200000000001
655.2446	0.0	+	67	verb	phrase	1	9	nomatch	tablier	-1	1	y	0.9498200000000001
655.6445	0.2	trop	67	verb	phrase	1	10	nomatch	tablier	-1	1	y	0.9498200000000001
655.8445	0.0	+	67	verb	phrase	1	11	nomatch	tablier	-1	1	y	0.9498200000000001
656.2445	0.0	+	67	verb	phrase	1	12	nomatch	tablier	-1	1	y	0.9498200000000001
658.2443	0.0	TABLIER	67	verb	phrase	1	13	nomatch	tablier	-1	1	y	0.9498200000000001
659.2609	0.0	+	67	verb	phrase	1	14	nomatch	tablier	-1	1	y	0.9498200000000001
659.1942	0.0	[response]	67	verb	phrase	1	15	nomatch	tablier	-1	1	y	0.9498200000000001
660.6442	0.0	+	68	noun	phrase	1	1	nomatch	jongler	-1	1	y	0.7185800000000001
661.1940999999999	0.2	gdmtvf	68	noun	phrase	1	2	nomatch	jongler	-1	1	y	0.7185800000000001
661.3941	0.0	+	68	noun	phrase	1	3	nomatch	jongler	-1	1	y	0.7185800000000001
661.7941	0.2	gscb	68	noun	phrase	1	4	nomatch	jongler	-1	1	y	0.7185800000000001
661.9941	0.0	+	68	noun	phrase	1	5	nomatch	jongler	-1	1	y	0.7185800000000001
662.394	0.2	dljz	68	noun	phrase	1	6	nomatch	jongler	-1	1	y	0.7185800000000001
662.5939999999999	0.0	+	68	noun	phrase	1	7	nomatch	jongler	-1	1	y	0.7185800000000001
662.994	0.2	sgrz	68	noun	phrase	1	8	nomatch	jongler	-1	1	y	0.7185800000000001
663.194	0.0	+	68	noun	phrase	1	9	nomatch	jongler	-1	1	y	0.7185800000000001
663.5939	0.2	rocher	68	noun	phrase	1	10	nomatch	jongler	-1	1	y	0.7185800000000001
663.7939	0.0	+	68	noun	phrase	1	11	nomatch	jongler	-1	1	y	0.7185800000000001
664.1939	0.0	+	68	noun	phrase	1	12	nomatch	jongler	-1	1	y	0.7185800000000001
666.1937	0.0	JONGLER	68	noun	phrase	1	13	nomatch	jongler	-1	1	y	0.7185800000000001
666.977	0.0	+	68	noun	phrase	1	14	nomatch	jongler	-1	1	y	0.7185800000000001
666.9123000000001	0.0	[response]	68	noun	phrase	1	15	nomatch	jongler	-1	1	y	0.7185800000000001
668.5935	0.0	+	69	verb	list	2	1	match	galoper	4	1	p	0.93299
669.1435	0.2	kzmd	69	verb	list	2	2	match	galoper	4	1	p	0.93299
669.3435	0.0	+	69	verb	list	2	3	match	galoper	4	1	p	0.93299
669.7435	0.2	jgvm	69	verb	list	2	4	match	galoper	4	1	p	0.93299
669.9435	0.0	+	69	verb	list	2	5	match	galoper	4	1	p	0.93299
670.3434	0.2	pjf	69	verb	list	2	6	match	galoper	4	1	p	0.93299
670.5434	0.0	+	69	verb	list	2	7	match	galoper	4	1	p	0.93299
670.9434	0.2	galoper	69	verb	list	2	8	match	galoper	4	1	p	0.93299
671.1433999999999	0.0	+	69	verb	list	2	9	match	galoper	4	1	p	0.93299
671.5432999999999	0.2	vert	69	verb	list	2	10	match	galoper	4	1	p	0.93299
671.7433	0.0	+	69	verb	list	2	11	match	galoper	4	1	p	0.93299
672.1433	0.0	+	69	verb	list	2	12	match	galoper	4	1	p	0.93299
674.1431	0.0	GALOPER	69	verb	list	2	13	match	galoper	4	1	p	0.93299
675.143	0.0	+	69	verb	list	2	14	match	galoper	4	1	p	0.93299
675.0761000000001	0.0	[response]	69	verb	list	2	15	match	galoper	4	1	p	0.93299
676.5429	0.0	+	70	verb	phrase	1	1	nomatch	voyager	-1	1	y	0.78953
677.0929	0.2	kdfq	70	verb	phrase	1	2	nomatch	voyager	-1	1	y	0.78953
677.2929	0.0	+	70	verb	phrase	1	3	nomatch	voyager	-1	1	y	0.78953
677.6929	0.2	zvkc	70	verb	phrase	1	4	nomatch	voyager	-1	1	y	0.78953
677.8928	0.0	+	70	verb	phrase	1	5	nomatch	voyager	-1	1	y	0.78953
678.2927999999999	0.2	gxvf	70	verb	phrase	1	6	nomatch	voyager	-1	1	y	0.78953
678.4928	0.0	+	70	verb	phrase	1	7	nomatch	voyager	-1	1	y	0.78953
678.8928	0.2	lbzh	70	verb	phrase	1	8	nomatch	voyager	-1	1	y	0.78953
679.0928	0.0	+	70	verb	phrase	1	9	nomatch	voyager	-1	1	y	0.78953
679.4927	0.2	jongler	70	verb	phrase	1	10	nomatch	voyager	-1	1	y	0.78953
679.6927	0.0	+	70	verb	phrase	1	11	nomatch	voyager	-1	1	y	0.78953
680.0927	0.0	+	70	verb	phrase	1	12	nomatch	voyager	-1	1	y	0.78953
682.0925	0.0	VOYAGER	70	verb	phrase	1	13	nomatch	voyager	-1	1	y	0.78953
682.9424	0.0	+	70	verb	phrase	1	14	nomatch	voyager	-1	1	y	0.78953
682.8821	0.0	[response]	70	verb	phrase	1	15	nomatch	voyager	-1	1	y	0.78953
684.4923	0.0	+	71	noun	list	2	1	match	tablier	5	1	p	0.93869
685.0423	0.2	kmjqf	71	noun	list	2	2	match	tablier	5	1	p	0.93869
685.2423	0.0	+	71	noun	list	2	3	match	tablier	5	1	p	0.93869
685.6422	0.2	kvgl	71	noun	list	2	4	match	tablier	5	1	p	0.93869
685.8421999999999	0.0	+	71	noun	list	2	5	match	tablier	5	1	p	0.93869
686.2422	0.2	vzq	71	noun	list	2	6	match	tablier	5	1	p	0.93869
686.4422	0.0	+	71	noun	list	2	7	match	tablier	5	1	p	0.93869
686.8421999999999	0.2	plus	71	noun	list	2	8	match	tablier	5	1	p	0.93869
687.0421	0.0	+	71	noun	list	2	9	match	tablier	5	1	p	0.93869
687.4421	0.2	tablier	71	noun	list	2	10	match	tablier	5	1	p	0.93869
687.6421	0.0	+	71	noun	list	2	11	match	tablier	5	1	p	0.93869
688.0421	0.0	+	71	noun	list	2	12	match	tablier	5	1	p	0.93869
690.0418999999999	0.0	TABLIER	71	noun	list	2	13	match	tablier	5	1	p	0.93869
691.0418	0.0	+	71	noun	list	2	14	match	tablier	5	1	p	0.93869
690.9806	0.0	[response]	71	noun	list	2	15	match	tablier	5	1	p	0.93869
692.4417	0.0	+	72	verb	list	2	1	match	noir	5	1	p	0.77686
692.9917	0.2	jsqvdg	72	verb	list	2	2	match	noir	5	1	p	0.77686
693.1917	0.0	+	72	verb	list	2	3	match	noir	5	1	p	0.77686
693.5916	0.2	hmzf	72	verb	list	2	4	match	noir	5	1	p	0.77686
693.7916	0.0	+	72	verb	list	2	5	match	noir	5	1	p	0.77686
694.1916	0.2	dljz	72	verb	list	2	6	match	noir	5	1	p	0.77686
694.3916	0.0	+	72	verb	list	2	7	match	noir	5	1	p	0.77686
694.7914999999999	0.2	chasser	72	verb	list	2	8	match	noir	5	1	p	0.77686
694.9915	0.0	+	72	verb	list	2	9	match	noir	5	1	p	0.77686
695.3915	0.2	noir	72	verb	list	2	10	match	noir	5	1	p	0.77686
695.5915	0.0	+	72	verb	list	2	11	match	noir	5	1	p	0.77686
695.9915	0.0	+	72	verb	list	2	12	match	noir	5	1	p	0.77686
697.9913	0.0	NOIR	72	verb	list	2	13	match	noir	5	1	p	0.77686
698.8246	0.0	+	72	verb	list	2	14	match	noir	5	1	p	0.77686
698.7682000000001	0.0	[response]	72	verb	list	2	15	match	noir	5	1	p	0.77686
700.3910999999999	0.0	+	73	verb	phrase	1	1	match	rouler	5	1	p	0.50913
700.9411	0.2	dwg	73	verb	phrase	1	2	match	rouler	5	1	p	0.50913
701.1410999999999	0.0	+	73	verb	phrase	1	3	match	rouler	5	1	p	0.50913
701.5409999999999	0.2	ljxk	73	verb	phrase	1	4	match	rouler	5	1	p	0.50913
701.741	0.0	+	73	verb	phrase	1	5	match	rouler	5	1	p	0.50913
702.141	0.2	gxvf	73	verb	phrase	1	6	match	rouler	5	1	p	0.50913
702.341	0.0	+	73	verb	phrase	1	7	match	rouler	5	1	p	0.50913
702.7409	0.2	fkmv	73	verb	phrase	1	8	match	rouler	5	1	p	0.50913
702.9408999999999	0.0	+	73	verb	phrase	1	9	match	rouler	5	1	p	0.50913
703.3409	0.2	rouler	73	verb	phrase	1	10	match	rouler	5	1	p	0.50913
703.5409	0.0	+	73	verb	phrase	1	11	match	rouler	5	1	p	0.50913
703.9408	0.0	+	73	verb	phrase	1	12	match	rouler	5	1	p	0.50913
705.9407	0.0	ROULER	73	verb	phrase	1	13	match	rouler	5	1	p	0.50913
706.5073	0.0	+	73	verb	phrase	1	14	match	rouler	5	1	p	0.50913
706.4498	0.0	[response]	73	verb	phrase	1	15	match	rouler	5	1	p	0.50913
708.3405	0.0	+	74	verb	phrase	1	1	match	galoper	5	1	p	0.52988
708.8905	0.2	nctwd	74	verb	phrase	1	2	match	galoper	5	1	p	0.52988
709.0905	0.0	+	74	verb	phrase	1	3	match	galoper	5	1	p	0.52988
709.4904	0.2	jgvm	74	verb	phrase	1	4	match	galoper	5	1	p	0.52988
709.6904	0.0	+	74	verb	phrase	1	5	match	galoper	5	1	p	0.52988
710.0903999999999	0.2	xv	74	verb	phrase	1	6	match	galoper	5	1	p	0.52988
710.2904	0.0	+	74	verb	phrase	1	7	match	galoper	5	1	p	0.52988
710.6903	0.2	hwtnx	74	verb	phrase	1	8	match	galoper	5	1	p	0.52988
710.8903	0.0	+	74	verb	phrase	1	9	match	galoper	5	1	p	0.52988
711.2903	0.2	galoper	74	verb	phrase	1	10	match	galoper	5	1	p	0.52988
711.4902999999999	0.0	+	74	verb	phrase	1	11	match	galoper	5	1	p	0.52988
711.8901999999999	0.0	+	74	verb	phrase	1	12	match	galoper	5	1	p	0.52988
713.8901	0.0	GALOPER	74	verb	phrase	1	13	match	galoper	5	1	p	0.52988
714.49	0.0	+	74	verb	phrase	1	14	match	galoper	5	1	p	0.52988
714.42	0.0	[response]	74	verb	phrase	1	15	match	galoper	5	1	p	0.52988
716.2899	0.0	+	75	verb	phrase	1	1	match	nager	5	1	p	0.79239
716.8399	0.2	xsvw	75	verb	phrase	1	2	match	nager	5	1	p	0.79239
717.0398	0.0	+	75	verb	phrase	1	3	match	nager	5	1	p	0.79239
717.4398	0.2	ljxk	75	verb	phrase	1	4	match	nager	5	1	p	0.79239
717.6398	0.0	+	75	verb	phrase	1	5	match	nager	5	1	p	0.79239
718.0398	0.2	gxvf	75	verb	phrase	1	6	match	nager	5	1	p	0.79239
718.2398	0.0	+	75	verb	phrase	1	7	match	nager	5	1	p	0.79239
718.6397	0.2	mfwx	75	verb	phrase	1	8	match	nager	5	1	p	0.79239
718.8397	0.0	+	75	verb	phrase	1	9	match	nager	5	1	p	0.79239
719.2397	0.2	nager	75	verb	phrase	1	10	match	nager	5	1	p	0.79239
719.4397	0.0	+	75	verb	phrase	1	11	match	nager	5	1	p	0.79239
719.8396	0.0	+	75	verb	phrase	1	12	match	nager	5	1	p	0.79239
721.8394999999999	0.0	NAGER	75	verb	phrase	1	13	match	nager	5	1	p	0.79239
722.6894	0.0	+	75	verb	phrase	1	14	match	nager	5	1	p	0.79239
722.6319	0.0	[response]	75	verb	phrase	1	15	match	nager	5	1	p	0.79239
724.2393	0.0	+	76	verb	phrase	4	1	match	mieux	4	1	p	0.8587
724.7891999999999	0.2	lzh	76	verb	phrase	4	2	match	mieux	4	1	p	0.8587
724.9892	0.0	+	76	verb	phrase	4	3	match	mieux	4	1	p	0.8587
725.3892	0.2	adam	76	verb	phrase	4	4	match	mieux	4	1	p	0.8587
725.5892	0.0	+	76	verb	phrase	4	5	match	mieux	4	1	p	0.8587
725.9895	0.2	doit	76	verb	phrase	4	6	match	mieux	4	1	p	0.8587
726.1890999999999	0.0	+	76	verb	phrase	4	7	match	mieux	4	1	p	0.8587
726.5891	0.2	mieux	76	verb	phrase	4	8	match	mieux	4	1	p	0.8587
726.7891	0.0	+	76	verb	phrase	4	9	match	mieux	4	1	p	0.8587
727.1890999999999	0.2	rouler	76	verb	phrase	4	10	match	mieux	4	1	p	0.8587
727.389	0.0	+	76	verb	phrase	4	11	match	mieux	4	1	p	0.8587
727.789	0.0	+	76	verb	phrase	4	12	match	mieux	4	1	p	0.8587
729.7889	0.0	MIEUX	76	verb	phrase	4	13	match	mieux	4	1	p	0.8587
730.7055	0.0	+	76	verb	phrase	4	14	match	mieux	4	1	p	0.8587
730.6476000000001	0.0	[response]	76	verb	phrase	4	15	match	mieux	4	1	p	0.8587
732.1887	0.0	+	77	verb	phrase	3	1	nomatch	plus	-1	1	y	1.3253
732.7386	0.2	zlqjcd	77	verb	phrase	3	2	nomatch	plus	-1	1	y	1.3253
732.9386	0.0	+	77	verb	phrase	3	3	nomatch	plus	-1	1	y	1.3253
733.3385999999999	0.2	zvkc	77	verb	phrase	3	4	nomatch	plus	-1	1	y	1.3253
733.5386	0.0	+	77	verb	phrase	3	5	nomatch	plus	-1	1	y	1.3253
733.9385	0.2	peut	77	verb	phrase	3	6	nomatch	plus	-1	1	y	1.3253
734.1385	0.0	+	77	verb	phrase	3	7	nomatch	plus	-1	1	y	1.3253
734.5385	0.2	parader	77	verb	phrase	3	8	nomatch	plus	-1	1	y	1.3253
734.7384999999999	0.0	+	77	verb	phrase	3	9	nomatch	plus	-1	1	y	1.3253
735.1385	0.2	vite	77	verb	phrase	3	10	nomatch	plus	-1	1	y	1.3253
735.3384	0.0	+	77	verb	phrase	3	11	nomatch	plus	-1	1	y	1.3253
735.7384	0.0	+	77	verb	phrase	3	12	nomatch	plus	-1	1	y	1.3253
737.7383	0.0	PLUS	77	verb	phrase	3	13	nomatch	plus	-1	1	y	1.3253
739.1215	0.0	+	77	verb	phrase	3	14	nomatch	plus	-1	1	y	1.3253
739.0636	0.0	[response]	77	verb	phrase	3	15	nomatch	plus	-1	1	y	1.3253
740.1381	0.0	+	78	verb	phrase	4	1	match	tard	5	1	p	0.80655
740.688	0.2	pzjl	78	verb	phrase	4	2	match	tard	5	1	p	0.80655
740.888	0.0	+	78	verb	phrase	4	3	match	tard	5	1	p	0.80655
741.288	0.2	jean	78	verb	phrase	4	4	match	tard	5	1	p	0.80655
741.4879999999999	0.0	+	78	verb	phrase	4	5	match	tard	5	1	p	0.80655
741.8879	0.2	va	78	verb	phrase	4	6	match	tard	5	1	p	0.80655
742.0879	0.0	+	78	verb	phrase	4	7	match	tard	5	1	p	0.80655
742.4879	0.2	galoper	78	verb	phrase	4	8	match	tard	5	1	p	0.80655
742.6879	0.0	+	78	verb	phrase	4	9	match	tard	5	1	p	0.80655
743.0878	0.2	tard	78	verb	phrase	4	10	match	tard	5	1	p	0.80655
743.2878	0.0	+	78	verb	phrase	4	11	match	tard	5	1	p	0.80655
743.6878	0.0	+	78	verb	phrase	4	12	match	tard	5	1	p	0.80655
745.6876	0.0	TARD	78	verb	phrase	4	13	match	tard	5	1	p	0.80655
746.5542	0.0	+	78	verb	phrase	4	14	match	tard	5	1	p	0.80655
746.4942000000001	0.0	[response]	78	verb	phrase	4	15	match	tard	5	1	p	0.80655
748.0875	0.0	+	79	noun	phrase	4	1	match	leur	3	1	p	0.7885
748.6374	0.2	hrlxw	79	noun	phrase	4	2	match	leur	3	1	p	0.7885
748.8374	0.0	+	79	noun	phrase	4	3	match	leur	3	1	p	0.7885
749.2374	0.2	avec	79	noun	phrase	4	4	match	leur	3	1	p	0.7885
749.4374	0.0	+	79	noun	phrase	4	5	match	leur	3	1	p	0.7885
749.8373	0.2	leur	79	noun	phrase	4	6	match	leur	3	1	p	0.7885
750.0373	0.0	+	79	noun	phrase	4	7	match	leur	3	1	p	0.7885
750.4372999999999	0.2	rocher	79	noun	phrase	4	8	match	leur	3	1	p	0.7885
750.6373	0.0	+	79	noun	phrase	4	9	match	leur	3	1	p	0.7885
751.0372	0.2	noir	79	noun	phrase	4	10	match	leur	3	1	p	0.7885
751.2372	0.0	+	79	noun	phrase	4	11	match	leur	3	1	p	0.7885
751.6372	0.0	+	79	noun	phrase	4	12	match	leur	3	1	p	0.7885
753.637	0.0	LEUR	79	noun	phrase	4	13	match	leur	3	1	p	0.7885
754.487	0.0	+	79	noun	phrase	4	14	match	leur	3	1	p	0.7885
754.4254999999999	0.0	[response]	79	noun	phrase	4	15	match	leur	3	1	p	0.7885
756.0368	0.0	+	80	verb	list	2	1	nomatch	adam	-1	1	y	0.70686
756.5868	0.2	cvdhn	80	verb	list	2	2	nomatch	adam	-1	1	y	0.70686
756.7868	0.0	+	80	verb	list	2	3	nomatch	adam	-1	1	y	0.70686
757.1868	0.2	zvkc	80	verb	list	2	4	nomatch	adam	-1	1	y	0.70686
757.3868	0.0	+	80	verb	list	2	5	nomatch	adam	-1	1	y	0.70686
757.7867	0.2	vzq	80	verb	list	2	6	nomatch	adam	-1	1	y	0.70686
757.9866999999999	0.0	+	80	verb	list	2	7	nomatch	adam	-1	1	y	0.70686
758.3867	0.2	nager	80	verb	list	2	8	nomatch	adam	-1	1	y	0.70686
758.5867	0.0	+	80	verb	list	2	9	nomatch	adam	-1	1	y	0.70686
758.9866	0.2	bleu	80	verb	list	2	10	nomatch	adam	-1	1	y	0.70686
759.1866	0.0	+	80	verb	list	2	11	nomatch	adam	-1	1	y	0.70686
759.5866	0.0	+	80	verb	list	2	12	nomatch	adam	-1	1	y	0.70686
761.5864	0.0	ADAM	80	verb	list	2	13	nomatch	adam	-1	1	y	0.70686
762.353	0.0	+	80	verb	list	2	14	nomatch	adam	-1	1	y	0.70686
763.9861999999999	0.0	+	80	verb	list	2	15	nomatch	adam	-1	1	y	0.70686
765.0362	0.0	+	80	verb	list	2	16	nomatch	adam	-1	1	y	0.70686
765.1362	0.0	+	80	verb	list	2	17	nomatch	adam	-1	1	y	0.70686
766.5361	0.0	+	80	verb	list	2	18	nomatch	adam	-1	1	y	0.70686
766.636	0.0	+	80	verb	list	2	19	nomatch	adam	-1	1	y	0.70686
768.0192999999999	0.0	+	80	verb	list	2	20	nomatch	adam	-1	1	y	0.70686
768.1193	0.0	+	80	verb	list	2	21	nomatch	adam	-1	1	y	0.70686
769.5358	0.0	+	80	verb	list	2	22	nomatch	adam	-1	1	y	0.70686
769.6358	0.0	+	80	verb	list	2	23	nomatch	adam	-1	1	y	0.70686
771.019	0.0	+	80	verb	list	2	24	nomatch	adam	-1	1	y	0.70686
771.119	0.0	+	80	verb	list	2	25	nomatch	adam	-1	1	y	0.70686
772.5355999999999	0.0	+	80	verb	list	2	26	nomatch	adam	-1	1	y	0.70686
772.6356	0.0	+	80	verb	list	2	27	nomatch	adam	-1	1	y	0.70686
774.0187999999999	0.0	+	80	verb	list	2	28	nomatch	adam	-1	1	y	0.70686
774.1188	0.0	+	80	verb	list	2	29	nomatch	adam	-1	1	y	0.70686
775.5354	0.0	+	80	verb	list	2	30	nomatch	adam	-1	1	y	0.70686
775.6354	0.0	+	80	verb	list	2	31	nomatch	adam	-1	1	y	0.70686
777.0186	0.0	+	80	verb	list	2	32	nomatch	adam	-1	1	y	0.70686
777.1186	0.0	+	80	verb	list	2	33	nomatch	adam	-1	1	y	0.70686
778.5350999999999	0.0	+	80	verb	list	2	34	nomatch	adam	-1	1	y	0.70686
778.6351	0.0	+	80	verb	list	2	35	nomatch	adam	-1	1	y	0.70686
784.5346999999999	0.0	+	80	verb	list	2	36	nomatch	adam	-1	1	y	0.70686
762.2932999999999	0.0	[response]	80	verb	list	2	37	nomatch	adam	-1	1	y	0.70686
