onset	duration	stim	trial_number	trial_type	trial_structure	trial_length	sequential_position	probe_type	probe	probe_position	response_correct	response_key	response_time
0.06980000000000075	0.0	+	1	noun	list	4	1	nomatch	patiner	-1	1	y	1.3469000000000002
0.5364000000000004	0.2	vsp	1	noun	list	4	2	nomatch	patiner	-1	1	y	1.3469000000000002
0.7363999999999891	0.0	+	1	noun	list	4	3	nomatch	patiner	-1	1	y	1.3469000000000002
1.1363999999999947	0.2	sur	1	noun	list	4	4	nomatch	patiner	-1	1	y	1.3469000000000002
1.3363999999999976	0.0	+	1	noun	list	4	5	nomatch	patiner	-1	1	y	1.3469000000000002
1.7363	0.2	doit	1	noun	list	4	6	nomatch	patiner	-1	1	y	1.3469000000000002
1.9362999999999886	0.0	+	1	noun	list	4	7	nomatch	patiner	-1	1	y	1.3469000000000002
2.3362999999999943	0.2	tablier	1	noun	list	4	8	nomatch	patiner	-1	1	y	1.3469000000000002
2.536299999999997	0.0	+	1	noun	list	4	9	nomatch	patiner	-1	1	y	1.3469000000000002
2.9361999999999995	0.2	vite	1	noun	list	4	10	nomatch	patiner	-1	1	y	1.3469000000000002
3.136199999999988	0.0	+	1	noun	list	4	11	nomatch	patiner	-1	1	y	1.3469000000000002
3.536199999999994	0.0	+	1	noun	list	4	12	nomatch	patiner	-1	1	y	1.3469000000000002
5.5360999999999905	0.0	PATINER	1	noun	list	4	13	nomatch	patiner	-1	1	y	1.3469000000000002
6.95259999999999	0.0	+	1	noun	list	4	14	nomatch	patiner	-1	1	y	1.3469000000000002
6.882899999999992	0.0	[response]	1	noun	list	4	15	nomatch	patiner	-1	1	y	1.3469000000000002
7.9358999999999895	0.0	+	2	verb	phrase	1	1	nomatch	tard	-1	1	y	1.1604
8.485799999999998	0.2	nhfswc	2	verb	phrase	1	2	nomatch	tard	-1	1	y	1.1604
8.6858	0.0	+	2	verb	phrase	1	3	nomatch	tard	-1	1	y	1.1604
9.085799999999992	0.2	zvkc	2	verb	phrase	1	4	nomatch	tard	-1	1	y	1.1604
9.285799999999995	0.0	+	2	verb	phrase	1	5	nomatch	tard	-1	1	y	1.1604
9.685699999999997	0.2	xv	2	verb	phrase	1	6	nomatch	tard	-1	1	y	1.1604
9.8857	0.0	+	2	verb	phrase	1	7	nomatch	tard	-1	1	y	1.1604
10.285699999999991	0.2	hbgl	2	verb	phrase	1	8	nomatch	tard	-1	1	y	1.1604
10.485699999999994	0.0	+	2	verb	phrase	1	9	nomatch	tard	-1	1	y	1.1604
10.885599999999997	0.2	chasser	2	verb	phrase	1	10	nomatch	tard	-1	1	y	1.1604
11.0856	0.0	+	2	verb	phrase	1	11	nomatch	tard	-1	1	y	1.1604
11.485599999999991	0.0	+	2	verb	phrase	1	12	nomatch	tard	-1	1	y	1.1604
13.485399999999998	0.0	TARD	2	verb	phrase	1	13	nomatch	tard	-1	1	y	1.1604
14.701999999999998	0.0	+	2	verb	phrase	1	14	nomatch	tard	-1	1	y	1.1604
14.645799999999994	0.0	[response]	2	verb	phrase	1	15	nomatch	tard	-1	1	y	1.1604
15.8853	0.0	+	3	noun	phrase	4	1	nomatch	plus	-1	1	y	1.0438
16.435199999999995	0.2	zqkghc	3	noun	phrase	4	2	nomatch	plus	-1	1	y	1.0438
16.635199999999998	0.0	+	3	noun	phrase	4	3	nomatch	plus	-1	1	y	1.0438
17.03519999999999	0.2	sur	3	noun	phrase	4	4	nomatch	plus	-1	1	y	1.0438
17.235199999999992	0.0	+	3	noun	phrase	4	5	nomatch	plus	-1	1	y	1.0438
17.635099999999994	0.2	leur	3	noun	phrase	4	6	nomatch	plus	-1	1	y	1.0438
17.835099999999997	0.0	+	3	noun	phrase	4	7	nomatch	plus	-1	1	y	1.0438
18.23509999999999	0.2	nouveau	3	noun	phrase	4	8	nomatch	plus	-1	1	y	1.0438
18.43509999999999	0.0	+	3	noun	phrase	4	9	nomatch	plus	-1	1	y	1.0438
18.834999999999994	0.2	clavier	3	noun	phrase	4	10	nomatch	plus	-1	1	y	1.0438
19.034999999999997	0.0	+	3	noun	phrase	4	11	nomatch	plus	-1	1	y	1.0438
19.434999999999988	0.0	+	3	noun	phrase	4	12	nomatch	plus	-1	1	y	1.0438
21.434799999999996	0.0	PLUS	3	noun	phrase	4	13	nomatch	plus	-1	1	y	1.0438
22.5347	0.0	+	3	noun	phrase	4	14	nomatch	plus	-1	1	y	1.0438
22.478600000000014	0.0	[response]	3	noun	phrase	4	15	nomatch	plus	-1	1	y	1.0438
23.85129999999998	0.0	+	4	verb	list	1	1	nomatch	dans	-1	1	y	0.7605000000000001
24.401299999999992	0.2	bqs	4	verb	list	1	2	nomatch	dans	-1	1	y	0.7605000000000001
24.60129999999998	0.0	+	4	verb	list	1	3	nomatch	dans	-1	1	y	0.7605000000000001
25.001199999999983	0.2	bjsm	4	verb	list	1	4	nomatch	dans	-1	1	y	0.7605000000000001
25.2012	0.0	+	4	verb	list	1	5	nomatch	dans	-1	1	y	0.7605000000000001
25.601200000000006	0.2	gxvf	4	verb	list	1	6	nomatch	dans	-1	1	y	0.7605000000000001
25.801199999999994	0.0	+	4	verb	list	1	7	nomatch	dans	-1	1	y	0.7605000000000001
26.201099999999997	0.2	mtgbk	4	verb	list	1	8	nomatch	dans	-1	1	y	0.7605000000000001
26.401099999999985	0.0	+	4	verb	list	1	9	nomatch	dans	-1	1	y	0.7605000000000001
26.80109999999999	0.2	parader	4	verb	list	1	10	nomatch	dans	-1	1	y	0.7605000000000001
27.001100000000008	0.0	+	4	verb	list	1	11	nomatch	dans	-1	1	y	0.7605000000000001
27.400999999999982	0.0	+	4	verb	list	1	12	nomatch	dans	-1	1	y	0.7605000000000001
29.400900000000007	0.0	DANS	4	verb	list	1	13	nomatch	dans	-1	1	y	0.7605000000000001
30.2175	0.0	+	4	verb	list	1	14	nomatch	dans	-1	1	y	0.7605000000000001
30.161399999999986	0.0	[response]	4	verb	list	1	15	nomatch	dans	-1	1	y	0.7605000000000001
31.800700000000006	0.0	+	5	noun	phrase	2	1	nomatch	leur	-1	1	y	0.98946
32.35069999999999	0.2	kgwst	5	noun	phrase	2	2	nomatch	leur	-1	1	y	0.98946
32.550700000000006	0.0	+	5	noun	phrase	2	3	nomatch	leur	-1	1	y	0.98946
32.95059999999998	0.2	gscb	5	noun	phrase	2	4	nomatch	leur	-1	1	y	0.98946
33.1506	0.0	+	5	noun	phrase	2	5	nomatch	leur	-1	1	y	0.98946
33.5506	0.2	dljz	5	noun	phrase	2	6	nomatch	leur	-1	1	y	0.98946
33.75059999999999	0.0	+	5	noun	phrase	2	7	nomatch	leur	-1	1	y	0.98946
34.150499999999994	0.2	voilier	5	noun	phrase	2	8	nomatch	leur	-1	1	y	0.98946
34.35049999999998	0.0	+	5	noun	phrase	2	9	nomatch	leur	-1	1	y	0.98946
34.75049999999999	0.2	blanc	5	noun	phrase	2	10	nomatch	leur	-1	1	y	0.98946
34.950500000000005	0.0	+	5	noun	phrase	2	11	nomatch	leur	-1	1	y	0.98946
35.35040000000001	0.0	+	5	noun	phrase	2	12	nomatch	leur	-1	1	y	0.98946
37.350300000000004	0.0	LEUR	5	noun	phrase	2	13	nomatch	leur	-1	1	y	0.98946
38.400199999999984	0.0	+	5	noun	phrase	2	14	nomatch	leur	-1	1	y	0.98946
38.33969999999999	0.0	[response]	5	noun	phrase	2	15	nomatch	leur	-1	1	y	0.98946
39.7501	0.0	+	6	noun	phrase	1	1	match	boîtier	5	1	p	0.88582
40.3013	0.2	bdfx	6	noun	phrase	1	2	match	boîtier	5	1	p	0.88582
40.5	0.0	+	6	noun	phrase	1	3	match	boîtier	5	1	p	0.88582
40.900000000000006	0.2	phxz	6	noun	phrase	1	4	match	boîtier	5	1	p	0.88582
41.099999999999994	0.0	+	6	noun	phrase	1	5	match	boîtier	5	1	p	0.88582
41.5	0.2	pjf	6	noun	phrase	1	6	match	boîtier	5	1	p	0.88582
41.69999999999999	0.0	+	6	noun	phrase	1	7	match	boîtier	5	1	p	0.88582
42.09989999999999	0.2	xlgc	6	noun	phrase	1	8	match	boîtier	5	1	p	0.88582
42.3005	0.0	+	6	noun	phrase	1	9	match	boîtier	5	1	p	0.88582
42.699899999999985	0.2	boîtier	6	noun	phrase	1	10	match	boîtier	5	1	p	0.88582
42.8999	0.0	+	6	noun	phrase	1	11	match	boîtier	5	1	p	0.88582
43.299800000000005	0.0	+	6	noun	phrase	1	12	match	boîtier	5	1	p	0.88582
45.2997	0.0	BOÎTIER	6	noun	phrase	1	13	match	boîtier	5	1	p	0.88582
46.24959999999999	0.0	+	6	noun	phrase	1	14	match	boîtier	5	1	p	0.88582
46.18549999999999	0.0	[response]	6	noun	phrase	1	15	match	boîtier	5	1	p	0.88582
47.6995	0.0	+	7	verb	phrase	2	1	match	chasser	5	1	p	0.8505500000000001
48.24949999999998	0.2	pqwt	7	verb	phrase	2	2	match	chasser	5	1	p	0.8505500000000001
48.4494	0.0	+	7	verb	phrase	2	3	match	chasser	5	1	p	0.8505500000000001
48.8494	0.2	cxg	7	verb	phrase	2	4	match	chasser	5	1	p	0.8505500000000001
49.04939999999999	0.0	+	7	verb	phrase	2	5	match	chasser	5	1	p	0.8505500000000001
49.4494	0.2	gxvf	7	verb	phrase	2	6	match	chasser	5	1	p	0.8505500000000001
49.64929999999998	0.0	+	7	verb	phrase	2	7	match	chasser	5	1	p	0.8505500000000001
50.04929999999999	0.2	plus	7	verb	phrase	2	8	match	chasser	5	1	p	0.8505500000000001
50.249300000000005	0.0	+	7	verb	phrase	2	9	match	chasser	5	1	p	0.8505500000000001
50.64929999999998	0.2	chasser	7	verb	phrase	2	10	match	chasser	5	1	p	0.8505500000000001
50.8493	0.0	+	7	verb	phrase	2	11	match	chasser	5	1	p	0.8505500000000001
51.2492	0.0	+	7	verb	phrase	2	12	match	chasser	5	1	p	0.8505500000000001
53.2491	0.0	CHASSER	7	verb	phrase	2	13	match	chasser	5	1	p	0.8505500000000001
54.16569999999999	0.0	+	7	verb	phrase	2	14	match	chasser	5	1	p	0.8505500000000001
54.09959999999998	0.0	[response]	7	verb	phrase	2	15	match	chasser	5	1	p	0.8505500000000001
63.648300000000006	0.0	+	8	noun	phrase	3	1	nomatch	loin	-1	1	y	0.84586
64.19819999999999	0.2	jkd	8	noun	phrase	3	2	nomatch	loin	-1	1	y	0.84586
64.3982	0.0	+	8	noun	phrase	3	3	nomatch	loin	-1	1	y	0.84586
64.79819999999998	0.2	xlb	8	noun	phrase	3	4	nomatch	loin	-1	1	y	0.84586
64.9982	0.0	+	8	noun	phrase	3	5	nomatch	loin	-1	1	y	0.84586
65.3981	0.2	mon	8	noun	phrase	3	6	nomatch	loin	-1	1	y	0.84586
65.59809999999999	0.0	+	8	noun	phrase	3	7	nomatch	loin	-1	1	y	0.84586
65.9981	0.2	voilier	8	noun	phrase	3	8	nomatch	loin	-1	1	y	0.84586
66.19809999999998	0.0	+	8	noun	phrase	3	9	nomatch	loin	-1	1	y	0.84586
66.59809999999999	0.2	noir	8	noun	phrase	3	10	nomatch	loin	-1	1	y	0.84586
66.798	0.0	+	8	noun	phrase	3	11	nomatch	loin	-1	1	y	0.84586
67.19800000000001	0.0	+	8	noun	phrase	3	12	nomatch	loin	-1	1	y	0.84586
69.1979	0.0	LOIN	8	noun	phrase	3	13	nomatch	loin	-1	1	y	0.84586
70.0978	0.0	+	8	noun	phrase	3	14	nomatch	loin	-1	1	y	0.84586
70.0437	0.0	[response]	8	noun	phrase	3	15	nomatch	loin	-1	1	y	0.84586
71.5977	0.0	+	9	noun	phrase	4	1	nomatch	grand	-1	1	y	0.8544300000000001
72.14759999999998	0.2	pdmzt	9	noun	phrase	4	2	nomatch	grand	-1	1	y	0.8544300000000001
72.3476	0.0	+	9	noun	phrase	4	3	nomatch	grand	-1	1	y	0.8544300000000001
72.7476	0.2	pour	9	noun	phrase	4	4	nomatch	grand	-1	1	y	0.8544300000000001
72.9476	0.0	+	9	noun	phrase	4	5	nomatch	grand	-1	1	y	0.8544300000000001
73.3475	0.2	son	9	noun	phrase	4	6	nomatch	grand	-1	1	y	0.8544300000000001
73.54759999999999	0.0	+	9	noun	phrase	4	7	nomatch	grand	-1	1	y	0.8544300000000001
73.94749999999999	0.2	casier	9	noun	phrase	4	8	nomatch	grand	-1	1	y	0.8544300000000001
74.14750000000001	0.0	+	9	noun	phrase	4	9	nomatch	grand	-1	1	y	0.8544300000000001
74.54749999999999	0.2	rouge	9	noun	phrase	4	10	nomatch	grand	-1	1	y	0.8544300000000001
74.7474	0.0	+	9	noun	phrase	4	11	nomatch	grand	-1	1	y	0.8544300000000001
75.1474	0.0	+	9	noun	phrase	4	12	nomatch	grand	-1	1	y	0.8544300000000001
77.1472	0.0	GRAND	9	noun	phrase	4	13	nomatch	grand	-1	1	y	0.8544300000000001
78.06379999999999	0.0	+	9	noun	phrase	4	14	nomatch	grand	-1	1	y	0.8544300000000001
78.00170000000003	0.0	[response]	9	noun	phrase	4	15	nomatch	grand	-1	1	y	0.8544300000000001
79.5471	0.0	+	10	noun	list	3	1	nomatch	boîtier	-1	1	y	0.9986
80.09699999999998	0.2	tlmqpk	10	noun	list	3	2	nomatch	boîtier	-1	1	y	0.9986
80.297	0.0	+	10	noun	list	3	3	nomatch	boîtier	-1	1	y	0.9986
80.697	0.2	xlb	10	noun	list	3	4	nomatch	boîtier	-1	1	y	0.9986
80.89699999999999	0.0	+	10	noun	list	3	5	nomatch	boîtier	-1	1	y	0.9986
81.2969	0.2	doit	10	noun	list	3	6	nomatch	boîtier	-1	1	y	0.9986
81.49689999999998	0.0	+	10	noun	list	3	7	nomatch	boîtier	-1	1	y	0.9986
81.89689999999999	0.2	tablier	10	noun	list	3	8	nomatch	boîtier	-1	1	y	0.9986
82.0969	0.0	+	10	noun	list	3	9	nomatch	boîtier	-1	1	y	0.9986
82.49680000000001	0.2	loin	10	noun	list	3	10	nomatch	boîtier	-1	1	y	0.9986
82.6968	0.0	+	10	noun	list	3	11	nomatch	boîtier	-1	1	y	0.9986
83.0968	0.0	+	10	noun	list	3	12	nomatch	boîtier	-1	1	y	0.9986
85.0966	0.0	BOÎTIER	10	noun	list	3	13	nomatch	boîtier	-1	1	y	0.9986
86.16319999999999	0.0	+	10	noun	list	3	14	nomatch	boîtier	-1	1	y	0.9986
86.0952	0.0	[response]	10	noun	list	3	15	nomatch	boîtier	-1	1	y	0.9986
87.4965	0.0	+	11	noun	list	3	1	match	leur	3	1	p	1.3511
88.0464	0.2	znjs	11	noun	list	3	2	match	leur	3	1	p	1.3511
88.2464	0.0	+	11	noun	list	3	3	match	leur	3	1	p	1.3511
88.6464	0.2	kvgl	11	noun	list	3	4	match	leur	3	1	p	1.3511
88.84639999999999	0.0	+	11	noun	list	3	5	match	leur	3	1	p	1.3511
89.24629999999999	0.2	leur	11	noun	list	3	6	match	leur	3	1	p	1.3511
89.44630000000001	0.0	+	11	noun	list	3	7	match	leur	3	1	p	1.3511
89.84629999999999	0.2	trop	11	noun	list	3	8	match	leur	3	1	p	1.3511
90.0463	0.0	+	11	noun	list	3	9	match	leur	3	1	p	1.3511
90.4462	0.2	voilier	11	noun	list	3	10	match	leur	3	1	p	1.3511
90.6462	0.0	+	11	noun	list	3	11	match	leur	3	1	p	1.3511
91.0462	0.0	+	11	noun	list	3	12	match	leur	3	1	p	1.3511
93.04599999999999	0.0	LEUR	11	noun	list	3	13	match	leur	3	1	p	1.3511
94.46259999999998	0.0	+	11	noun	list	3	14	match	leur	3	1	p	1.3511
94.39710000000002	0.0	[response]	11	noun	list	3	15	match	leur	3	1	p	1.3511
95.44579999999999	0.0	+	12	noun	list	4	1	nomatch	boîtier	-1	1	y	1.1555
95.9958	0.2	rkp	12	noun	list	4	2	nomatch	boîtier	-1	1	y	1.1555
96.19579999999999	0.0	+	12	noun	list	4	3	nomatch	boîtier	-1	1	y	1.1555
96.5958	0.2	sans	12	noun	list	4	4	nomatch	boîtier	-1	1	y	1.1555
96.79569999999998	0.0	+	12	noun	list	4	5	nomatch	boîtier	-1	1	y	1.1555
97.19569999999999	0.2	doit	12	noun	list	4	6	nomatch	boîtier	-1	1	y	1.1555
97.3957	0.0	+	12	noun	list	4	7	nomatch	boîtier	-1	1	y	1.1555
97.79569999999998	0.2	sablier	12	noun	list	4	8	nomatch	boîtier	-1	1	y	1.1555
97.9957	0.0	+	12	noun	list	4	9	nomatch	boîtier	-1	1	y	1.1555
98.3956	0.2	tard	12	noun	list	4	10	nomatch	boîtier	-1	1	y	1.1555
98.59559999999999	0.0	+	12	noun	list	4	11	nomatch	boîtier	-1	1	y	1.1555
98.9956	0.0	+	12	noun	list	4	12	nomatch	boîtier	-1	1	y	1.1555
100.99539999999999	0.0	BOÎTIER	12	noun	list	4	13	nomatch	boîtier	-1	1	y	1.1555
102.21199999999999	0.0	+	12	noun	list	4	14	nomatch	boîtier	-1	1	y	1.1555
102.15099999999998	0.0	[response]	12	noun	list	4	15	nomatch	boîtier	-1	1	y	1.1555
111.3946	0.0	+	13	noun	list	1	1	match	clavier	5	1	p	0.81883
111.94460000000001	0.2	hjbfk	13	noun	list	1	2	match	clavier	5	1	p	0.81883
112.1446	0.0	+	13	noun	list	1	3	match	clavier	5	1	p	0.81883
112.5445	0.2	kvgl	13	noun	list	1	4	match	clavier	5	1	p	0.81883
112.74449999999999	0.0	+	13	noun	list	1	5	match	clavier	5	1	p	0.81883
113.1445	0.2	pjf	13	noun	list	1	6	match	clavier	5	1	p	0.81883
113.34449999999998	0.0	+	13	noun	list	1	7	match	clavier	5	1	p	0.81883
113.74439999999998	0.2	hwtnx	13	noun	list	1	8	match	clavier	5	1	p	0.81883
113.9444	0.0	+	13	noun	list	1	9	match	clavier	5	1	p	0.81883
114.34440000000001	0.2	clavier	13	noun	list	1	10	match	clavier	5	1	p	0.81883
114.5444	0.0	+	13	noun	list	1	11	match	clavier	5	1	p	0.81883
114.9444	0.0	+	13	noun	list	1	12	match	clavier	5	1	p	0.81883
116.9442	0.0	CLAVIER	13	noun	list	1	13	match	clavier	5	1	p	0.81883
117.82749999999999	0.0	+	13	noun	list	1	14	match	clavier	5	1	p	0.81883
117.763	0.0	[response]	13	noun	list	1	15	match	clavier	5	1	p	0.81883
119.3449	0.0	+	14	verb	phrase	4	1	nomatch	trop	-1	1	y	1.0272
119.894	0.2	gvtzk	14	verb	phrase	4	2	nomatch	trop	-1	1	y	1.0272
120.094	0.0	+	14	verb	phrase	4	3	nomatch	trop	-1	1	y	1.0272
120.4939	0.2	jean	14	verb	phrase	4	4	nomatch	trop	-1	1	y	1.0272
120.69389999999999	0.0	+	14	verb	phrase	4	5	nomatch	trop	-1	1	y	1.0272
121.09389999999999	0.2	doit	14	verb	phrase	4	6	nomatch	trop	-1	1	y	1.0272
121.29390000000001	0.0	+	14	verb	phrase	4	7	nomatch	trop	-1	1	y	1.0272
121.69379999999998	0.2	plus	14	verb	phrase	4	8	nomatch	trop	-1	1	y	1.0272
121.8938	0.0	+	14	verb	phrase	4	9	nomatch	trop	-1	1	y	1.0272
122.2938	0.2	patiner	14	verb	phrase	4	10	nomatch	trop	-1	1	y	1.0272
122.4938	0.0	+	14	verb	phrase	4	11	nomatch	trop	-1	1	y	1.0272
122.8938	0.0	+	14	verb	phrase	4	12	nomatch	trop	-1	1	y	1.0272
124.89359999999999	0.0	TROP	14	verb	phrase	4	13	nomatch	trop	-1	1	y	1.0272
125.9768	0.0	+	14	verb	phrase	4	14	nomatch	trop	-1	1	y	1.0272
125.92079999999999	0.0	[response]	14	verb	phrase	4	15	nomatch	trop	-1	1	y	1.0272
127.29339999999999	0.0	+	15	noun	list	2	1	match	boîtier	5	1	p	0.74
127.8434	0.2	jlzbwrn	15	noun	list	2	2	match	boîtier	5	1	p	0.74
128.0434	0.0	+	15	noun	list	2	3	match	boîtier	5	1	p	0.74
128.4433	0.2	ljxk	15	noun	list	2	4	match	boîtier	5	1	p	0.74
128.64329999999998	0.0	+	15	noun	list	2	5	match	boîtier	5	1	p	0.74
129.0433	0.2	pjf	15	noun	list	2	6	match	boîtier	5	1	p	0.74
129.2433	0.0	+	15	noun	list	2	7	match	boîtier	5	1	p	0.74
129.6432	0.2	moins	15	noun	list	2	8	match	boîtier	5	1	p	0.74
129.8432	0.0	+	15	noun	list	2	9	match	boîtier	5	1	p	0.74
130.2432	0.2	boîtier	15	noun	list	2	10	match	boîtier	5	1	p	0.74
130.4432	0.0	+	15	noun	list	2	11	match	boîtier	5	1	p	0.74
130.8431	0.0	+	15	noun	list	2	12	match	boîtier	5	1	p	0.74
132.843	0.0	BOÎTIER	15	noun	list	2	13	match	boîtier	5	1	p	0.74
133.6429	0.0	+	15	noun	list	2	14	match	boîtier	5	1	p	0.74
133.583	0.0	[response]	15	noun	list	2	15	match	boîtier	5	1	p	0.74
135.2428	0.0	+	16	verb	phrase	1	1	nomatch	ainsi	-1	1	y	0.5782
135.7928	0.2	zlsqjf	16	verb	phrase	1	2	nomatch	ainsi	-1	1	y	0.5782
135.99269999999999	0.0	+	16	verb	phrase	1	3	nomatch	ainsi	-1	1	y	0.5782
136.3927	0.2	kvgl	16	verb	phrase	1	4	nomatch	ainsi	-1	1	y	0.5782
136.5927	0.0	+	16	verb	phrase	1	5	nomatch	ainsi	-1	1	y	0.5782
136.99269999999999	0.2	zmpt	16	verb	phrase	1	6	nomatch	ainsi	-1	1	y	0.5782
137.1927	0.0	+	16	verb	phrase	1	7	nomatch	ainsi	-1	1	y	0.5782
137.5926	0.2	wnfgmvj	16	verb	phrase	1	8	nomatch	ainsi	-1	1	y	0.5782
137.7926	0.0	+	16	verb	phrase	1	9	nomatch	ainsi	-1	1	y	0.5782
138.1926	0.2	vite	16	verb	phrase	1	10	nomatch	ainsi	-1	1	y	0.5782
138.3926	0.0	+	16	verb	phrase	1	11	nomatch	ainsi	-1	1	y	0.5782
138.7925	0.0	+	16	verb	phrase	1	12	nomatch	ainsi	-1	1	y	0.5782
140.7924	0.0	AINSI	16	verb	phrase	1	13	nomatch	ainsi	-1	1	y	0.5782
141.4257	0.0	+	16	verb	phrase	1	14	nomatch	ainsi	-1	1	y	0.5782
141.37060000000002	0.0	[response]	16	verb	phrase	1	15	nomatch	ainsi	-1	1	y	0.5782
143.19219999999999	0.0	+	17	noun	list	1	1	nomatch	tard	-1	1	y	0.54097
143.7422	0.2	lfp	17	noun	list	1	2	nomatch	tard	-1	1	y	0.54097
143.94209999999998	0.0	+	17	noun	list	1	3	nomatch	tard	-1	1	y	0.54097
144.3421	0.2	xlb	17	noun	list	1	4	nomatch	tard	-1	1	y	0.54097
144.5421	0.0	+	17	noun	list	1	5	nomatch	tard	-1	1	y	0.54097
144.94209999999998	0.2	gxvf	17	noun	list	1	6	nomatch	tard	-1	1	y	0.54097
145.142	0.0	+	17	noun	list	1	7	nomatch	tard	-1	1	y	0.54097
145.542	0.2	tmvbxw	17	noun	list	1	8	nomatch	tard	-1	1	y	0.54097
145.742	0.0	+	17	noun	list	1	9	nomatch	tard	-1	1	y	0.54097
146.142	0.2	loin	17	noun	list	1	10	nomatch	tard	-1	1	y	0.54097
146.34199999999998	0.0	+	17	noun	list	1	11	nomatch	tard	-1	1	y	0.54097
146.7419	0.0	+	17	noun	list	1	12	nomatch	tard	-1	1	y	0.54097
148.74179999999998	0.0	TARD	17	noun	list	1	13	nomatch	tard	-1	1	y	0.54097
149.3417	0.0	+	17	noun	list	1	14	nomatch	tard	-1	1	y	0.54097
149.2827	0.0	[response]	17	noun	list	1	15	nomatch	tard	-1	1	y	0.54097
151.14159999999998	0.0	+	18	noun	phrase	1	1	nomatch	jade	-1	1	y	0.68143
151.6915	0.2	fpw	18	noun	phrase	1	2	nomatch	jade	-1	1	y	0.68143
151.8915	0.0	+	18	noun	phrase	1	3	nomatch	jade	-1	1	y	0.68143
152.2939	0.2	gscb	18	noun	phrase	1	4	nomatch	jade	-1	1	y	0.68143
152.49149999999997	0.0	+	18	noun	phrase	1	5	nomatch	jade	-1	1	y	0.68143
152.8915	0.2	vzq	18	noun	phrase	1	6	nomatch	jade	-1	1	y	0.68143
153.09140000000002	0.0	+	18	noun	phrase	1	7	nomatch	jade	-1	1	y	0.68143
153.4914	0.2	hmdvrlb	18	noun	phrase	1	8	nomatch	jade	-1	1	y	0.68143
153.6914	0.0	+	18	noun	phrase	1	9	nomatch	jade	-1	1	y	0.68143
154.09140000000002	0.2	boîtier	18	noun	phrase	1	10	nomatch	jade	-1	1	y	0.68143
154.2914	0.0	+	18	noun	phrase	1	11	nomatch	jade	-1	1	y	0.68143
154.6913	0.0	+	18	noun	phrase	1	12	nomatch	jade	-1	1	y	0.68143
156.69119999999998	0.0	JADE	18	noun	phrase	1	13	nomatch	jade	-1	1	y	0.68143
157.4411	0.0	+	18	noun	phrase	1	14	nomatch	jade	-1	1	y	0.68143
157.37259999999998	0.0	[response]	18	noun	phrase	1	15	nomatch	jade	-1	1	y	0.68143
159.091	0.0	+	19	noun	phrase	3	1	nomatch	rouge	-1	1	y	0.52982
159.6409	0.2	kdzsbx	19	noun	phrase	3	2	nomatch	rouge	-1	1	y	0.52982
159.84089999999998	0.0	+	19	noun	phrase	3	3	nomatch	rouge	-1	1	y	0.52982
160.2409	0.2	xhls	19	noun	phrase	3	4	nomatch	rouge	-1	1	y	0.52982
160.4409	0.0	+	19	noun	phrase	3	5	nomatch	rouge	-1	1	y	0.52982
160.84089999999998	0.2	son	19	noun	phrase	3	6	nomatch	rouge	-1	1	y	0.52982
161.0408	0.0	+	19	noun	phrase	3	7	nomatch	rouge	-1	1	y	0.52982
161.44079999999997	0.2	nouveau	19	noun	phrase	3	8	nomatch	rouge	-1	1	y	0.52982
161.6408	0.0	+	19	noun	phrase	3	9	nomatch	rouge	-1	1	y	0.52982
162.0408	0.2	voilier	19	noun	phrase	3	10	nomatch	rouge	-1	1	y	0.52982
162.2407	0.0	+	19	noun	phrase	3	11	nomatch	rouge	-1	1	y	0.52982
162.64069999999998	0.0	+	19	noun	phrase	3	12	nomatch	rouge	-1	1	y	0.52982
164.6406	0.0	ROUGE	19	noun	phrase	3	13	nomatch	rouge	-1	1	y	0.52982
165.2405	0.0	+	19	noun	phrase	3	14	nomatch	rouge	-1	1	y	0.52982
165.17039999999997	0.0	[response]	19	noun	phrase	3	15	nomatch	rouge	-1	1	y	0.52982
167.04039999999998	0.0	+	20	noun	phrase	3	1	match	blanc	5	1	p	0.52247
167.5903	0.2	clsz	20	noun	phrase	3	2	match	blanc	5	1	p	0.52247
167.7903	0.0	+	20	noun	phrase	3	3	match	blanc	5	1	p	0.52247
168.19029999999998	0.2	lfnt	20	noun	phrase	3	4	match	blanc	5	1	p	0.52247
168.39029999999997	0.0	+	20	noun	phrase	3	5	match	blanc	5	1	p	0.52247
168.79019999999997	0.2	leur	20	noun	phrase	3	6	match	blanc	5	1	p	0.52247
168.99020000000002	0.0	+	20	noun	phrase	3	7	match	blanc	5	1	p	0.52247
169.3902	0.2	sablier	20	noun	phrase	3	8	match	blanc	5	1	p	0.52247
169.59019999999998	0.0	+	20	noun	phrase	3	9	match	blanc	5	1	p	0.52247
169.99009999999998	0.2	blanc	20	noun	phrase	3	10	match	blanc	5	1	p	0.52247
170.19009999999997	0.0	+	20	noun	phrase	3	11	match	blanc	5	1	p	0.52247
170.5901	0.0	+	20	noun	phrase	3	12	match	blanc	5	1	p	0.52247
172.5899	0.0	BLANC	20	noun	phrase	3	13	match	blanc	5	1	p	0.52247
173.1732	0.0	+	20	noun	phrase	3	14	match	blanc	5	1	p	0.52247
173.11239999999998	0.0	[response]	20	noun	phrase	3	15	match	blanc	5	1	p	0.52247
174.9898	0.0	+	21	verb	list	2	1	nomatch	grand	-1	1	y	0.87096
175.53969999999998	0.2	gsrzncj	21	verb	list	2	2	nomatch	grand	-1	1	y	0.87096
175.73969999999997	0.0	+	21	verb	list	2	3	nomatch	grand	-1	1	y	0.87096
176.1397	0.2	gscb	21	verb	list	2	4	nomatch	grand	-1	1	y	0.87096
176.3397	0.0	+	21	verb	list	2	5	nomatch	grand	-1	1	y	0.87096
176.7396	0.2	gxvf	21	verb	list	2	6	nomatch	grand	-1	1	y	0.87096
176.93959999999998	0.0	+	21	verb	list	2	7	nomatch	grand	-1	1	y	0.87096
177.33960000000002	0.2	nouveau	21	verb	list	2	8	nomatch	grand	-1	1	y	0.87096
177.5396	0.0	+	21	verb	list	2	9	nomatch	grand	-1	1	y	0.87096
177.9395	0.2	galoper	21	verb	list	2	10	nomatch	grand	-1	1	y	0.87096
178.1395	0.0	+	21	verb	list	2	11	nomatch	grand	-1	1	y	0.87096
178.53949999999998	0.0	+	21	verb	list	2	12	nomatch	grand	-1	1	y	0.87096
180.53929999999997	0.0	GRAND	21	verb	list	2	13	nomatch	grand	-1	1	y	0.87096
181.4726	0.0	+	21	verb	list	2	14	nomatch	grand	-1	1	y	0.87096
181.4103	0.0	[response]	21	verb	list	2	15	nomatch	grand	-1	1	y	0.87096
190.93849999999998	0.0	+	22	noun	list	2	1	match	casier	5	1	p	1.0567
191.4885	0.2	wvlbjfx	22	noun	list	2	2	match	casier	5	1	p	1.0567
191.68849999999998	0.0	+	22	noun	list	2	3	match	casier	5	1	p	1.0567
192.0885	0.2	jgvm	22	noun	list	2	4	match	casier	5	1	p	1.0567
192.28839999999997	0.0	+	22	noun	list	2	5	match	casier	5	1	p	1.0567
192.6884	0.2	dljz	22	noun	list	2	6	match	casier	5	1	p	1.0567
192.8884	0.0	+	22	noun	list	2	7	match	casier	5	1	p	1.0567
193.28839999999997	0.2	beaucoup	22	noun	list	2	8	match	casier	5	1	p	1.0567
193.4884	0.0	+	22	noun	list	2	9	match	casier	5	1	p	1.0567
193.88830000000002	0.2	casier	22	noun	list	2	10	match	casier	5	1	p	1.0567
194.0883	0.0	+	22	noun	list	2	11	match	casier	5	1	p	1.0567
194.48829999999998	0.0	+	22	noun	list	2	12	match	casier	5	1	p	1.0567
196.48809999999997	0.0	CASIER	22	noun	list	2	13	match	casier	5	1	p	1.0567
197.60469999999998	0.0	+	22	noun	list	2	14	match	casier	5	1	p	1.0567
197.5448	0.0	[response]	22	noun	list	2	15	match	casier	5	1	p	1.0567
198.8879	0.0	+	23	noun	phrase	4	1	nomatch	va	-1	1	y	0.93853
199.4379	0.2	wvbn	23	noun	phrase	4	2	nomatch	va	-1	1	y	0.93853
199.6379	0.0	+	23	noun	phrase	4	3	nomatch	va	-1	1	y	0.93853
200.0378	0.2	sur	23	noun	phrase	4	4	nomatch	va	-1	1	y	0.93853
200.2378	0.0	+	23	noun	phrase	4	5	nomatch	va	-1	1	y	0.93853
200.63779999999997	0.2	mon	23	noun	phrase	4	6	nomatch	va	-1	1	y	0.93853
200.83780000000002	0.0	+	23	noun	phrase	4	7	nomatch	va	-1	1	y	0.93853
201.2378	0.2	voilier	23	noun	phrase	4	8	nomatch	va	-1	1	y	0.93853
201.4377	0.0	+	23	noun	phrase	4	9	nomatch	va	-1	1	y	0.93853
201.83769999999998	0.2	rouge	23	noun	phrase	4	10	nomatch	va	-1	1	y	0.93853
202.03769999999997	0.0	+	23	noun	phrase	4	11	nomatch	va	-1	1	y	0.93853
202.4377	0.0	+	23	noun	phrase	4	12	nomatch	va	-1	1	y	0.93853
204.4375	0.0	VA	23	noun	phrase	4	13	nomatch	va	-1	1	y	0.93853
205.43739999999997	0.0	+	23	noun	phrase	4	14	nomatch	va	-1	1	y	0.93853
205.37599999999998	0.0	[response]	23	noun	phrase	4	15	nomatch	va	-1	1	y	0.93853
206.83729999999997	0.0	+	24	noun	phrase	2	1	match	sablier	4	1	p	0.8553
207.38729999999998	0.2	mdlhjx	24	noun	phrase	2	2	match	sablier	4	1	p	0.8553
207.58729999999997	0.0	+	24	noun	phrase	2	3	match	sablier	4	1	p	0.8553
207.98719999999997	0.2	xhls	24	noun	phrase	2	4	match	sablier	4	1	p	0.8553
208.18720000000002	0.0	+	24	noun	phrase	2	5	match	sablier	4	1	p	0.8553
208.5872	0.2	vzq	24	noun	phrase	2	6	match	sablier	4	1	p	0.8553
208.78719999999998	0.0	+	24	noun	phrase	2	7	match	sablier	4	1	p	0.8553
209.1871	0.2	sablier	24	noun	phrase	2	8	match	sablier	4	1	p	0.8553
209.38709999999998	0.0	+	24	noun	phrase	2	9	match	sablier	4	1	p	0.8553
209.7871	0.2	bleu	24	noun	phrase	2	10	match	sablier	4	1	p	0.8553
209.9871	0.0	+	24	noun	phrase	2	11	match	sablier	4	1	p	0.8553
210.38709999999998	0.0	+	24	noun	phrase	2	12	match	sablier	4	1	p	0.8553
212.38689999999997	0.0	SABLIER	24	noun	phrase	2	13	match	sablier	4	1	p	0.8553
213.30349999999999	0.0	+	24	noun	phrase	2	14	match	sablier	4	1	p	0.8553
213.24219999999997	0.0	[response]	24	noun	phrase	2	15	match	sablier	4	1	p	0.8553
214.7867	0.0	+	25	noun	list	1	1	match	tôt	5	1	p	0.7458300000000001
215.3394	0.2	bhlvmdz	25	noun	list	1	2	match	tôt	5	1	p	0.7458300000000001
215.5367	0.0	+	25	noun	list	1	3	match	tôt	5	1	p	0.7458300000000001
215.9366	0.2	mdrs	25	noun	list	1	4	match	tôt	5	1	p	0.7458300000000001
216.1366	0.0	+	25	noun	list	1	5	match	tôt	5	1	p	0.7458300000000001
216.53660000000002	0.2	zmpt	25	noun	list	1	6	match	tôt	5	1	p	0.7458300000000001
216.7366	0.0	+	25	noun	list	1	7	match	tôt	5	1	p	0.7458300000000001
217.1365	0.2	pnjtbg	25	noun	list	1	8	match	tôt	5	1	p	0.7458300000000001
217.33659999999998	0.0	+	25	noun	list	1	9	match	tôt	5	1	p	0.7458300000000001
217.73649999999998	0.2	tôt	25	noun	list	1	10	match	tôt	5	1	p	0.7458300000000001
217.93649999999997	0.0	+	25	noun	list	1	11	match	tôt	5	1	p	0.7458300000000001
218.3365	0.0	+	25	noun	list	1	12	match	tôt	5	1	p	0.7458300000000001
220.3363	0.0	TÔT	25	noun	list	1	13	match	tôt	5	1	p	0.7458300000000001
221.13619999999997	0.0	+	25	noun	list	1	14	match	tôt	5	1	p	0.7458300000000001
221.08209999999997	0.0	[response]	25	noun	list	1	15	match	tôt	5	1	p	0.7458300000000001
238.73489999999998	0.0	+	26	noun	list	4	1	match	casier	5	1	p	0.85081
239.28480000000002	0.2	swchpz	26	noun	list	4	2	match	casier	5	1	p	0.85081
239.4848	0.0	+	26	noun	list	4	3	match	casier	5	1	p	0.85081
239.88479999999998	0.2	luc	26	noun	list	4	4	match	casier	5	1	p	0.85081
240.08479999999997	0.0	+	26	noun	list	4	5	match	casier	5	1	p	0.85081
240.4848	0.2	mon	26	noun	list	4	6	match	casier	5	1	p	0.85081
240.6848	0.0	+	26	noun	list	4	7	match	casier	5	1	p	0.85081
241.1014	0.2	moins	26	noun	list	4	8	match	casier	5	1	p	0.85081
241.3014	0.0	+	26	noun	list	4	9	match	casier	5	1	p	0.85081
241.7013	0.2	casier	26	noun	list	4	10	match	casier	5	1	p	0.85081
241.9013	0.0	+	26	noun	list	4	11	match	casier	5	1	p	0.85081
242.30129999999997	0.0	+	26	noun	list	4	12	match	casier	5	1	p	0.85081
244.30110000000002	0.0	CASIER	26	noun	list	4	13	match	casier	5	1	p	0.85081
245.21769999999998	0.0	+	26	noun	list	4	14	match	casier	5	1	p	0.85081
245.1519	0.0	[response]	26	noun	list	4	15	match	casier	5	1	p	0.85081
246.7009	0.0	+	27	noun	phrase	2	1	match	nouveau	4	1	p	0.66922
247.2509	0.2	spvlbwj	27	noun	phrase	2	2	match	nouveau	4	1	p	0.66922
247.4509	0.0	+	27	noun	phrase	2	3	match	nouveau	4	1	p	0.66922
247.85089999999997	0.2	xlb	27	noun	phrase	2	4	match	nouveau	4	1	p	0.66922
248.05079999999998	0.0	+	27	noun	phrase	2	5	match	nouveau	4	1	p	0.66922
248.45080000000002	0.2	pjf	27	noun	phrase	2	6	match	nouveau	4	1	p	0.66922
248.6508	0.0	+	27	noun	phrase	2	7	match	nouveau	4	1	p	0.66922
249.05079999999998	0.2	nouveau	27	noun	phrase	2	8	match	nouveau	4	1	p	0.66922
249.25079999999997	0.0	+	27	noun	phrase	2	9	match	nouveau	4	1	p	0.66922
249.65069999999997	0.2	voilier	27	noun	phrase	2	10	match	nouveau	4	1	p	0.66922
249.85070000000002	0.0	+	27	noun	phrase	2	11	match	nouveau	4	1	p	0.66922
250.2507	0.0	+	27	noun	phrase	2	12	match	nouveau	4	1	p	0.66922
252.2505	0.0	NOUVEAU	27	noun	phrase	2	13	match	nouveau	4	1	p	0.66922
252.98379999999997	0.0	+	27	noun	phrase	2	14	match	nouveau	4	1	p	0.66922
252.91969999999998	0.0	[response]	27	noun	phrase	2	15	match	nouveau	4	1	p	0.66922
262.6497	0.0	+	28	verb	phrase	4	1	nomatch	mieux	-1	1	y	0.54235
263.1997	0.2	vbzdpsm	28	verb	phrase	4	2	nomatch	mieux	-1	1	y	0.54235
263.3997	0.0	+	28	verb	phrase	4	3	nomatch	mieux	-1	1	y	0.54235
263.7996	0.2	marc	28	verb	phrase	4	4	nomatch	mieux	-1	1	y	0.54235
263.9996	0.0	+	28	verb	phrase	4	5	nomatch	mieux	-1	1	y	0.54235
264.3996	0.2	va	28	verb	phrase	4	6	nomatch	mieux	-1	1	y	0.54235
264.5996	0.0	+	28	verb	phrase	4	7	nomatch	mieux	-1	1	y	0.54235
264.9995	0.2	chasser	28	verb	phrase	4	8	nomatch	mieux	-1	1	y	0.54235
265.1995	0.0	+	28	verb	phrase	4	9	nomatch	mieux	-1	1	y	0.54235
265.5995	0.2	vite	28	verb	phrase	4	10	nomatch	mieux	-1	1	y	0.54235
265.79949999999997	0.0	+	28	verb	phrase	4	11	nomatch	mieux	-1	1	y	0.54235
266.1995	0.0	+	28	verb	phrase	4	12	nomatch	mieux	-1	1	y	0.54235
268.1993	0.0	MIEUX	28	verb	phrase	4	13	nomatch	mieux	-1	1	y	0.54235
268.7992	0.0	+	28	verb	phrase	4	14	nomatch	mieux	-1	1	y	0.54235
268.7416	0.0	[response]	28	verb	phrase	4	15	nomatch	mieux	-1	1	y	0.54235
270.5991	0.0	+	29	noun	list	1	1	match	voilier	5	1	p	0.70897
271.1491	0.2	nkfhb	29	noun	list	1	2	match	voilier	5	1	p	0.70897
271.3491	0.0	+	29	noun	list	1	3	match	voilier	5	1	p	0.70897
271.74899999999997	0.2	gscb	29	noun	list	1	4	match	voilier	5	1	p	0.70897
271.949	0.0	+	29	noun	list	1	5	match	voilier	5	1	p	0.70897
272.349	0.2	zmpt	29	noun	list	1	6	match	voilier	5	1	p	0.70897
272.549	0.0	+	29	noun	list	1	7	match	voilier	5	1	p	0.70897
272.9489	0.2	fkmv	29	noun	list	1	8	match	voilier	5	1	p	0.70897
273.14889999999997	0.0	+	29	noun	list	1	9	match	voilier	5	1	p	0.70897
273.5489	0.2	voilier	29	noun	list	1	10	match	voilier	5	1	p	0.70897
273.7489	0.0	+	29	noun	list	1	11	match	voilier	5	1	p	0.70897
274.1488	0.0	+	29	noun	list	1	12	match	voilier	5	1	p	0.70897
276.1487	0.0	VOILIER	29	noun	list	1	13	match	voilier	5	1	p	0.70897
276.9153	0.0	+	29	noun	list	1	14	match	voilier	5	1	p	0.70897
276.8577	0.0	[response]	29	noun	list	1	15	match	voilier	5	1	p	0.70897
278.5485	0.0	+	30	noun	list	3	1	nomatch	tard	-1	1	y	0.96729
279.0985	0.2	sgkbx	30	noun	list	3	2	nomatch	tard	-1	1	y	0.96729
279.2985	0.0	+	30	noun	list	3	3	nomatch	tard	-1	1	y	0.96729
279.6984	0.2	jgvm	30	noun	list	3	4	nomatch	tard	-1	1	y	0.96729
279.8984	0.0	+	30	noun	list	3	5	nomatch	tard	-1	1	y	0.96729
280.2984	0.2	mon	30	noun	list	3	6	nomatch	tard	-1	1	y	0.96729
280.4984	0.0	+	30	noun	list	3	7	nomatch	tard	-1	1	y	0.96729
280.8983	0.2	plus	30	noun	list	3	8	nomatch	tard	-1	1	y	0.96729
281.0983	0.0	+	30	noun	list	3	9	nomatch	tard	-1	1	y	0.96729
281.4983	0.2	casier	30	noun	list	3	10	nomatch	tard	-1	1	y	0.96729
281.6983	0.0	+	30	noun	list	3	11	nomatch	tard	-1	1	y	0.96729
282.0982	0.0	+	30	noun	list	3	12	nomatch	tard	-1	1	y	0.96729
284.0981	0.0	TARD	30	noun	list	3	13	nomatch	tard	-1	1	y	0.96729
285.1313	0.0	+	30	noun	list	3	14	nomatch	tard	-1	1	y	0.96729
285.0654	0.0	[response]	30	noun	list	3	15	nomatch	tard	-1	1	y	0.96729
286.4979	0.0	+	31	noun	phrase	1	1	match	rocher	5	1	p	0.79013
287.04789999999997	0.2	dqkp	31	noun	phrase	1	2	match	rocher	5	1	p	0.79013
287.2478	0.0	+	31	noun	phrase	1	3	match	rocher	5	1	p	0.79013
287.6478	0.2	phxz	31	noun	phrase	1	4	match	rocher	5	1	p	0.79013
287.8478	0.0	+	31	noun	phrase	1	5	match	rocher	5	1	p	0.79013
288.2478	0.2	vzq	31	noun	phrase	1	6	match	rocher	5	1	p	0.79013
288.4478	0.0	+	31	noun	phrase	1	7	match	rocher	5	1	p	0.79013
288.8477	0.2	mtgbk	31	noun	phrase	1	8	match	rocher	5	1	p	0.79013
289.0477	0.0	+	31	noun	phrase	1	9	match	rocher	5	1	p	0.79013
289.4477	0.2	rocher	31	noun	phrase	1	10	match	rocher	5	1	p	0.79013
289.6477	0.0	+	31	noun	phrase	1	11	match	rocher	5	1	p	0.79013
290.0476	0.0	+	31	noun	phrase	1	12	match	rocher	5	1	p	0.79013
292.0475	0.0	ROCHER	31	noun	phrase	1	13	match	rocher	5	1	p	0.79013
292.8974	0.0	+	31	noun	phrase	1	14	match	rocher	5	1	p	0.79013
292.8376	0.0	[response]	31	noun	phrase	1	15	match	rocher	5	1	p	0.79013
294.4473	0.0	+	32	verb	phrase	1	1	match	vite	5	1	p	0.8193000000000001
294.9973	0.2	fgrc	32	verb	phrase	1	2	match	vite	5	1	p	0.8193000000000001
295.1972	0.0	+	32	verb	phrase	1	3	match	vite	5	1	p	0.8193000000000001
295.5972	0.2	bclj	32	verb	phrase	1	4	match	vite	5	1	p	0.8193000000000001
295.7972	0.0	+	32	verb	phrase	1	5	match	vite	5	1	p	0.8193000000000001
296.1972	0.2	xv	32	verb	phrase	1	6	match	vite	5	1	p	0.8193000000000001
296.39709999999997	0.0	+	32	verb	phrase	1	7	match	vite	5	1	p	0.8193000000000001
296.7971	0.2	fkjrqdc	32	verb	phrase	1	8	match	vite	5	1	p	0.8193000000000001
296.9971	0.0	+	32	verb	phrase	1	9	match	vite	5	1	p	0.8193000000000001
297.39709999999997	0.2	vite	32	verb	phrase	1	10	match	vite	5	1	p	0.8193000000000001
297.5971	0.0	+	32	verb	phrase	1	11	match	vite	5	1	p	0.8193000000000001
297.997	0.0	+	32	verb	phrase	1	12	match	vite	5	1	p	0.8193000000000001
299.9969	0.0	VITE	32	verb	phrase	1	13	match	vite	5	1	p	0.8193000000000001
300.88009999999997	0.0	+	32	verb	phrase	1	14	match	vite	5	1	p	0.8193000000000001
300.8162	0.0	[response]	32	verb	phrase	1	15	match	vite	5	1	p	0.8193000000000001
302.3967	0.0	+	33	verb	list	4	1	nomatch	adam	-1	1	y	0.87134
302.9466	0.2	fvc	33	verb	list	4	2	nomatch	adam	-1	1	y	0.87134
303.1466	0.0	+	33	verb	list	4	3	nomatch	adam	-1	1	y	0.87134
303.5466	0.2	vers	33	verb	list	4	4	nomatch	adam	-1	1	y	0.87134
303.7466	0.0	+	33	verb	list	4	5	nomatch	adam	-1	1	y	0.87134
304.1465	0.2	va	33	verb	list	4	6	nomatch	adam	-1	1	y	0.87134
304.3465	0.0	+	33	verb	list	4	7	nomatch	adam	-1	1	y	0.87134
304.74649999999997	0.2	nouveau	33	verb	list	4	8	nomatch	adam	-1	1	y	0.87134
304.9465	0.0	+	33	verb	list	4	9	nomatch	adam	-1	1	y	0.87134
305.3465	0.2	rouler	33	verb	list	4	10	nomatch	adam	-1	1	y	0.87134
305.5464	0.0	+	33	verb	list	4	11	nomatch	adam	-1	1	y	0.87134
305.9464	0.0	+	33	verb	list	4	12	nomatch	adam	-1	1	y	0.87134
307.9463	0.0	ADAM	33	verb	list	4	13	nomatch	adam	-1	1	y	0.87134
308.8795	0.0	+	33	verb	list	4	14	nomatch	adam	-1	1	y	0.87134
308.81759999999997	0.0	[response]	33	verb	list	4	15	nomatch	adam	-1	1	y	0.87134
310.3478	0.0	+	34	verb	list	4	1	match	parader	4	1	p	0.89751
310.896	0.2	wflk	34	verb	list	4	2	match	parader	4	1	p	0.89751
311.096	0.0	+	34	verb	list	4	3	match	parader	4	1	p	0.89751
311.496	0.2	yves	34	verb	list	4	4	match	parader	4	1	p	0.89751
311.69599999999997	0.0	+	34	verb	list	4	5	match	parader	4	1	p	0.89751
312.0959	0.2	mon	34	verb	list	4	6	match	parader	4	1	p	0.89751
312.2959	0.0	+	34	verb	list	4	7	match	parader	4	1	p	0.89751
312.6959	0.2	parader	34	verb	list	4	8	match	parader	4	1	p	0.89751
312.8959	0.0	+	34	verb	list	4	9	match	parader	4	1	p	0.89751
313.29699999999997	0.2	bleu	34	verb	list	4	10	match	parader	4	1	p	0.89751
313.4958	0.0	+	34	verb	list	4	11	match	parader	4	1	p	0.89751
313.8958	0.0	+	34	verb	list	4	12	match	parader	4	1	p	0.89751
315.8957	0.0	PARADER	34	verb	list	4	13	match	parader	4	1	p	0.89751
316.8622	0.0	+	34	verb	list	4	14	match	parader	4	1	p	0.89751
316.79320000000007	0.0	[response]	34	verb	list	4	15	match	parader	4	1	p	0.89751
318.2955	0.0	+	35	verb	phrase	4	1	nomatch	ainsi	-1	1	y	0.60021
318.8454	0.2	nbgd	35	verb	phrase	4	2	nomatch	ainsi	-1	1	y	0.60021
319.0454	0.0	+	35	verb	phrase	4	3	nomatch	ainsi	-1	1	y	0.60021
319.4454	0.2	adam	35	verb	phrase	4	4	nomatch	ainsi	-1	1	y	0.60021
319.6454	0.0	+	35	verb	phrase	4	5	nomatch	ainsi	-1	1	y	0.60021
320.0453	0.2	doit	35	verb	phrase	4	6	nomatch	ainsi	-1	1	y	0.60021
320.2453	0.0	+	35	verb	phrase	4	7	nomatch	ainsi	-1	1	y	0.60021
320.6453	0.2	voyager	35	verb	phrase	4	8	nomatch	ainsi	-1	1	y	0.60021
320.8453	0.0	+	35	verb	phrase	4	9	nomatch	ainsi	-1	1	y	0.60021
321.2452	0.2	tard	35	verb	phrase	4	10	nomatch	ainsi	-1	1	y	0.60021
321.4452	0.0	+	35	verb	phrase	4	11	nomatch	ainsi	-1	1	y	0.60021
321.8452	0.0	+	35	verb	phrase	4	12	nomatch	ainsi	-1	1	y	0.60021
323.8451	0.0	AINSI	35	verb	phrase	4	13	nomatch	ainsi	-1	1	y	0.60021
324.5117	0.0	+	35	verb	phrase	4	14	nomatch	ainsi	-1	1	y	0.60021
324.4453	0.0	[response]	35	verb	phrase	4	15	nomatch	ainsi	-1	1	y	0.60021
326.2449	0.0	+	36	verb	phrase	1	1	match	loin	5	1	p	0.92879
326.7948	0.2	pvml	36	verb	phrase	1	2	match	loin	5	1	p	0.92879
326.9948	0.0	+	36	verb	phrase	1	3	match	loin	5	1	p	0.92879
327.3948	0.2	ljxk	36	verb	phrase	1	4	match	loin	5	1	p	0.92879
327.5948	0.0	+	36	verb	phrase	1	5	match	loin	5	1	p	0.92879
327.99469999999997	0.2	gxvf	36	verb	phrase	1	6	match	loin	5	1	p	0.92879
328.1947	0.0	+	36	verb	phrase	1	7	match	loin	5	1	p	0.92879
328.5947	0.2	rpdczvl	36	verb	phrase	1	8	match	loin	5	1	p	0.92879
328.7947	0.0	+	36	verb	phrase	1	9	match	loin	5	1	p	0.92879
329.1946	0.2	loin	36	verb	phrase	1	10	match	loin	5	1	p	0.92879
329.39459999999997	0.0	+	36	verb	phrase	1	11	match	loin	5	1	p	0.92879
329.7946	0.0	+	36	verb	phrase	1	12	match	loin	5	1	p	0.92879
331.7944	0.0	LOIN	36	verb	phrase	1	13	match	loin	5	1	p	0.92879
332.7777	0.0	+	36	verb	phrase	1	14	match	loin	5	1	p	0.92879
332.7232000000001	0.0	[response]	36	verb	phrase	1	15	match	loin	5	1	p	0.92879
334.19419999999997	0.0	+	37	noun	phrase	1	1	nomatch	petit	-1	1	y	0.49329
334.7442	0.2	hdn	37	noun	phrase	1	2	nomatch	petit	-1	1	y	0.49329
334.94419999999997	0.0	+	37	noun	phrase	1	3	nomatch	petit	-1	1	y	0.49329
335.3442	0.2	xlb	37	noun	phrase	1	4	nomatch	petit	-1	1	y	0.49329
335.5441	0.0	+	37	noun	phrase	1	5	nomatch	petit	-1	1	y	0.49329
335.9441	0.2	pjf	37	noun	phrase	1	6	nomatch	petit	-1	1	y	0.49329
336.1441	0.0	+	37	noun	phrase	1	7	nomatch	petit	-1	1	y	0.49329
336.5441	0.2	pzmjvdb	37	noun	phrase	1	8	nomatch	petit	-1	1	y	0.49329
336.7441	0.0	+	37	noun	phrase	1	9	nomatch	petit	-1	1	y	0.49329
337.144	0.2	grand	37	noun	phrase	1	10	nomatch	petit	-1	1	y	0.49329
337.344	0.0	+	37	noun	phrase	1	11	nomatch	petit	-1	1	y	0.49329
337.74399999999997	0.0	+	37	noun	phrase	1	12	nomatch	petit	-1	1	y	0.49329
339.7438	0.0	PETIT	37	noun	phrase	1	13	nomatch	petit	-1	1	y	0.49329
340.2938	0.0	+	37	noun	phrase	1	14	nomatch	petit	-1	1	y	0.49329
340.2371	0.0	[response]	37	noun	phrase	1	15	nomatch	petit	-1	1	y	0.49329
342.1436	0.0	+	38	noun	phrase	3	1	match	casier	4	1	p	0.64759
342.6936	0.2	zkgnb	38	noun	phrase	3	2	match	casier	4	1	p	0.64759
342.8936	0.0	+	38	noun	phrase	3	3	match	casier	4	1	p	0.64759
343.29359999999997	0.2	bjsm	38	noun	phrase	3	4	match	casier	4	1	p	0.64759
343.4935	0.0	+	38	noun	phrase	3	5	match	casier	4	1	p	0.64759
343.8935	0.2	mon	38	noun	phrase	3	6	match	casier	4	1	p	0.64759
344.0935	0.0	+	38	noun	phrase	3	7	match	casier	4	1	p	0.64759
344.4935	0.2	casier	38	noun	phrase	3	8	match	casier	4	1	p	0.64759
344.6934	0.0	+	38	noun	phrase	3	9	match	casier	4	1	p	0.64759
345.0934	0.2	rouge	38	noun	phrase	3	10	match	casier	4	1	p	0.64759
345.2934	0.0	+	38	noun	phrase	3	11	match	casier	4	1	p	0.64759
345.6934	0.0	+	38	noun	phrase	3	12	match	casier	4	1	p	0.64759
347.6932	0.0	CASIER	38	noun	phrase	3	13	match	casier	4	1	p	0.64759
348.4098	0.0	+	38	noun	phrase	3	14	match	casier	4	1	p	0.64759
348.3408	0.0	[response]	38	noun	phrase	3	15	match	casier	4	1	p	0.64759
350.093	0.0	+	39	verb	phrase	2	1	match	moins	4	1	p	0.72114
350.643	0.2	jvc	39	verb	phrase	2	2	match	moins	4	1	p	0.72114
350.843	0.0	+	39	verb	phrase	2	3	match	moins	4	1	p	0.72114
351.2429	0.2	ljxk	39	verb	phrase	2	4	match	moins	4	1	p	0.72114
351.4429	0.0	+	39	verb	phrase	2	5	match	moins	4	1	p	0.72114
351.8429	0.2	xv	39	verb	phrase	2	6	match	moins	4	1	p	0.72114
352.0429	0.0	+	39	verb	phrase	2	7	match	moins	4	1	p	0.72114
352.4429	0.2	moins	39	verb	phrase	2	8	match	moins	4	1	p	0.72114
352.6428	0.0	+	39	verb	phrase	2	9	match	moins	4	1	p	0.72114
353.0428	0.2	patiner	39	verb	phrase	2	10	match	moins	4	1	p	0.72114
353.2428	0.0	+	39	verb	phrase	2	11	match	moins	4	1	p	0.72114
353.6428	0.0	+	39	verb	phrase	2	12	match	moins	4	1	p	0.72114
355.6426	0.0	MOINS	39	verb	phrase	2	13	match	moins	4	1	p	0.72114
356.4259	0.0	+	39	verb	phrase	2	14	match	moins	4	1	p	0.72114
356.36379999999997	0.0	[response]	39	verb	phrase	2	15	match	moins	4	1	p	0.72114
358.0424	0.0	+	40	noun	phrase	2	1	nomatch	casier	-1	1	y	0.86277
358.5924	0.2	rqxwh	40	noun	phrase	2	2	nomatch	casier	-1	1	y	0.86277
358.7924	0.0	+	40	noun	phrase	2	3	nomatch	casier	-1	1	y	0.86277
359.1923	0.2	xhls	40	noun	phrase	2	4	nomatch	casier	-1	1	y	0.86277
359.3923	0.0	+	40	noun	phrase	2	5	nomatch	casier	-1	1	y	0.86277
359.7923	0.2	pjf	40	noun	phrase	2	6	nomatch	casier	-1	1	y	0.86277
359.9923	0.0	+	40	noun	phrase	2	7	nomatch	casier	-1	1	y	0.86277
360.3922	0.2	boîtier	40	noun	phrase	2	8	nomatch	casier	-1	1	y	0.86277
360.5922	0.0	+	40	noun	phrase	2	9	nomatch	casier	-1	1	y	0.86277
360.99219999999997	0.2	rouge	40	noun	phrase	2	10	nomatch	casier	-1	1	y	0.86277
361.1922	0.0	+	40	noun	phrase	2	11	nomatch	casier	-1	1	y	0.86277
361.5922	0.0	+	40	noun	phrase	2	12	nomatch	casier	-1	1	y	0.86277
363.592	0.0	CASIER	40	noun	phrase	2	13	nomatch	casier	-1	1	y	0.86277
364.5253	0.0	+	40	noun	phrase	2	14	nomatch	casier	-1	1	y	0.86277
364.4548	0.0	[response]	40	noun	phrase	2	15	nomatch	casier	-1	1	y	0.86277
365.9918	0.0	+	41	noun	phrase	4	1	nomatch	sur	-1	1	y	0.89725
366.54179999999997	0.2	gltzh	41	noun	phrase	4	2	nomatch	sur	-1	1	y	0.89725
366.7418	0.0	+	41	noun	phrase	4	3	nomatch	sur	-1	1	y	0.89725
367.1417	0.2	sous	41	noun	phrase	4	4	nomatch	sur	-1	1	y	0.89725
367.3417	0.0	+	41	noun	phrase	4	5	nomatch	sur	-1	1	y	0.89725
367.7417	0.2	leur	41	noun	phrase	4	6	nomatch	sur	-1	1	y	0.89725
367.94169999999997	0.0	+	41	noun	phrase	4	7	nomatch	sur	-1	1	y	0.89725
368.34159999999997	0.2	clavier	41	noun	phrase	4	8	nomatch	sur	-1	1	y	0.89725
368.5416	0.0	+	41	noun	phrase	4	9	nomatch	sur	-1	1	y	0.89725
368.9416	0.2	blanc	41	noun	phrase	4	10	nomatch	sur	-1	1	y	0.89725
369.1416	0.0	+	41	noun	phrase	4	11	nomatch	sur	-1	1	y	0.89725
369.5415	0.0	+	41	noun	phrase	4	12	nomatch	sur	-1	1	y	0.89725
371.5414	0.0	SUR	41	noun	phrase	4	13	nomatch	sur	-1	1	y	0.89725
372.508	0.0	+	41	noun	phrase	4	14	nomatch	sur	-1	1	y	0.89725
372.4386	0.0	[response]	41	noun	phrase	4	15	nomatch	sur	-1	1	y	0.89725
373.9412	0.0	+	42	verb	phrase	3	1	nomatch	tard	-1	1	y	0.8919
374.4912	0.2	tzwhgrp	42	verb	phrase	3	2	nomatch	tard	-1	1	y	0.8919
374.6911	0.0	+	42	verb	phrase	3	3	nomatch	tard	-1	1	y	0.8919
375.0911	0.2	hmzf	42	verb	phrase	3	4	nomatch	tard	-1	1	y	0.8919
375.2911	0.0	+	42	verb	phrase	3	5	nomatch	tard	-1	1	y	0.8919
375.6911	0.2	peut	42	verb	phrase	3	6	nomatch	tard	-1	1	y	0.8919
375.8911	0.0	+	42	verb	phrase	3	7	nomatch	tard	-1	1	y	0.8919
376.291	0.2	voyager	42	verb	phrase	3	8	nomatch	tard	-1	1	y	0.8919
376.491	0.0	+	42	verb	phrase	3	9	nomatch	tard	-1	1	y	0.8919
376.891	0.2	vite	42	verb	phrase	3	10	nomatch	tard	-1	1	y	0.8919
377.091	0.0	+	42	verb	phrase	3	11	nomatch	tard	-1	1	y	0.8919
377.4909	0.0	+	42	verb	phrase	3	12	nomatch	tard	-1	1	y	0.8919
379.4908	0.0	TARD	42	verb	phrase	3	13	nomatch	tard	-1	1	y	0.8919
380.4407	0.0	+	42	verb	phrase	3	14	nomatch	tard	-1	1	y	0.8919
380.3827	0.0	[response]	42	verb	phrase	3	15	nomatch	tard	-1	1	y	0.8919
381.8906	0.0	+	43	noun	list	1	1	nomatch	beaucoup	-1	1	y	0.85444
382.4406	0.2	txd	43	noun	list	1	2	nomatch	beaucoup	-1	1	y	0.85444
382.6405	0.0	+	43	noun	list	1	3	nomatch	beaucoup	-1	1	y	0.85444
383.0405	0.2	ljxk	43	noun	list	1	4	nomatch	beaucoup	-1	1	y	0.85444
383.2405	0.0	+	43	noun	list	1	5	nomatch	beaucoup	-1	1	y	0.85444
383.6405	0.2	pjf	43	noun	list	1	6	nomatch	beaucoup	-1	1	y	0.85444
383.8405	0.0	+	43	noun	list	1	7	nomatch	beaucoup	-1	1	y	0.85444
384.2404	0.2	pzmjvdb	43	noun	list	1	8	nomatch	beaucoup	-1	1	y	0.85444
384.4404	0.0	+	43	noun	list	1	9	nomatch	beaucoup	-1	1	y	0.85444
384.8404	0.2	plus	43	noun	list	1	10	nomatch	beaucoup	-1	1	y	0.85444
385.0404	0.0	+	43	noun	list	1	11	nomatch	beaucoup	-1	1	y	0.85444
385.4403	0.0	+	43	noun	list	1	12	nomatch	beaucoup	-1	1	y	0.85444
387.4402	0.0	BEAUCOUP	43	noun	list	1	13	nomatch	beaucoup	-1	1	y	0.85444
388.3568	0.0	+	43	noun	list	1	14	nomatch	beaucoup	-1	1	y	0.85444
388.2946	0.0	[response]	43	noun	list	1	15	nomatch	beaucoup	-1	1	y	0.85444
389.84	0.0	+	44	noun	list	1	1	nomatch	rouge	-1	1	y	0.61462
390.39	0.2	dlq	44	noun	list	1	2	nomatch	rouge	-1	1	y	0.61462
390.5899	0.0	+	44	noun	list	1	3	nomatch	rouge	-1	1	y	0.61462
390.9899	0.2	mdrs	44	noun	list	1	4	nomatch	rouge	-1	1	y	0.61462
391.18989999999997	0.0	+	44	noun	list	1	5	nomatch	rouge	-1	1	y	0.61462
391.5899	0.2	gxvf	44	noun	list	1	6	nomatch	rouge	-1	1	y	0.61462
391.7898	0.0	+	44	noun	list	1	7	nomatch	rouge	-1	1	y	0.61462
392.1898	0.2	zjqt	44	noun	list	1	8	nomatch	rouge	-1	1	y	0.61462
392.3898	0.0	+	44	noun	list	1	9	nomatch	rouge	-1	1	y	0.61462
392.7898	0.2	tablier	44	noun	list	1	10	nomatch	rouge	-1	1	y	0.61462
392.9898	0.0	+	44	noun	list	1	11	nomatch	rouge	-1	1	y	0.61462
393.3897	0.0	+	44	noun	list	1	12	nomatch	rouge	-1	1	y	0.61462
395.3896	0.0	ROUGE	44	noun	list	1	13	nomatch	rouge	-1	1	y	0.61462
396.0728	0.0	+	44	noun	list	1	14	nomatch	rouge	-1	1	y	0.61462
396.00419999999997	0.0	[response]	44	noun	list	1	15	nomatch	rouge	-1	1	y	0.61462
397.7894	0.0	+	45	noun	list	2	1	nomatch	plus	-1	1	y	0.61135
398.3418	0.2	mkfhsx	45	noun	list	2	2	nomatch	plus	-1	1	y	0.61135
398.53929999999997	0.0	+	45	noun	list	2	3	nomatch	plus	-1	1	y	0.61135
398.9393	0.2	kvgl	45	noun	list	2	4	nomatch	plus	-1	1	y	0.61135
399.1393	0.0	+	45	noun	list	2	5	nomatch	plus	-1	1	y	0.61135
399.5392	0.2	dljz	45	noun	list	2	6	nomatch	plus	-1	1	y	0.61135
399.7392	0.0	+	45	noun	list	2	7	nomatch	plus	-1	1	y	0.61135
400.1392	0.2	mieux	45	noun	list	2	8	nomatch	plus	-1	1	y	0.61135
400.3409	0.0	+	45	noun	list	2	9	nomatch	plus	-1	1	y	0.61135
400.7392	0.2	voilier	45	noun	list	2	10	nomatch	plus	-1	1	y	0.61135
400.9391	0.0	+	45	noun	list	2	11	nomatch	plus	-1	1	y	0.61135
401.3391	0.0	+	45	noun	list	2	12	nomatch	plus	-1	1	y	0.61135
403.339	0.0	PLUS	45	noun	list	2	13	nomatch	plus	-1	1	y	0.61135
404.0056	0.0	+	45	noun	list	2	14	nomatch	plus	-1	1	y	0.61135
403.95029999999997	0.0	[response]	45	noun	list	2	15	nomatch	plus	-1	1	y	0.61135
405.73879999999997	0.0	+	46	noun	list	1	1	match	grenier	5	1	p	0.54833
406.2887	0.2	jvprk	46	noun	list	1	2	match	grenier	5	1	p	0.54833
406.4887	0.0	+	46	noun	list	1	3	match	grenier	5	1	p	0.54833
406.8887	0.2	mdrs	46	noun	list	1	4	match	grenier	5	1	p	0.54833
407.0887	0.0	+	46	noun	list	1	5	match	grenier	5	1	p	0.54833
407.4886	0.2	zmpt	46	noun	list	1	6	match	grenier	5	1	p	0.54833
407.6886	0.0	+	46	noun	list	1	7	match	grenier	5	1	p	0.54833
408.08860000000004	0.2	mfwx	46	noun	list	1	8	match	grenier	5	1	p	0.54833
408.2886	0.0	+	46	noun	list	1	9	match	grenier	5	1	p	0.54833
408.6885	0.2	grenier	46	noun	list	1	10	match	grenier	5	1	p	0.54833
408.8885	0.0	+	46	noun	list	1	11	match	grenier	5	1	p	0.54833
409.2885	0.0	+	46	noun	list	1	12	match	grenier	5	1	p	0.54833
411.28830000000005	0.0	GRENIER	46	noun	list	1	13	match	grenier	5	1	p	0.54833
411.905	0.0	+	46	noun	list	1	14	match	grenier	5	1	p	0.54833
411.83669999999995	0.0	[response]	46	noun	list	1	15	match	grenier	5	1	p	0.54833
413.68819999999994	0.0	+	47	verb	phrase	4	1	nomatch	mon	-1	1	y	0.61045
414.23810000000003	0.2	nkq	47	verb	phrase	4	2	nomatch	mon	-1	1	y	0.61045
414.43809999999996	0.0	+	47	verb	phrase	4	3	nomatch	mon	-1	1	y	0.61045
414.83809999999994	0.2	jade	47	verb	phrase	4	4	nomatch	mon	-1	1	y	0.61045
415.0381	0.0	+	47	verb	phrase	4	5	nomatch	mon	-1	1	y	0.61045
415.438	0.2	doit	47	verb	phrase	4	6	nomatch	mon	-1	1	y	0.61045
415.63800000000003	0.0	+	47	verb	phrase	4	7	nomatch	mon	-1	1	y	0.61045
416.038	0.2	jongler	47	verb	phrase	4	8	nomatch	mon	-1	1	y	0.61045
416.23799999999994	0.0	+	47	verb	phrase	4	9	nomatch	mon	-1	1	y	0.61045
416.63789999999995	0.2	vite	47	verb	phrase	4	10	nomatch	mon	-1	1	y	0.61045
416.8379	0.0	+	47	verb	phrase	4	11	nomatch	mon	-1	1	y	0.61045
417.23789999999997	0.0	+	47	verb	phrase	4	12	nomatch	mon	-1	1	y	0.61045
419.2377	0.0	MON	47	verb	phrase	4	13	nomatch	mon	-1	1	y	0.61045
419.90430000000003	0.0	+	47	verb	phrase	4	14	nomatch	mon	-1	1	y	0.61045
419.8482	0.0	[response]	47	verb	phrase	4	15	nomatch	mon	-1	1	y	0.61045
421.6376	0.0	+	48	noun	phrase	1	1	match	nouveau	5	1	p	0.5993
422.1875	0.2	vrh	48	noun	phrase	1	2	match	nouveau	5	1	p	0.5993
422.38750000000005	0.0	+	48	noun	phrase	1	3	match	nouveau	5	1	p	0.5993
422.7875	0.2	lfnt	48	noun	phrase	1	4	match	nouveau	5	1	p	0.5993
422.98749999999995	0.0	+	48	noun	phrase	1	5	match	nouveau	5	1	p	0.5993
423.38739999999996	0.2	vzq	48	noun	phrase	1	6	match	nouveau	5	1	p	0.5993
423.5874	0.0	+	48	noun	phrase	1	7	match	nouveau	5	1	p	0.5993
423.9874	0.2	bsjgdxq	48	noun	phrase	1	8	match	nouveau	5	1	p	0.5993
424.1874	0.0	+	48	noun	phrase	1	9	match	nouveau	5	1	p	0.5993
424.5873	0.2	nouveau	48	noun	phrase	1	10	match	nouveau	5	1	p	0.5993
424.78729999999996	0.0	+	48	noun	phrase	1	11	match	nouveau	5	1	p	0.5993
425.18730000000005	0.0	+	48	noun	phrase	1	12	match	nouveau	5	1	p	0.5993
427.1871	0.0	NOUVEAU	48	noun	phrase	1	13	match	nouveau	5	1	p	0.5993
427.8537	0.0	+	48	noun	phrase	1	14	match	nouveau	5	1	p	0.5993
427.78639999999996	0.0	[response]	48	noun	phrase	1	15	match	nouveau	5	1	p	0.5993
437.58629999999994	0.0	+	49	verb	phrase	3	1	nomatch	tablier	-1	1	y	0.91203
438.1363	0.2	png	49	verb	phrase	3	2	nomatch	tablier	-1	1	y	0.91203
438.33629999999994	0.0	+	49	verb	phrase	3	3	nomatch	tablier	-1	1	y	0.91203
438.73619999999994	0.2	ljxk	49	verb	phrase	3	4	nomatch	tablier	-1	1	y	0.91203
438.9362	0.0	+	49	verb	phrase	3	5	nomatch	tablier	-1	1	y	0.91203
439.33619999999996	0.2	peut	49	verb	phrase	3	6	nomatch	tablier	-1	1	y	0.91203
439.5362	0.0	+	49	verb	phrase	3	7	nomatch	tablier	-1	1	y	0.91203
439.9362	0.2	galoper	49	verb	phrase	3	8	nomatch	tablier	-1	1	y	0.91203
440.13609999999994	0.0	+	49	verb	phrase	3	9	nomatch	tablier	-1	1	y	0.91203
440.53610000000003	0.2	tard	49	verb	phrase	3	10	nomatch	tablier	-1	1	y	0.91203
440.73609999999996	0.0	+	49	verb	phrase	3	11	nomatch	tablier	-1	1	y	0.91203
441.13609999999994	0.0	+	49	verb	phrase	3	12	nomatch	tablier	-1	1	y	0.91203
443.1359	0.0	TABLIER	49	verb	phrase	3	13	nomatch	tablier	-1	1	y	0.91203
444.10249999999996	0.0	+	49	verb	phrase	3	14	nomatch	tablier	-1	1	y	0.91203
444.0479	0.0	[response]	49	verb	phrase	3	15	nomatch	tablier	-1	1	y	0.91203
453.53509999999994	0.0	+	50	noun	phrase	1	1	nomatch	noir	-1	1	y	0.6587200000000001
454.0851	0.2	rgbzlnc	50	noun	phrase	1	2	nomatch	noir	-1	1	y	0.6587200000000001
454.28509999999994	0.0	+	50	noun	phrase	1	3	nomatch	noir	-1	1	y	0.6587200000000001
454.68499999999995	0.2	xlb	50	noun	phrase	1	4	nomatch	noir	-1	1	y	0.6587200000000001
454.885	0.0	+	50	noun	phrase	1	5	nomatch	noir	-1	1	y	0.6587200000000001
455.28499999999997	0.2	pjf	50	noun	phrase	1	6	nomatch	noir	-1	1	y	0.6587200000000001
455.485	0.0	+	50	noun	phrase	1	7	nomatch	noir	-1	1	y	0.6587200000000001
455.8849	0.2	bsjgdxq	50	noun	phrase	1	8	nomatch	noir	-1	1	y	0.6587200000000001
456.08489999999995	0.0	+	50	noun	phrase	1	9	nomatch	noir	-1	1	y	0.6587200000000001
456.48490000000004	0.2	vert	50	noun	phrase	1	10	nomatch	noir	-1	1	y	0.6587200000000001
456.68489999999997	0.0	+	50	noun	phrase	1	11	nomatch	noir	-1	1	y	0.6587200000000001
457.0848	0.0	+	50	noun	phrase	1	12	nomatch	noir	-1	1	y	0.6587200000000001
459.1014	0.0	NOIR	50	noun	phrase	1	13	nomatch	noir	-1	1	y	0.6587200000000001
459.818	0.0	+	50	noun	phrase	1	14	nomatch	noir	-1	1	y	0.6587200000000001
459.76009999999997	0.0	[response]	50	noun	phrase	1	15	nomatch	noir	-1	1	y	0.6587200000000001
461.50120000000004	0.0	+	51	verb	phrase	2	1	nomatch	voyager	-1	1	y	0.62112
462.0511	0.2	hwfltx	51	verb	phrase	2	2	nomatch	voyager	-1	1	y	0.62112
462.25109999999995	0.0	+	51	verb	phrase	2	3	nomatch	voyager	-1	1	y	0.62112
462.65110000000004	0.2	ljxk	51	verb	phrase	2	4	nomatch	voyager	-1	1	y	0.62112
462.8511	0.0	+	51	verb	phrase	2	5	nomatch	voyager	-1	1	y	0.62112
463.251	0.2	gxvf	51	verb	phrase	2	6	nomatch	voyager	-1	1	y	0.62112
463.451	0.0	+	51	verb	phrase	2	7	nomatch	voyager	-1	1	y	0.62112
463.851	0.2	mieux	51	verb	phrase	2	8	nomatch	voyager	-1	1	y	0.62112
464.05100000000004	0.0	+	51	verb	phrase	2	9	nomatch	voyager	-1	1	y	0.62112
464.45090000000005	0.2	rouler	51	verb	phrase	2	10	nomatch	voyager	-1	1	y	0.62112
464.6509	0.0	+	51	verb	phrase	2	11	nomatch	voyager	-1	1	y	0.62112
465.05089999999996	0.0	+	51	verb	phrase	2	12	nomatch	voyager	-1	1	y	0.62112
467.0507	0.0	VOYAGER	51	verb	phrase	2	13	nomatch	voyager	-1	1	y	0.62112
467.73400000000004	0.0	+	51	verb	phrase	2	14	nomatch	voyager	-1	1	y	0.62112
467.67190000000005	0.0	[response]	51	verb	phrase	2	15	nomatch	voyager	-1	1	y	0.62112
469.4506	0.0	+	52	noun	list	2	1	match	clavier	4	1	p	0.75167
470.0005	0.2	lwtr	52	noun	list	2	2	match	clavier	4	1	p	0.75167
470.20050000000003	0.0	+	52	noun	list	2	3	match	clavier	4	1	p	0.75167
470.6005	0.2	mdrs	52	noun	list	2	4	match	clavier	4	1	p	0.75167
470.80049999999994	0.0	+	52	noun	list	2	5	match	clavier	4	1	p	0.75167
471.20039999999995	0.2	zmpt	52	noun	list	2	6	match	clavier	4	1	p	0.75167
471.4004	0.0	+	52	noun	list	2	7	match	clavier	4	1	p	0.75167
471.80039999999997	0.2	clavier	52	noun	list	2	8	match	clavier	4	1	p	0.75167
472.0004	0.0	+	52	noun	list	2	9	match	clavier	4	1	p	0.75167
472.4003	0.2	ainsi	52	noun	list	2	10	match	clavier	4	1	p	0.75167
472.60029999999995	0.0	+	52	noun	list	2	11	match	clavier	4	1	p	0.75167
473.00030000000004	0.0	+	52	noun	list	2	12	match	clavier	4	1	p	0.75167
475.0001	0.0	CLAVIER	52	noun	list	2	13	match	clavier	4	1	p	0.75167
475.81669999999997	0.0	+	52	noun	list	2	14	match	clavier	4	1	p	0.75167
475.7518	0.0	[response]	52	noun	list	2	15	match	clavier	4	1	p	0.75167
477.3999	0.0	+	53	verb	list	2	1	match	parader	5	1	p	0.8367000000000001
477.94989999999996	0.2	gkrnvjb	53	verb	list	2	2	match	parader	5	1	p	0.8367000000000001
478.1499	0.0	+	53	verb	list	2	3	match	parader	5	1	p	0.8367000000000001
478.5499	0.2	phxz	53	verb	list	2	4	match	parader	5	1	p	0.8367000000000001
478.7499	0.0	+	53	verb	list	2	5	match	parader	5	1	p	0.8367000000000001
479.1498	0.2	xv	53	verb	list	2	6	match	parader	5	1	p	0.8367000000000001
479.34979999999996	0.0	+	53	verb	list	2	7	match	parader	5	1	p	0.8367000000000001
479.74980000000005	0.2	grand	53	verb	list	2	8	match	parader	5	1	p	0.8367000000000001
479.9498	0.0	+	53	verb	list	2	9	match	parader	5	1	p	0.8367000000000001
480.3497	0.2	parader	53	verb	list	2	10	match	parader	5	1	p	0.8367000000000001
480.54970000000003	0.0	+	53	verb	list	2	11	match	parader	5	1	p	0.8367000000000001
480.9497	0.0	+	53	verb	list	2	12	match	parader	5	1	p	0.8367000000000001
482.94949999999994	0.0	PARADER	53	verb	list	2	13	match	parader	5	1	p	0.8367000000000001
483.84950000000003	0.0	+	53	verb	list	2	14	match	parader	5	1	p	0.8367000000000001
483.7862	0.0	[response]	53	verb	list	2	15	match	parader	5	1	p	0.8367000000000001
485.34939999999995	0.0	+	54	noun	list	3	1	match	peut	3	1	p	0.64105
485.89930000000004	0.2	lqhw	54	noun	list	3	2	match	peut	3	1	p	0.64105
486.09929999999997	0.0	+	54	noun	list	3	3	match	peut	3	1	p	0.64105
486.49929999999995	0.2	mdrs	54	noun	list	3	4	match	peut	3	1	p	0.64105
486.6992	0.0	+	54	noun	list	3	5	match	peut	3	1	p	0.64105
487.0992	0.2	peut	54	noun	list	3	6	match	peut	3	1	p	0.64105
487.29920000000004	0.0	+	54	noun	list	3	7	match	peut	3	1	p	0.64105
487.6992	0.2	grenier	54	noun	list	3	8	match	peut	3	1	p	0.64105
487.8991	0.0	+	54	noun	list	3	9	match	peut	3	1	p	0.64105
488.3003	0.2	loin	54	noun	list	3	10	match	peut	3	1	p	0.64105
488.4991	0.0	+	54	noun	list	3	11	match	peut	3	1	p	0.64105
488.8991	0.0	+	54	noun	list	3	12	match	peut	3	1	p	0.64105
490.8989	0.0	PEUT	54	noun	list	3	13	match	peut	3	1	p	0.64105
491.59889999999996	0.0	+	54	noun	list	3	14	match	peut	3	1	p	0.64105
491.53999999999996	0.0	[response]	54	noun	list	3	15	match	peut	3	1	p	0.64105
493.29869999999994	0.0	+	55	noun	phrase	1	1	nomatch	doit	-1	1	y	0.6727
493.8487	0.2	gqxh	55	noun	phrase	1	2	nomatch	doit	-1	1	y	0.6727
494.04869999999994	0.0	+	55	noun	phrase	1	3	nomatch	doit	-1	1	y	0.6727
494.44859999999994	0.2	bjsm	55	noun	phrase	1	4	nomatch	doit	-1	1	y	0.6727
494.6486	0.0	+	55	noun	phrase	1	5	nomatch	doit	-1	1	y	0.6727
495.04859999999996	0.2	pjf	55	noun	phrase	1	6	nomatch	doit	-1	1	y	0.6727
495.2486	0.0	+	55	noun	phrase	1	7	nomatch	doit	-1	1	y	0.6727
495.6486	0.2	dhxvfsj	55	noun	phrase	1	8	nomatch	doit	-1	1	y	0.6727
495.84849999999994	0.0	+	55	noun	phrase	1	9	nomatch	doit	-1	1	y	0.6727
496.24850000000004	0.2	grand	55	noun	phrase	1	10	nomatch	doit	-1	1	y	0.6727
496.44849999999997	0.0	+	55	noun	phrase	1	11	nomatch	doit	-1	1	y	0.6727
496.84849999999994	0.0	+	55	noun	phrase	1	12	nomatch	doit	-1	1	y	0.6727
498.8483	0.0	DOIT	55	noun	phrase	1	13	nomatch	doit	-1	1	y	0.6727
499.5816	0.0	+	55	noun	phrase	1	14	nomatch	doit	-1	1	y	0.6727
499.52099999999996	0.0	[response]	55	noun	phrase	1	15	nomatch	doit	-1	1	y	0.6727
501.2481	0.0	+	56	noun	list	1	1	nomatch	mon	-1	1	y	0.65585
501.7981	0.2	nwh	56	noun	list	1	2	nomatch	mon	-1	1	y	0.65585
501.9981	0.0	+	56	noun	list	1	3	nomatch	mon	-1	1	y	0.65585
502.398	0.2	xlb	56	noun	list	1	4	nomatch	mon	-1	1	y	0.65585
502.59799999999996	0.0	+	56	noun	list	1	5	nomatch	mon	-1	1	y	0.65585
502.99800000000005	0.2	zmpt	56	noun	list	1	6	nomatch	mon	-1	1	y	0.65585
503.198	0.0	+	56	noun	list	1	7	nomatch	mon	-1	1	y	0.65585
503.5979	0.2	bsjgdxq	56	noun	list	1	8	nomatch	mon	-1	1	y	0.65585
503.7979	0.0	+	56	noun	list	1	9	nomatch	mon	-1	1	y	0.65585
504.1979	0.2	vite	56	noun	list	1	10	nomatch	mon	-1	1	y	0.65585
504.39790000000005	0.0	+	56	noun	list	1	11	nomatch	mon	-1	1	y	0.65585
504.7979	0.0	+	56	noun	list	1	12	nomatch	mon	-1	1	y	0.65585
506.79769999999996	0.0	MON	56	noun	list	1	13	nomatch	mon	-1	1	y	0.65585
507.51430000000005	0.0	+	56	noun	list	1	14	nomatch	mon	-1	1	y	0.65585
507.45349999999996	0.0	[response]	56	noun	list	1	15	nomatch	mon	-1	1	y	0.65585
509.1975	0.0	+	57	verb	phrase	3	1	match	jongler	4	1	p	1.0808
509.74749999999995	0.2	vqcjxfp	57	verb	phrase	3	2	match	jongler	4	1	p	1.0808
509.9475	0.0	+	57	verb	phrase	3	3	match	jongler	4	1	p	1.0808
510.3474	0.2	jgvm	57	verb	phrase	3	4	match	jongler	4	1	p	1.0808
510.54740000000004	0.0	+	57	verb	phrase	3	5	match	jongler	4	1	p	1.0808
510.9474	0.2	va	57	verb	phrase	3	6	match	jongler	4	1	p	1.0808
511.14739999999995	0.0	+	57	verb	phrase	3	7	match	jongler	4	1	p	1.0808
511.54729999999995	0.2	jongler	57	verb	phrase	3	8	match	jongler	4	1	p	1.0808
511.7473	0.0	+	57	verb	phrase	3	9	match	jongler	4	1	p	1.0808
512.1473	0.2	tôt	57	verb	phrase	3	10	match	jongler	4	1	p	1.0808
512.3473	0.0	+	57	verb	phrase	3	11	match	jongler	4	1	p	1.0808
512.7472	0.0	+	57	verb	phrase	3	12	match	jongler	4	1	p	1.0808
514.7471	0.0	JONGLER	57	verb	phrase	3	13	match	jongler	4	1	p	1.0808
515.897	0.0	+	57	verb	phrase	3	14	match	jongler	4	1	p	1.0808
515.8279	0.0	[response]	57	verb	phrase	3	15	match	jongler	4	1	p	1.0808
517.1469	0.0	+	58	verb	list	1	1	match	noir	5	1	p	1.013
517.6969	0.2	rqbx	58	verb	list	1	2	match	noir	5	1	p	1.013
517.8969	0.0	+	58	verb	list	1	3	match	noir	5	1	p	1.013
518.2968	0.2	bclj	58	verb	list	1	4	match	noir	5	1	p	1.013
518.4968	0.0	+	58	verb	list	1	5	match	noir	5	1	p	1.013
518.8968	0.2	dljz	58	verb	list	1	6	match	noir	5	1	p	1.013
519.0968	0.0	+	58	verb	list	1	7	match	noir	5	1	p	1.013
519.4967	0.2	ndsvg	58	verb	list	1	8	match	noir	5	1	p	1.013
519.6967	0.0	+	58	verb	list	1	9	match	noir	5	1	p	1.013
520.0966999999999	0.2	noir	58	verb	list	1	10	match	noir	5	1	p	1.013
520.2967	0.0	+	58	verb	list	1	11	match	noir	5	1	p	1.013
520.6966	0.0	+	58	verb	list	1	12	match	noir	5	1	p	1.013
522.6965	0.0	NOIR	58	verb	list	1	13	match	noir	5	1	p	1.013
523.7797	0.0	+	58	verb	list	1	14	match	noir	5	1	p	1.013
523.7095	0.0	[response]	58	verb	list	1	15	match	noir	5	1	p	1.013
525.0963	0.0	+	59	verb	list	2	1	nomatch	jongler	-1	0	p	0.81161
525.6463	0.2	ksj	59	verb	list	2	2	nomatch	jongler	-1	0	p	0.81161
525.8463	0.0	+	59	verb	list	2	3	nomatch	jongler	-1	0	p	0.81161
526.2462	0.2	xhls	59	verb	list	2	4	nomatch	jongler	-1	0	p	0.81161
526.4462	0.0	+	59	verb	list	2	5	nomatch	jongler	-1	0	p	0.81161
526.8462	0.2	zmpt	59	verb	list	2	6	nomatch	jongler	-1	0	p	0.81161
527.0462	0.0	+	59	verb	list	2	7	nomatch	jongler	-1	0	p	0.81161
527.4461	0.2	nouveau	59	verb	list	2	8	nomatch	jongler	-1	0	p	0.81161
527.6461	0.0	+	59	verb	list	2	9	nomatch	jongler	-1	0	p	0.81161
528.0461	0.2	patiner	59	verb	list	2	10	nomatch	jongler	-1	0	p	0.81161
528.2461	0.0	+	59	verb	list	2	11	nomatch	jongler	-1	0	p	0.81161
528.646	0.0	+	59	verb	list	2	12	nomatch	jongler	-1	0	p	0.81161
530.6459	0.0	JONGLER	59	verb	list	2	13	nomatch	jongler	-1	0	p	0.81161
531.5125	0.0	+	59	verb	list	2	14	nomatch	jongler	-1	0	p	0.81161
531.4575	0.0	[response]	59	verb	list	2	15	nomatch	jongler	-1	0	p	0.81161
541.0451	0.0	+	60	verb	phrase	1	1	nomatch	beaucoup	-1	1	y	0.85054
541.595	0.2	rpcvmjd	60	verb	phrase	1	2	nomatch	beaucoup	-1	1	y	0.85054
541.795	0.0	+	60	verb	phrase	1	3	nomatch	beaucoup	-1	1	y	0.85054
542.195	0.2	hmzf	60	verb	phrase	1	4	nomatch	beaucoup	-1	1	y	0.85054
542.395	0.0	+	60	verb	phrase	1	5	nomatch	beaucoup	-1	1	y	0.85054
542.7949	0.2	gxvf	60	verb	phrase	1	6	nomatch	beaucoup	-1	1	y	0.85054
542.9949	0.0	+	60	verb	phrase	1	7	nomatch	beaucoup	-1	1	y	0.85054
543.3949	0.2	sxjnhdg	60	verb	phrase	1	8	nomatch	beaucoup	-1	1	y	0.85054
543.5948999999999	0.0	+	60	verb	phrase	1	9	nomatch	beaucoup	-1	1	y	0.85054
543.9949	0.2	trop	60	verb	phrase	1	10	nomatch	beaucoup	-1	1	y	0.85054
544.1948	0.0	+	60	verb	phrase	1	11	nomatch	beaucoup	-1	1	y	0.85054
544.5948	0.0	+	60	verb	phrase	1	12	nomatch	beaucoup	-1	1	y	0.85054
546.5947	0.0	BEAUCOUP	60	verb	phrase	1	13	nomatch	beaucoup	-1	1	y	0.85054
547.5112	0.0	+	60	verb	phrase	1	14	nomatch	beaucoup	-1	1	y	0.85054
547.4452	0.0	[response]	60	verb	phrase	1	15	nomatch	beaucoup	-1	1	y	0.85054
548.9945	0.0	+	61	verb	list	4	1	match	sans	2	1	p	0.6913000000000001
549.5446	0.2	qwhpls	61	verb	list	4	2	match	sans	2	1	p	0.6913000000000001
549.7444	0.0	+	61	verb	list	4	3	match	sans	2	1	p	0.6913000000000001
550.1444	0.2	sans	61	verb	list	4	4	match	sans	2	1	p	0.6913000000000001
550.3444	0.0	+	61	verb	list	4	5	match	sans	2	1	p	0.6913000000000001
550.7443	0.2	va	61	verb	list	4	6	match	sans	2	1	p	0.6913000000000001
550.9443	0.0	+	61	verb	list	4	7	match	sans	2	1	p	0.6913000000000001
551.3443	0.2	grand	61	verb	list	4	8	match	sans	2	1	p	0.6913000000000001
551.5443	0.0	+	61	verb	list	4	9	match	sans	2	1	p	0.6913000000000001
551.9442	0.2	parader	61	verb	list	4	10	match	sans	2	1	p	0.6913000000000001
552.1442	0.0	+	61	verb	list	4	11	match	sans	2	1	p	0.6913000000000001
552.5442	0.0	+	61	verb	list	4	12	match	sans	2	1	p	0.6913000000000001
554.544	0.0	SANS	61	verb	list	4	13	match	sans	2	1	p	0.6913000000000001
555.294	0.0	+	61	verb	list	4	14	match	sans	2	1	p	0.6913000000000001
555.2352999999999	0.0	[response]	61	verb	list	4	15	match	sans	2	1	p	0.6913000000000001
564.9432	0.0	+	62	verb	phrase	2	1	match	galoper	4	1	p	0.7301900000000001
565.4932	0.2	dzftrvc	62	verb	phrase	2	2	match	galoper	4	1	p	0.7301900000000001
565.6932	0.0	+	62	verb	phrase	2	3	match	galoper	4	1	p	0.7301900000000001
566.0932	0.2	zvkc	62	verb	phrase	2	4	match	galoper	4	1	p	0.7301900000000001
566.2931	0.0	+	62	verb	phrase	2	5	match	galoper	4	1	p	0.7301900000000001
566.6931	0.2	gxvf	62	verb	phrase	2	6	match	galoper	4	1	p	0.7301900000000001
566.8931	0.0	+	62	verb	phrase	2	7	match	galoper	4	1	p	0.7301900000000001
567.2931	0.2	galoper	62	verb	phrase	2	8	match	galoper	4	1	p	0.7301900000000001
567.4931	0.0	+	62	verb	phrase	2	9	match	galoper	4	1	p	0.7301900000000001
567.893	0.2	tard	62	verb	phrase	2	10	match	galoper	4	1	p	0.7301900000000001
568.093	0.0	+	62	verb	phrase	2	11	match	galoper	4	1	p	0.7301900000000001
568.4929999999999	0.0	+	62	verb	phrase	2	12	match	galoper	4	1	p	0.7301900000000001
570.4928	0.0	GALOPER	62	verb	phrase	2	13	match	galoper	4	1	p	0.7301900000000001
571.2927999999999	0.0	+	62	verb	phrase	2	14	match	galoper	4	1	p	0.7301900000000001
571.223	0.0	[response]	62	verb	phrase	2	15	match	galoper	4	1	p	0.7301900000000001
572.8926	0.0	+	63	verb	list	4	1	nomatch	sous	-1	1	y	0.73476
573.4426	0.2	dkxbgtz	63	verb	list	4	2	nomatch	sous	-1	1	y	0.73476
573.6426	0.0	+	63	verb	list	4	3	nomatch	sous	-1	1	y	0.73476
574.0426	0.2	dans	63	verb	list	4	4	nomatch	sous	-1	1	y	0.73476
574.2425	0.0	+	63	verb	list	4	5	nomatch	sous	-1	1	y	0.73476
574.6425	0.2	peut	63	verb	list	4	6	nomatch	sous	-1	1	y	0.73476
574.8425	0.0	+	63	verb	list	4	7	nomatch	sous	-1	1	y	0.73476
575.2425	0.2	grand	63	verb	list	4	8	nomatch	sous	-1	1	y	0.73476
575.4424	0.0	+	63	verb	list	4	9	nomatch	sous	-1	1	y	0.73476
575.8424	0.2	chasser	63	verb	list	4	10	nomatch	sous	-1	1	y	0.73476
576.0424	0.0	+	63	verb	list	4	11	nomatch	sous	-1	1	y	0.73476
576.4424	0.0	+	63	verb	list	4	12	nomatch	sous	-1	1	y	0.73476
578.4422	0.0	SOUS	63	verb	list	4	13	nomatch	sous	-1	1	y	0.73476
579.2421	0.0	+	63	verb	list	4	14	nomatch	sous	-1	1	y	0.73476
579.177	0.0	[response]	63	verb	list	4	15	nomatch	sous	-1	1	y	0.73476
580.842	0.0	+	64	verb	phrase	3	1	match	plus	4	1	p	0.7176
581.3919999999999	0.2	pctsbnj	64	verb	phrase	3	2	match	plus	4	1	p	0.7176
581.592	0.0	+	64	verb	phrase	3	3	match	plus	4	1	p	0.7176
581.9919	0.2	jgvm	64	verb	phrase	3	4	match	plus	4	1	p	0.7176
582.1919	0.0	+	64	verb	phrase	3	5	match	plus	4	1	p	0.7176
582.5919	0.2	doit	64	verb	phrase	3	6	match	plus	4	1	p	0.7176
582.7918999999999	0.0	+	64	verb	phrase	3	7	match	plus	4	1	p	0.7176
583.1918	0.2	plus	64	verb	phrase	3	8	match	plus	4	1	p	0.7176
583.3918	0.0	+	64	verb	phrase	3	9	match	plus	4	1	p	0.7176
583.7918	0.2	rouler	64	verb	phrase	3	10	match	plus	4	1	p	0.7176
583.9918	0.0	+	64	verb	phrase	3	11	match	plus	4	1	p	0.7176
584.3918	0.0	+	64	verb	phrase	3	12	match	plus	4	1	p	0.7176
586.3916	0.0	PLUS	64	verb	phrase	3	13	match	plus	4	1	p	0.7176
587.1749	0.0	+	64	verb	phrase	3	14	match	plus	4	1	p	0.7176
587.1092000000001	0.0	[response]	64	verb	phrase	3	15	match	plus	4	1	p	0.7176
596.7908	0.0	+	65	noun	list	4	1	match	vite	5	1	p	1.0006
597.3408	0.2	sbzftjx	65	noun	list	4	2	match	vite	5	1	p	1.0006
597.5408	0.0	+	65	noun	list	4	3	match	vite	5	1	p	1.0006
597.9407	0.2	sur	65	noun	list	4	4	match	vite	5	1	p	1.0006
598.1407	0.0	+	65	noun	list	4	5	match	vite	5	1	p	1.0006
598.5407	0.2	peut	65	noun	list	4	6	match	vite	5	1	p	1.0006
598.7407	0.0	+	65	noun	list	4	7	match	vite	5	1	p	1.0006
599.1406	0.2	boîtier	65	noun	list	4	8	match	vite	5	1	p	1.0006
599.3406	0.0	+	65	noun	list	4	9	match	vite	5	1	p	1.0006
599.7406	0.2	vite	65	noun	list	4	10	match	vite	5	1	p	1.0006
599.9406	0.0	+	65	noun	list	4	11	match	vite	5	1	p	1.0006
600.3405	0.0	+	65	noun	list	4	12	match	vite	5	1	p	1.0006
602.3404	0.0	VITE	65	noun	list	4	13	match	vite	5	1	p	1.0006
603.407	0.0	+	65	noun	list	4	14	match	vite	5	1	p	1.0006
603.341	0.0	[response]	65	noun	list	4	15	match	vite	5	1	p	1.0006
604.7402	0.0	+	66	verb	list	1	1	nomatch	trop	-1	1	y	0.55693
605.2902	0.2	pkjx	66	verb	list	1	2	nomatch	trop	-1	1	y	0.55693
605.4901	0.0	+	66	verb	list	1	3	nomatch	trop	-1	1	y	0.55693
605.8901	0.2	kvgl	66	verb	list	1	4	nomatch	trop	-1	1	y	0.55693
606.0901	0.0	+	66	verb	list	1	5	nomatch	trop	-1	1	y	0.55693
606.4901	0.2	dljz	66	verb	list	1	6	nomatch	trop	-1	1	y	0.55693
606.6899999999999	0.0	+	66	verb	list	1	7	nomatch	trop	-1	1	y	0.55693
607.09	0.2	bfzr	66	verb	list	1	8	nomatch	trop	-1	1	y	0.55693
607.29	0.0	+	66	verb	list	1	9	nomatch	trop	-1	1	y	0.55693
607.6899999999999	0.2	jongler	66	verb	list	1	10	nomatch	trop	-1	1	y	0.55693
607.89	0.0	+	66	verb	list	1	11	nomatch	trop	-1	1	y	0.55693
608.2899	0.0	+	66	verb	list	1	12	nomatch	trop	-1	1	y	0.55693
610.2898	0.0	TROP	66	verb	list	1	13	nomatch	trop	-1	1	y	0.55693
610.9064	0.0	+	66	verb	list	1	14	nomatch	trop	-1	1	y	0.55693
610.8466999999999	0.0	[response]	66	verb	list	1	15	nomatch	trop	-1	1	y	0.55693
636.6877	0.0	+	67	verb	list	1	1	nomatch	tard	-1	1	y	0.61687
637.2377	0.2	pjlqxc	67	verb	list	1	2	nomatch	tard	-1	1	y	0.61687
637.4377	0.0	+	67	verb	list	1	3	nomatch	tard	-1	1	y	0.61687
637.8377	0.2	jgvm	67	verb	list	1	4	nomatch	tard	-1	1	y	0.61687
638.0376	0.0	+	67	verb	list	1	5	nomatch	tard	-1	1	y	0.61687
638.4376	0.2	pjf	67	verb	list	1	6	nomatch	tard	-1	1	y	0.61687
638.6376	0.0	+	67	verb	list	1	7	nomatch	tard	-1	1	y	0.61687
639.0376	0.2	xznbq	67	verb	list	1	8	nomatch	tard	-1	1	y	0.61687
639.2376	0.0	+	67	verb	list	1	9	nomatch	tard	-1	1	y	0.61687
639.6375	0.2	voyager	67	verb	list	1	10	nomatch	tard	-1	1	y	0.61687
639.8375	0.0	+	67	verb	list	1	11	nomatch	tard	-1	1	y	0.61687
640.2375	0.0	+	67	verb	list	1	12	nomatch	tard	-1	1	y	0.61687
642.2373	0.0	TARD	67	verb	list	1	13	nomatch	tard	-1	1	y	0.61687
642.9206	0.0	+	67	verb	list	1	14	nomatch	tard	-1	1	y	0.61687
642.8542000000001	0.0	[response]	67	verb	list	1	15	nomatch	tard	-1	1	y	0.61687
652.6365	0.0	+	68	verb	list	3	1	nomatch	doit	-1	1	y	0.86218
653.1865	0.2	nmk	68	verb	list	3	2	nomatch	doit	-1	1	y	0.86218
653.3865	0.0	+	68	verb	list	3	3	nomatch	doit	-1	1	y	0.86218
653.7864	0.2	hmzf	68	verb	list	3	4	nomatch	doit	-1	1	y	0.86218
653.9864	0.0	+	68	verb	list	3	5	nomatch	doit	-1	1	y	0.86218
654.3864	0.2	mon	68	verb	list	3	6	nomatch	doit	-1	1	y	0.86218
654.5864	0.0	+	68	verb	list	3	7	nomatch	doit	-1	1	y	0.86218
654.9864	0.2	rouler	68	verb	list	3	8	nomatch	doit	-1	1	y	0.86218
655.1863	0.0	+	68	verb	list	3	9	nomatch	doit	-1	1	y	0.86218
655.5862999999999	0.2	vert	68	verb	list	3	10	nomatch	doit	-1	1	y	0.86218
655.7863	0.0	+	68	verb	list	3	11	nomatch	doit	-1	1	y	0.86218
656.1863	0.0	+	68	verb	list	3	12	nomatch	doit	-1	1	y	0.86218
658.1861	0.0	DOIT	68	verb	list	3	13	nomatch	doit	-1	1	y	0.86218
659.1027	0.0	+	68	verb	list	3	14	nomatch	doit	-1	1	y	0.86218
659.0483	0.0	[response]	68	verb	list	3	15	nomatch	doit	-1	1	y	0.86218
660.5859	0.0	+	69	verb	list	1	1	match	galoper	5	1	p	0.80088
661.1359	0.2	hbdfclx	69	verb	list	1	2	match	galoper	5	1	p	0.80088
661.3359	0.0	+	69	verb	list	1	3	match	galoper	5	1	p	0.80088
661.7358	0.2	xhls	69	verb	list	1	4	match	galoper	5	1	p	0.80088
661.9358	0.0	+	69	verb	list	1	5	match	galoper	5	1	p	0.80088
662.3358	0.2	xv	69	verb	list	1	6	match	galoper	5	1	p	0.80088
662.5358	0.0	+	69	verb	list	1	7	match	galoper	5	1	p	0.80088
662.9357	0.2	hmdvrlb	69	verb	list	1	8	match	galoper	5	1	p	0.80088
663.1357	0.0	+	69	verb	list	1	9	match	galoper	5	1	p	0.80088
663.5357	0.2	galoper	69	verb	list	1	10	match	galoper	5	1	p	0.80088
663.7357	0.0	+	69	verb	list	1	11	match	galoper	5	1	p	0.80088
664.1356	0.0	+	69	verb	list	1	12	match	galoper	5	1	p	0.80088
666.1355	0.0	GALOPER	69	verb	list	1	13	match	galoper	5	1	p	0.80088
667.0021	0.0	+	69	verb	list	1	14	match	galoper	5	1	p	0.80088
666.9364	0.0	[response]	69	verb	list	1	15	match	galoper	5	1	p	0.80088
676.5514	0.0	+	70	verb	list	3	1	match	nouveau	4	1	p	0.90143
677.1013	0.2	jstf	70	verb	list	3	2	match	nouveau	4	1	p	0.90143
677.3025	0.0	+	70	verb	list	3	3	match	nouveau	4	1	p	0.90143
677.7013	0.2	bjsm	70	verb	list	3	4	match	nouveau	4	1	p	0.90143
677.9013	0.0	+	70	verb	list	3	5	match	nouveau	4	1	p	0.90143
678.3012	0.2	va	70	verb	list	3	6	match	nouveau	4	1	p	0.90143
678.5012	0.0	+	70	verb	list	3	7	match	nouveau	4	1	p	0.90143
678.9012	0.2	nouveau	70	verb	list	3	8	match	nouveau	4	1	p	0.90143
679.1012	0.0	+	70	verb	list	3	9	match	nouveau	4	1	p	0.90143
679.5011	0.2	patiner	70	verb	list	3	10	match	nouveau	4	1	p	0.90143
679.7011	0.0	+	70	verb	list	3	11	match	nouveau	4	1	p	0.90143
680.1011	0.0	+	70	verb	list	3	12	match	nouveau	4	1	p	0.90143
682.101	0.0	NOUVEAU	70	verb	list	3	13	match	nouveau	4	1	p	0.90143
683.0675	0.0	+	70	verb	list	3	14	match	nouveau	4	1	p	0.90143
683.0024	0.0	[response]	70	verb	list	3	15	match	nouveau	4	1	p	0.90143
684.5006999999999	0.0	+	71	verb	list	2	1	match	beau	4	1	p	0.82801
685.0507	0.2	vwptdch	71	verb	list	2	2	match	beau	4	1	p	0.82801
685.2506999999999	0.0	+	71	verb	list	2	3	match	beau	4	1	p	0.82801
685.6507	0.2	lfnt	71	verb	list	2	4	match	beau	4	1	p	0.82801
685.8507	0.0	+	71	verb	list	2	5	match	beau	4	1	p	0.82801
686.2506	0.2	gxvf	71	verb	list	2	6	match	beau	4	1	p	0.82801
686.4506	0.0	+	71	verb	list	2	7	match	beau	4	1	p	0.82801
686.8506	0.2	beau	71	verb	list	2	8	match	beau	4	1	p	0.82801
687.0506	0.0	+	71	verb	list	2	9	match	beau	4	1	p	0.82801
687.4505	0.2	nager	71	verb	list	2	10	match	beau	4	1	p	0.82801
687.6505	0.0	+	71	verb	list	2	11	match	beau	4	1	p	0.82801
688.0504999999999	0.0	+	71	verb	list	2	12	match	beau	4	1	p	0.82801
690.0503	0.0	BEAU	71	verb	list	2	13	match	beau	4	1	p	0.82801
690.9336	0.0	+	71	verb	list	2	14	match	beau	4	1	p	0.82801
690.8783000000001	0.0	[response]	71	verb	list	2	15	match	beau	4	1	p	0.82801
692.4501	0.0	+	72	verb	list	1	1	match	blanc	5	1	p	0.53037
693.0001	0.2	bjhts	72	verb	list	1	2	match	blanc	5	1	p	0.53037
693.2001	0.0	+	72	verb	list	1	3	match	blanc	5	1	p	0.53037
693.6001	0.2	hmzf	72	verb	list	1	4	match	blanc	5	1	p	0.53037
693.8	0.0	+	72	verb	list	1	5	match	blanc	5	1	p	0.53037
694.2	0.2	vzq	72	verb	list	1	6	match	blanc	5	1	p	0.53037
694.4	0.0	+	72	verb	list	1	7	match	blanc	5	1	p	0.53037
694.8	0.2	gxchlzt	72	verb	list	1	8	match	blanc	5	1	p	0.53037
694.9999	0.0	+	72	verb	list	1	9	match	blanc	5	1	p	0.53037
695.3999	0.2	blanc	72	verb	list	1	10	match	blanc	5	1	p	0.53037
695.5999	0.0	+	72	verb	list	1	11	match	blanc	5	1	p	0.53037
695.9999	0.0	+	72	verb	list	1	12	match	blanc	5	1	p	0.53037
697.9997	0.0	BLANC	72	verb	list	1	13	match	blanc	5	1	p	0.53037
698.5997	0.0	+	72	verb	list	1	14	match	blanc	5	1	p	0.53037
698.5301	0.0	[response]	72	verb	list	1	15	match	blanc	5	1	p	0.53037
700.3995	0.0	+	73	verb	phrase	1	1	match	patiner	5	1	p	0.52898
700.9495	0.2	mvxsb	73	verb	phrase	1	2	match	patiner	5	1	p	0.52898
701.1495	0.0	+	73	verb	phrase	1	3	match	patiner	5	1	p	0.52898
701.5494	0.2	zvkc	73	verb	phrase	1	4	match	patiner	5	1	p	0.52898
701.7494	0.0	+	73	verb	phrase	1	5	match	patiner	5	1	p	0.52898
702.1494	0.2	xv	73	verb	phrase	1	6	match	patiner	5	1	p	0.52898
702.3494	0.0	+	73	verb	phrase	1	7	match	patiner	5	1	p	0.52898
702.7494	0.2	stb	73	verb	phrase	1	8	match	patiner	5	1	p	0.52898
702.9493	0.0	+	73	verb	phrase	1	9	match	patiner	5	1	p	0.52898
703.3493	0.2	patiner	73	verb	phrase	1	10	match	patiner	5	1	p	0.52898
703.5493	0.0	+	73	verb	phrase	1	11	match	patiner	5	1	p	0.52898
703.9493	0.0	+	73	verb	phrase	1	12	match	patiner	5	1	p	0.52898
705.9491	0.0	PATINER	73	verb	phrase	1	13	match	patiner	5	1	p	0.52898
706.5323999999999	0.0	+	73	verb	phrase	1	14	match	patiner	5	1	p	0.52898
706.4781	0.0	[response]	73	verb	phrase	1	15	match	patiner	5	1	p	0.52898
708.3489	0.0	+	74	verb	phrase	1	1	match	galoper	5	1	p	0.7736
708.8989	0.2	hgfdmkp	74	verb	phrase	1	2	match	galoper	5	1	p	0.7736
709.0989	0.0	+	74	verb	phrase	1	3	match	galoper	5	1	p	0.7736
709.4988	0.2	jgvm	74	verb	phrase	1	4	match	galoper	5	1	p	0.7736
709.6988	0.0	+	74	verb	phrase	1	5	match	galoper	5	1	p	0.7736
710.0988	0.2	zmpt	74	verb	phrase	1	6	match	galoper	5	1	p	0.7736
710.2988	0.0	+	74	verb	phrase	1	7	match	galoper	5	1	p	0.7736
710.6987	0.2	mfwx	74	verb	phrase	1	8	match	galoper	5	1	p	0.7736
710.8987	0.0	+	74	verb	phrase	1	9	match	galoper	5	1	p	0.7736
711.2986999999999	0.2	galoper	74	verb	phrase	1	10	match	galoper	5	1	p	0.7736
711.4987	0.0	+	74	verb	phrase	1	11	match	galoper	5	1	p	0.7736
711.8987	0.0	+	74	verb	phrase	1	12	match	galoper	5	1	p	0.7736
713.8985	0.0	GALOPER	74	verb	phrase	1	13	match	galoper	5	1	p	0.7736
714.7318	0.0	+	74	verb	phrase	1	14	match	galoper	5	1	p	0.7736
714.6721	0.0	[response]	74	verb	phrase	1	15	match	galoper	5	1	p	0.7736
716.2983	0.0	+	75	verb	list	1	1	match	rouler	5	1	p	0.69842
716.8483	0.2	tvlcwsn	75	verb	list	1	2	match	rouler	5	1	p	0.69842
717.0483	0.0	+	75	verb	list	1	3	match	rouler	5	1	p	0.69842
717.4482	0.2	bclj	75	verb	list	1	4	match	rouler	5	1	p	0.69842
717.6482	0.0	+	75	verb	list	1	5	match	rouler	5	1	p	0.69842
718.0482	0.2	dljz	75	verb	list	1	6	match	rouler	5	1	p	0.69842
718.2482	0.0	+	75	verb	list	1	7	match	rouler	5	1	p	0.69842
718.6481	0.2	xznbq	75	verb	list	1	8	match	rouler	5	1	p	0.69842
718.8481	0.0	+	75	verb	list	1	9	match	rouler	5	1	p	0.69842
719.2481	0.2	rouler	75	verb	list	1	10	match	rouler	5	1	p	0.69842
719.4481	0.0	+	75	verb	list	1	11	match	rouler	5	1	p	0.69842
719.848	0.0	+	75	verb	list	1	12	match	rouler	5	1	p	0.69842
721.8495	0.0	ROULER	75	verb	list	1	13	match	rouler	5	1	p	0.69842
722.6145	0.0	+	75	verb	list	1	14	match	rouler	5	1	p	0.69842
722.5479	0.0	[response]	75	verb	list	1	15	match	rouler	5	1	p	0.69842
724.2477	0.0	+	76	verb	phrase	1	1	match	voyager	5	1	p	0.60459
724.7977	0.2	ksrbt	76	verb	phrase	1	2	match	voyager	5	1	p	0.60459
724.9977	0.0	+	76	verb	phrase	1	3	match	voyager	5	1	p	0.60459
725.3976	0.2	jgvm	76	verb	phrase	1	4	match	voyager	5	1	p	0.60459
725.5975999999999	0.0	+	76	verb	phrase	1	5	match	voyager	5	1	p	0.60459
725.9976	0.2	gxvf	76	verb	phrase	1	6	match	voyager	5	1	p	0.60459
726.1976	0.0	+	76	verb	phrase	1	7	match	voyager	5	1	p	0.60459
726.5975	0.2	zjqt	76	verb	phrase	1	8	match	voyager	5	1	p	0.60459
726.7975	0.0	+	76	verb	phrase	1	9	match	voyager	5	1	p	0.60459
727.1975	0.2	voyager	76	verb	phrase	1	10	match	voyager	5	1	p	0.60459
727.3975	0.0	+	76	verb	phrase	1	11	match	voyager	5	1	p	0.60459
727.7974	0.0	+	76	verb	phrase	1	12	match	voyager	5	1	p	0.60459
729.7973	0.0	VOYAGER	76	verb	phrase	1	13	match	voyager	5	1	p	0.60459
730.4639	0.0	+	76	verb	phrase	1	14	match	voyager	5	1	p	0.60459
730.4019	0.0	[response]	76	verb	phrase	1	15	match	voyager	5	1	p	0.60459
732.1971	0.0	+	77	verb	list	3	1	nomatch	plus	-1	1	y	0.88116
732.7471	0.2	pbkx	77	verb	list	3	2	nomatch	plus	-1	1	y	0.88116
732.947	0.0	+	77	verb	list	3	3	nomatch	plus	-1	1	y	0.88116
733.347	0.2	bclj	77	verb	list	3	4	nomatch	plus	-1	1	y	0.88116
733.547	0.0	+	77	verb	list	3	5	nomatch	plus	-1	1	y	0.88116
733.947	0.2	leur	77	verb	list	3	6	nomatch	plus	-1	1	y	0.88116
734.1469	0.0	+	77	verb	list	3	7	nomatch	plus	-1	1	y	0.88116
734.5469	0.2	galoper	77	verb	list	3	8	nomatch	plus	-1	1	y	0.88116
734.7469	0.0	+	77	verb	list	3	9	nomatch	plus	-1	1	y	0.88116
735.1469	0.2	noir	77	verb	list	3	10	nomatch	plus	-1	1	y	0.88116
735.3469	0.0	+	77	verb	list	3	11	nomatch	plus	-1	1	y	0.88116
735.7468	0.0	+	77	verb	list	3	12	nomatch	plus	-1	1	y	0.88116
737.7467	0.0	PLUS	77	verb	list	3	13	nomatch	plus	-1	1	y	0.88116
738.6966	0.0	+	77	verb	list	3	14	nomatch	plus	-1	1	y	0.88116
738.6278	0.0	[response]	77	verb	list	3	15	nomatch	plus	-1	1	y	0.88116
740.1465	0.0	+	78	verb	list	1	1	nomatch	sur	-1	1	y	0.6938800000000002
740.6964	0.2	qrv	78	verb	list	1	2	nomatch	sur	-1	1	y	0.6938800000000002
740.8964	0.0	+	78	verb	list	1	3	nomatch	sur	-1	1	y	0.6938800000000002
741.2964	0.2	zvkc	78	verb	list	1	4	nomatch	sur	-1	1	y	0.6938800000000002
741.4964	0.0	+	78	verb	list	1	5	nomatch	sur	-1	1	y	0.6938800000000002
741.8964	0.2	vzq	78	verb	list	1	6	nomatch	sur	-1	1	y	0.6938800000000002
742.0963	0.0	+	78	verb	list	1	7	nomatch	sur	-1	1	y	0.6938800000000002
742.4963	0.2	sgrz	78	verb	list	1	8	nomatch	sur	-1	1	y	0.6938800000000002
742.6963	0.0	+	78	verb	list	1	9	nomatch	sur	-1	1	y	0.6938800000000002
743.0963	0.2	nager	78	verb	list	1	10	nomatch	sur	-1	1	y	0.6938800000000002
743.2962	0.0	+	78	verb	list	1	11	nomatch	sur	-1	1	y	0.6938800000000002
743.6962	0.0	+	78	verb	list	1	12	nomatch	sur	-1	1	y	0.6938800000000002
745.6961	0.0	SUR	78	verb	list	1	13	nomatch	sur	-1	1	y	0.6938800000000002
746.446	0.0	+	78	verb	list	1	14	nomatch	sur	-1	1	y	0.6938800000000002
746.3899	0.0	[response]	78	verb	list	1	15	nomatch	sur	-1	1	y	0.6938800000000002
748.0959	0.0	+	79	noun	phrase	1	1	match	blanc	5	1	p	0.67438
748.6458	0.2	cltjm	79	noun	phrase	1	2	match	blanc	5	1	p	0.67438
748.8457999999999	0.0	+	79	noun	phrase	1	3	match	blanc	5	1	p	0.67438
749.2458	0.2	lfnt	79	noun	phrase	1	4	match	blanc	5	1	p	0.67438
749.4458	0.0	+	79	noun	phrase	1	5	match	blanc	5	1	p	0.67438
749.8457	0.2	dljz	79	noun	phrase	1	6	match	blanc	5	1	p	0.67438
750.0457	0.0	+	79	noun	phrase	1	7	match	blanc	5	1	p	0.67438
750.4457	0.2	qnvxflk	79	noun	phrase	1	8	match	blanc	5	1	p	0.67438
750.6457	0.0	+	79	noun	phrase	1	9	match	blanc	5	1	p	0.67438
751.0457	0.2	blanc	79	noun	phrase	1	10	match	blanc	5	1	p	0.67438
751.2456	0.0	+	79	noun	phrase	1	11	match	blanc	5	1	p	0.67438
751.6456	0.0	+	79	noun	phrase	1	12	match	blanc	5	1	p	0.67438
753.6455	0.0	BLANC	79	noun	phrase	1	13	match	blanc	5	1	p	0.67438
754.3787	0.0	+	79	noun	phrase	1	14	match	blanc	5	1	p	0.67438
754.3198	0.0	[response]	79	noun	phrase	1	15	match	blanc	5	1	p	0.67438
756.0453	0.0	+	80	verb	list	3	1	match	rouler	5	1	p	0.6988200000000001
756.5952	0.2	snhm	80	verb	list	3	2	match	rouler	5	1	p	0.6988200000000001
756.7952	0.0	+	80	verb	list	3	3	match	rouler	5	1	p	0.6988200000000001
757.1952	0.2	phxz	80	verb	list	3	4	match	rouler	5	1	p	0.6988200000000001
757.3952	0.0	+	80	verb	list	3	5	match	rouler	5	1	p	0.6988200000000001
757.7951	0.2	doit	80	verb	list	3	6	match	rouler	5	1	p	0.6988200000000001
757.9951	0.0	+	80	verb	list	3	7	match	rouler	5	1	p	0.6988200000000001
758.3951	0.2	petit	80	verb	list	3	8	match	rouler	5	1	p	0.6988200000000001
758.5951	0.0	+	80	verb	list	3	9	match	rouler	5	1	p	0.6988200000000001
758.995	0.2	rouler	80	verb	list	3	10	match	rouler	5	1	p	0.6988200000000001
759.195	0.0	+	80	verb	list	3	11	match	rouler	5	1	p	0.6988200000000001
759.595	0.0	+	80	verb	list	3	12	match	rouler	5	1	p	0.6988200000000001
761.5948	0.0	ROULER	80	verb	list	3	13	match	rouler	5	1	p	0.6988200000000001
762.3614	0.0	+	80	verb	list	3	14	match	rouler	5	1	p	0.6988200000000001
763.9947	0.0	+	80	verb	list	3	15	match	rouler	5	1	p	0.6988200000000001
765.0113	0.0	+	80	verb	list	3	16	match	rouler	5	1	p	0.6988200000000001
765.1111999999999	0.0	+	80	verb	list	3	17	match	rouler	5	1	p	0.6988200000000001
766.5110999999999	0.0	+	80	verb	list	3	18	match	rouler	5	1	p	0.6988200000000001
766.6111	0.0	+	80	verb	list	3	19	match	rouler	5	1	p	0.6988200000000001
768.011	0.0	+	80	verb	list	3	20	match	rouler	5	1	p	0.6988200000000001
768.111	0.0	+	80	verb	list	3	21	match	rouler	5	1	p	0.6988200000000001
769.5109	0.0	+	80	verb	list	3	22	match	rouler	5	1	p	0.6988200000000001
769.6109	0.0	+	80	verb	list	3	23	match	rouler	5	1	p	0.6988200000000001
771.0108	0.0	+	80	verb	list	3	24	match	rouler	5	1	p	0.6988200000000001
771.1108	0.0	+	80	verb	list	3	25	match	rouler	5	1	p	0.6988200000000001
772.5273	0.0	+	80	verb	list	3	26	match	rouler	5	1	p	0.6988200000000001
772.6273	0.0	+	80	verb	list	3	27	match	rouler	5	1	p	0.6988200000000001
774.0272	0.0	+	80	verb	list	3	28	match	rouler	5	1	p	0.6988200000000001
774.1272	0.0	+	80	verb	list	3	29	match	rouler	5	1	p	0.6988200000000001
775.5271	0.0	+	80	verb	list	3	30	match	rouler	5	1	p	0.6988200000000001
775.6271	0.0	+	80	verb	list	3	31	match	rouler	5	1	p	0.6988200000000001
777.0103	0.0	+	80	verb	list	3	32	match	rouler	5	1	p	0.6988200000000001
777.1102999999999	0.0	+	80	verb	list	3	33	match	rouler	5	1	p	0.6988200000000001
778.5269	0.0	+	80	verb	list	3	34	match	rouler	5	1	p	0.6988200000000001
778.6269	0.0	+	80	verb	list	3	35	match	rouler	5	1	p	0.6988200000000001
781.5433	0.0	+	80	verb	list	3	36	match	rouler	5	1	p	0.6988200000000001
762.2937	0.0	[response]	80	verb	list	3	37	match	rouler	5	1	p	0.6988200000000001
