onset	duration	stim	trial_number	trial_type	trial_structure	trial_length	sequential_position	probe_type	probe	probe_position	response_correct	response_key	response_time
0.0654000000000039	0.0	+	1	verb	phrase	1	1	match	plus	5	1	p	0.5915200000000002
0.5488	0.2	bzxlstj	1	verb	phrase	1	2	match	plus	5	1	p	0.5915200000000002
0.7486999999999995	0.0	+	1	verb	phrase	1	3	match	plus	5	1	p	0.5915200000000002
1.1487000000000052	0.2	cxg	1	verb	phrase	1	4	match	plus	5	1	p	0.5915200000000002
1.348700000000001	0.0	+	1	verb	phrase	1	5	match	plus	5	1	p	0.5915200000000002
1.7486999999999995	0.2	xv	1	verb	phrase	1	6	match	plus	5	1	p	0.5915200000000002
1.948600000000006	0.0	+	1	verb	phrase	1	7	match	plus	5	1	p	0.5915200000000002
2.3486000000000047	0.2	fkjrqdc	1	verb	phrase	1	8	match	plus	5	1	p	0.5915200000000002
2.5486000000000004	0.0	+	1	verb	phrase	1	9	match	plus	5	1	p	0.5915200000000002
2.948600000000006	0.2	plus	1	verb	phrase	1	10	match	plus	5	1	p	0.5915200000000002
3.148600000000002	0.0	+	1	verb	phrase	1	11	match	plus	5	1	p	0.5915200000000002
3.548500000000004	0.0	+	1	verb	phrase	1	12	match	plus	5	1	p	0.5915200000000002
5.548400000000001	0.0	PLUS	1	verb	phrase	1	13	match	plus	5	1	p	0.5915200000000002
6.198300000000003	0.0	+	1	verb	phrase	1	14	match	plus	5	1	p	0.5915200000000002
6.139900000000004	0.0	[response]	1	verb	phrase	1	15	match	plus	5	1	p	0.5915200000000002
7.948200000000007	0.0	+	2	verb	list	4	1	match	son	3	1	p	0.54213
8.4981	0.2	nwb	2	verb	list	4	2	match	son	3	1	p	0.54213
8.698100000000004	0.0	+	2	verb	list	4	3	match	son	3	1	p	0.54213
9.09810000000001	0.2	marc	2	verb	list	4	4	match	son	3	1	p	0.54213
9.298099999999998	0.0	+	2	verb	list	4	5	match	son	3	1	p	0.54213
9.698	0.2	son	2	verb	list	4	6	match	son	3	1	p	0.54213
9.898000000000003	0.0	+	2	verb	list	4	7	match	son	3	1	p	0.54213
10.298000000000009	0.2	rouler	2	verb	list	4	8	match	son	3	1	p	0.54213
10.497999999999998	0.0	+	2	verb	list	4	9	match	son	3	1	p	0.54213
10.898000000000003	0.2	vert	2	verb	list	4	10	match	son	3	1	p	0.54213
11.097900000000003	0.0	+	2	verb	list	4	11	match	son	3	1	p	0.54213
11.497900000000008	0.0	+	2	verb	list	4	12	match	son	3	1	p	0.54213
13.497800000000005	0.0	SON	2	verb	list	4	13	match	son	3	1	p	0.54213
14.097699999999996	0.0	+	2	verb	list	4	14	match	son	3	1	p	0.54213
14.03990000000001	0.0	[response]	2	verb	list	4	15	match	son	3	1	p	0.54213
23.897	0.0	+	3	noun	list	3	1	nomatch	beau	-1	1	y	0.6128900000000002
24.446900000000007	0.2	vjzgwkd	3	noun	list	3	2	nomatch	beau	-1	1	y	0.6128900000000002
24.64690000000001	0.0	+	3	noun	list	3	3	nomatch	beau	-1	1	y	0.6128900000000002
25.0469	0.2	cxg	3	noun	list	3	4	nomatch	beau	-1	1	y	0.6128900000000002
25.246900000000004	0.0	+	3	noun	list	3	5	nomatch	beau	-1	1	y	0.6128900000000002
25.646800000000006	0.2	leur	3	noun	list	3	6	nomatch	beau	-1	1	y	0.6128900000000002
25.84680000000001	0.0	+	3	noun	list	3	7	nomatch	beau	-1	1	y	0.6128900000000002
26.2468	0.2	moins	3	noun	list	3	8	nomatch	beau	-1	1	y	0.6128900000000002
26.446800000000003	0.0	+	3	noun	list	3	9	nomatch	beau	-1	1	y	0.6128900000000002
26.846700000000006	0.2	clavier	3	noun	list	3	10	nomatch	beau	-1	1	y	0.6128900000000002
27.04670000000001	0.0	+	3	noun	list	3	11	nomatch	beau	-1	1	y	0.6128900000000002
27.4467	0.0	+	3	noun	list	3	12	nomatch	beau	-1	1	y	0.6128900000000002
29.446500000000007	0.0	BEAU	3	noun	list	3	13	nomatch	beau	-1	1	y	0.6128900000000002
30.129799999999996	0.0	+	3	noun	list	3	14	nomatch	beau	-1	1	y	0.6128900000000002
30.059400000000004	0.0	[response]	3	noun	list	3	15	nomatch	beau	-1	1	y	0.6128900000000002
39.8457	0.0	+	4	noun	phrase	3	1	match	mon	3	1	p	0.71433
40.3957	0.2	zrfxlg	4	noun	phrase	3	2	match	mon	3	1	p	0.71433
40.5957	0.0	+	4	noun	phrase	3	3	match	mon	3	1	p	0.71433
40.9956	0.2	lfnt	4	noun	phrase	3	4	match	mon	3	1	p	0.71433
41.195600000000006	0.0	+	4	noun	phrase	3	5	match	mon	3	1	p	0.71433
41.5956	0.2	mon	4	noun	phrase	3	6	match	mon	3	1	p	0.71433
41.7956	0.0	+	4	noun	phrase	3	7	match	mon	3	1	p	0.71433
42.195600000000006	0.2	grand	4	noun	phrase	3	8	match	mon	3	1	p	0.71433
42.395500000000006	0.0	+	4	noun	phrase	3	9	match	mon	3	1	p	0.71433
42.7955	0.2	sablier	4	noun	phrase	3	10	match	mon	3	1	p	0.71433
42.9955	0.0	+	4	noun	phrase	3	11	match	mon	3	1	p	0.71433
43.395500000000006	0.0	+	4	noun	phrase	3	12	match	mon	3	1	p	0.71433
45.3953	0.0	MON	4	noun	phrase	3	13	match	mon	3	1	p	0.71433
46.178599999999996	0.0	+	4	noun	phrase	3	14	match	mon	3	1	p	0.71433
46.10960000000002	0.0	[response]	4	noun	phrase	3	15	match	mon	3	1	p	0.71433
47.7951	0.0	+	5	verb	list	1	1	nomatch	blanc	-1	1	y	0.65616
48.34510000000001	0.2	rqg	5	verb	list	1	2	nomatch	blanc	-1	1	y	0.65616
48.5451	0.0	+	5	verb	list	1	3	nomatch	blanc	-1	1	y	0.65616
48.945	0.2	jgvm	5	verb	list	1	4	nomatch	blanc	-1	1	y	0.65616
49.145	0.0	+	5	verb	list	1	5	nomatch	blanc	-1	1	y	0.65616
49.54500000000001	0.2	vzq	5	verb	list	1	6	nomatch	blanc	-1	1	y	0.65616
49.745	0.0	+	5	verb	list	1	7	nomatch	blanc	-1	1	y	0.65616
50.1449	0.2	rnxhwcm	5	verb	list	1	8	nomatch	blanc	-1	1	y	0.65616
50.3449	0.0	+	5	verb	list	1	9	nomatch	blanc	-1	1	y	0.65616
50.74490000000001	0.2	bleu	5	verb	list	1	10	nomatch	blanc	-1	1	y	0.65616
50.9449	0.0	+	5	verb	list	1	11	nomatch	blanc	-1	1	y	0.65616
51.3449	0.0	+	5	verb	list	1	12	nomatch	blanc	-1	1	y	0.65616
53.344699999999996	0.0	BLANC	5	verb	list	1	13	nomatch	blanc	-1	1	y	0.65616
54.06130000000001	0.0	+	5	verb	list	1	14	nomatch	blanc	-1	1	y	0.65616
54.00090000000001	0.0	[response]	5	verb	list	1	15	nomatch	blanc	-1	1	y	0.65616
55.74450000000001	0.0	+	6	noun	list	3	1	match	peut	3	1	p	0.45943
56.294500000000006	0.2	bmsk	6	noun	list	3	2	match	peut	3	1	p	0.45943
56.49450000000001	0.0	+	6	noun	list	3	3	match	peut	3	1	p	0.45943
56.8944	0.2	gscb	6	noun	list	3	4	match	peut	3	1	p	0.45943
57.0944	0.0	+	6	noun	list	3	5	match	peut	3	1	p	0.45943
57.494400000000006	0.2	peut	6	noun	list	3	6	match	peut	3	1	p	0.45943
57.69440000000001	0.0	+	6	noun	list	3	7	match	peut	3	1	p	0.45943
58.0943	0.2	clavier	6	noun	list	3	8	match	peut	3	1	p	0.45943
58.2943	0.0	+	6	noun	list	3	9	match	peut	3	1	p	0.45943
58.6949	0.2	tard	6	noun	list	3	10	match	peut	3	1	p	0.45943
58.89430000000001	0.0	+	6	noun	list	3	11	match	peut	3	1	p	0.45943
59.2942	0.0	+	6	noun	list	3	12	match	peut	3	1	p	0.45943
61.29410000000001	0.0	PEUT	6	noun	list	3	13	match	peut	3	1	p	0.45943
61.810700000000004	0.0	+	6	noun	list	3	14	match	peut	3	1	p	0.45943
61.75350000000001	0.0	[response]	6	noun	list	3	15	match	peut	3	1	p	0.45943
63.693900000000006	0.0	+	7	noun	phrase	3	1	match	tablier	4	1	p	0.65792
64.2439	0.2	drpwf	7	noun	phrase	3	2	match	tablier	4	1	p	0.65792
64.44380000000001	0.0	+	7	noun	phrase	3	3	match	tablier	4	1	p	0.65792
64.84380000000002	0.2	xlb	7	noun	phrase	3	4	match	tablier	4	1	p	0.65792
65.0438	0.0	+	7	noun	phrase	3	5	match	tablier	4	1	p	0.65792
65.44380000000001	0.2	son	7	noun	phrase	3	6	match	tablier	4	1	p	0.65792
65.6438	0.0	+	7	noun	phrase	3	7	match	tablier	4	1	p	0.65792
66.0437	0.2	tablier	7	noun	phrase	3	8	match	tablier	4	1	p	0.65792
66.24369999999999	0.0	+	7	noun	phrase	3	9	match	tablier	4	1	p	0.65792
66.6437	0.2	vert	7	noun	phrase	3	10	match	tablier	4	1	p	0.65792
66.84370000000001	0.0	+	7	noun	phrase	3	11	match	tablier	4	1	p	0.65792
67.24360000000001	0.0	+	7	noun	phrase	3	12	match	tablier	4	1	p	0.65792
69.24350000000001	0.0	TABLIER	7	noun	phrase	3	13	match	tablier	4	1	p	0.65792
69.96010000000001	0.0	+	7	noun	phrase	3	14	match	tablier	4	1	p	0.65792
69.9014	0.0	[response]	7	noun	phrase	3	15	match	tablier	4	1	p	0.65792
71.64329999999998	0.0	+	8	verb	phrase	3	1	match	rouler	4	1	p	0.77656
72.1933	0.2	tvbdhg	8	verb	phrase	3	2	match	rouler	4	1	p	0.77656
72.39320000000001	0.0	+	8	verb	phrase	3	3	match	rouler	4	1	p	0.77656
72.79319999999998	0.2	cxg	8	verb	phrase	3	4	match	rouler	4	1	p	0.77656
72.9932	0.0	+	8	verb	phrase	3	5	match	rouler	4	1	p	0.77656
73.39320000000001	0.2	va	8	verb	phrase	3	6	match	rouler	4	1	p	0.77656
73.59309999999999	0.0	+	8	verb	phrase	3	7	match	rouler	4	1	p	0.77656
73.9931	0.2	rouler	8	verb	phrase	3	8	match	rouler	4	1	p	0.77656
74.19309999999999	0.0	+	8	verb	phrase	3	9	match	rouler	4	1	p	0.77656
74.59309999999999	0.2	tard	8	verb	phrase	3	10	match	rouler	4	1	p	0.77656
74.79310000000001	0.0	+	8	verb	phrase	3	11	match	rouler	4	1	p	0.77656
75.19299999999998	0.0	+	8	verb	phrase	3	12	match	rouler	4	1	p	0.77656
77.19290000000001	0.0	ROULER	8	verb	phrase	3	13	match	rouler	4	1	p	0.77656
78.02609999999999	0.0	+	8	verb	phrase	3	14	match	rouler	4	1	p	0.77656
77.96940000000001	0.0	[response]	8	verb	phrase	3	15	match	rouler	4	1	p	0.77656
87.59209999999999	0.0	+	9	verb	phrase	1	1	nomatch	ainsi	-1	1	y	0.69538
88.142	0.2	rvjgfx	9	verb	phrase	1	2	nomatch	ainsi	-1	1	y	0.69538
88.34199999999998	0.0	+	9	verb	phrase	1	3	nomatch	ainsi	-1	1	y	0.69538
88.74199999999999	0.2	hmzf	9	verb	phrase	1	4	nomatch	ainsi	-1	1	y	0.69538
88.94200000000001	0.0	+	9	verb	phrase	1	5	nomatch	ainsi	-1	1	y	0.69538
89.34190000000001	0.2	gxvf	9	verb	phrase	1	6	nomatch	ainsi	-1	1	y	0.69538
89.5419	0.0	+	9	verb	phrase	1	7	nomatch	ainsi	-1	1	y	0.69538
89.9419	0.2	sxjnhdg	9	verb	phrase	1	8	nomatch	ainsi	-1	1	y	0.69538
90.14189999999999	0.0	+	9	verb	phrase	1	9	nomatch	ainsi	-1	1	y	0.69538
90.5418	0.2	tôt	9	verb	phrase	1	10	nomatch	ainsi	-1	1	y	0.69538
90.74179999999998	0.0	+	9	verb	phrase	1	11	nomatch	ainsi	-1	1	y	0.69538
91.14179999999999	0.0	+	9	verb	phrase	1	12	nomatch	ainsi	-1	1	y	0.69538
93.14159999999998	0.0	AINSI	9	verb	phrase	1	13	nomatch	ainsi	-1	1	y	0.69538
93.89159999999998	0.0	+	9	verb	phrase	1	14	nomatch	ainsi	-1	1	y	0.69538
93.83700000000002	0.0	[response]	9	verb	phrase	1	15	nomatch	ainsi	-1	1	y	0.69538
95.54139999999998	0.0	+	10	noun	phrase	4	1	match	mon	3	1	p	0.96174
96.0914	0.2	hlxqmv	10	noun	phrase	4	2	match	mon	3	1	p	0.96174
96.29139999999998	0.0	+	10	noun	phrase	4	3	match	mon	3	1	p	0.96174
96.69139999999999	0.2	sur	10	noun	phrase	4	4	match	mon	3	1	p	0.96174
96.8914	0.0	+	10	noun	phrase	4	5	match	mon	3	1	p	0.96174
97.2913	0.2	mon	10	noun	phrase	4	6	match	mon	3	1	p	0.96174
97.4913	0.0	+	10	noun	phrase	4	7	match	mon	3	1	p	0.96174
97.8913	0.2	petit	10	noun	phrase	4	8	match	mon	3	1	p	0.96174
98.09129999999999	0.0	+	10	noun	phrase	4	9	match	mon	3	1	p	0.96174
98.49119999999999	0.2	rocher	10	noun	phrase	4	10	match	mon	3	1	p	0.96174
98.69120000000001	0.0	+	10	noun	phrase	4	11	match	mon	3	1	p	0.96174
99.09119999999999	0.0	+	10	noun	phrase	4	12	match	mon	3	1	p	0.96174
101.09100000000001	0.0	MON	10	noun	phrase	4	13	match	mon	3	1	p	0.96174
102.10759999999999	0.0	+	10	noun	phrase	4	14	match	mon	3	1	p	0.96174
102.05279999999999	0.0	[response]	10	noun	phrase	4	15	match	mon	3	1	p	0.96174
119.4896	0.0	+	11	verb	list	1	1	match	beau	5	1	p	0.57764
120.03960000000001	0.2	sbwqg	11	verb	list	1	2	match	beau	5	1	p	0.57764
120.2396	0.0	+	11	verb	list	1	3	match	beau	5	1	p	0.57764
120.6395	0.2	gscb	11	verb	list	1	4	match	beau	5	1	p	0.57764
120.83949999999999	0.0	+	11	verb	list	1	5	match	beau	5	1	p	0.57764
121.23949999999999	0.2	xv	11	verb	list	1	6	match	beau	5	1	p	0.57764
121.43950000000001	0.0	+	11	verb	list	1	7	match	beau	5	1	p	0.57764
121.83939999999998	0.2	wnfgmvj	11	verb	list	1	8	match	beau	5	1	p	0.57764
122.0394	0.0	+	11	verb	list	1	9	match	beau	5	1	p	0.57764
122.4394	0.2	beau	11	verb	list	1	10	match	beau	5	1	p	0.57764
122.6394	0.0	+	11	verb	list	1	11	match	beau	5	1	p	0.57764
123.0393	0.0	+	11	verb	list	1	12	match	beau	5	1	p	0.57764
125.0392	0.0	BEAU	11	verb	list	1	13	match	beau	5	1	p	0.57764
125.67249999999999	0.0	+	11	verb	list	1	14	match	beau	5	1	p	0.57764
125.61679999999998	0.0	[response]	11	verb	list	1	15	match	beau	5	1	p	0.57764
127.439	0.0	+	12	noun	list	4	1	match	moins	4	1	p	0.62591
127.989	0.2	cgbpnwj	12	noun	list	4	2	match	moins	4	1	p	0.62591
128.1889	0.0	+	12	noun	list	4	3	match	moins	4	1	p	0.62591
128.5889	0.2	jean	12	noun	list	4	4	match	moins	4	1	p	0.62591
128.78889999999998	0.0	+	12	noun	list	4	5	match	moins	4	1	p	0.62591
129.1889	0.2	son	12	noun	list	4	6	match	moins	4	1	p	0.62591
129.3889	0.0	+	12	noun	list	4	7	match	moins	4	1	p	0.62591
129.7888	0.2	moins	12	noun	list	4	8	match	moins	4	1	p	0.62591
129.9888	0.0	+	12	noun	list	4	9	match	moins	4	1	p	0.62591
130.3888	0.2	tablier	12	noun	list	4	10	match	moins	4	1	p	0.62591
130.5888	0.0	+	12	noun	list	4	11	match	moins	4	1	p	0.62591
130.9887	0.0	+	12	noun	list	4	12	match	moins	4	1	p	0.62591
132.9886	0.0	MOINS	12	noun	list	4	13	match	moins	4	1	p	0.62591
133.6719	0.0	+	12	noun	list	4	14	match	moins	4	1	p	0.62591
133.6145	0.0	[response]	12	noun	list	4	15	match	moins	4	1	p	0.62591
135.3884	0.0	+	13	noun	list	1	1	nomatch	tard	-1	1	y	0.61673
135.9383	0.2	nsg	13	noun	list	1	2	nomatch	tard	-1	1	y	0.61673
136.1383	0.0	+	13	noun	list	1	3	nomatch	tard	-1	1	y	0.61673
136.5383	0.2	lfnt	13	noun	list	1	4	nomatch	tard	-1	1	y	0.61673
136.7383	0.0	+	13	noun	list	1	5	nomatch	tard	-1	1	y	0.61673
137.1383	0.2	xv	13	noun	list	1	6	nomatch	tard	-1	1	y	0.61673
137.3382	0.0	+	13	noun	list	1	7	nomatch	tard	-1	1	y	0.61673
137.7382	0.2	kmfzsvl	13	noun	list	1	8	nomatch	tard	-1	1	y	0.61673
137.9382	0.0	+	13	noun	list	1	9	nomatch	tard	-1	1	y	0.61673
138.3382	0.2	loin	13	noun	list	1	10	nomatch	tard	-1	1	y	0.61673
138.5381	0.0	+	13	noun	list	1	11	nomatch	tard	-1	1	y	0.61673
138.9381	0.0	+	13	noun	list	1	12	nomatch	tard	-1	1	y	0.61673
140.938	0.0	TARD	13	noun	list	1	13	nomatch	tard	-1	1	y	0.61673
141.6212	0.0	+	13	noun	list	1	14	nomatch	tard	-1	1	y	0.61673
141.5547	0.0	[response]	13	noun	list	1	15	nomatch	tard	-1	1	y	0.61673
143.3378	0.0	+	14	noun	list	1	1	match	sablier	5	1	p	0.68549
143.8877	0.2	cbs	14	noun	list	1	2	match	sablier	5	1	p	0.68549
144.08769999999998	0.0	+	14	noun	list	1	3	match	sablier	5	1	p	0.68549
144.4877	0.2	xlb	14	noun	list	1	4	match	sablier	5	1	p	0.68549
144.6877	0.0	+	14	noun	list	1	5	match	sablier	5	1	p	0.68549
145.0876	0.2	gxvf	14	noun	list	1	6	match	sablier	5	1	p	0.68549
145.2876	0.0	+	14	noun	list	1	7	match	sablier	5	1	p	0.68549
145.6876	0.2	bncmh	14	noun	list	1	8	match	sablier	5	1	p	0.68549
145.8876	0.0	+	14	noun	list	1	9	match	sablier	5	1	p	0.68549
146.2876	0.2	sablier	14	noun	list	1	10	match	sablier	5	1	p	0.68549
146.48749999999998	0.0	+	14	noun	list	1	11	match	sablier	5	1	p	0.68549
146.8875	0.0	+	14	noun	list	1	12	match	sablier	5	1	p	0.68549
148.88739999999999	0.0	SABLIER	14	noun	list	1	13	match	sablier	5	1	p	0.68549
149.63729999999998	0.0	+	14	noun	list	1	14	match	sablier	5	1	p	0.68549
149.5728	0.0	[response]	14	noun	list	1	15	match	sablier	5	1	p	0.68549
151.28719999999998	0.0	+	15	noun	phrase	2	1	match	rocher	5	1	p	0.83792
151.8371	0.2	blmrjhp	15	noun	phrase	2	2	match	rocher	5	1	p	0.83792
152.0371	0.0	+	15	noun	phrase	2	3	match	rocher	5	1	p	0.83792
152.4371	0.2	mdrs	15	noun	phrase	2	4	match	rocher	5	1	p	0.83792
152.6371	0.0	+	15	noun	phrase	2	5	match	rocher	5	1	p	0.83792
153.037	0.2	dljz	15	noun	phrase	2	6	match	rocher	5	1	p	0.83792
153.237	0.0	+	15	noun	phrase	2	7	match	rocher	5	1	p	0.83792
153.637	0.2	grand	15	noun	phrase	2	8	match	rocher	5	1	p	0.83792
153.837	0.0	+	15	noun	phrase	2	9	match	rocher	5	1	p	0.83792
154.2369	0.2	rocher	15	noun	phrase	2	10	match	rocher	5	1	p	0.83792
154.4369	0.0	+	15	noun	phrase	2	11	match	rocher	5	1	p	0.83792
154.83689999999999	0.0	+	15	noun	phrase	2	12	match	rocher	5	1	p	0.83792
156.8367	0.0	ROCHER	15	noun	phrase	2	13	match	rocher	5	1	p	0.83792
157.73669999999998	0.0	+	15	noun	phrase	2	14	match	rocher	5	1	p	0.83792
157.67470000000003	0.0	[response]	15	noun	phrase	2	15	match	rocher	5	1	p	0.83792
159.2365	0.0	+	16	noun	list	3	1	match	boîtier	4	1	p	0.76657
159.7865	0.2	zlfksd	16	noun	list	3	2	match	boîtier	4	1	p	0.76657
159.9865	0.0	+	16	noun	list	3	3	match	boîtier	4	1	p	0.76657
160.38649999999998	0.2	phxz	16	noun	list	3	4	match	boîtier	4	1	p	0.76657
160.5865	0.0	+	16	noun	list	3	5	match	boîtier	4	1	p	0.76657
160.9864	0.2	doit	16	noun	list	3	6	match	boîtier	4	1	p	0.76657
161.1864	0.0	+	16	noun	list	3	7	match	boîtier	4	1	p	0.76657
161.5864	0.2	boîtier	16	noun	list	3	8	match	boîtier	4	1	p	0.76657
161.7864	0.0	+	16	noun	list	3	9	match	boîtier	4	1	p	0.76657
162.1863	0.2	tard	16	noun	list	3	10	match	boîtier	4	1	p	0.76657
162.3863	0.0	+	16	noun	list	3	11	match	boîtier	4	1	p	0.76657
162.78629999999998	0.0	+	16	noun	list	3	12	match	boîtier	4	1	p	0.76657
164.7861	0.0	BOÎTIER	16	noun	list	3	13	match	boîtier	4	1	p	0.76657
165.61939999999998	0.0	+	16	noun	list	3	14	match	boîtier	4	1	p	0.76657
165.5527	0.0	[response]	16	noun	list	3	15	match	boîtier	4	1	p	0.76657
167.1859	0.0	+	17	noun	phrase	1	1	nomatch	petit	-1	1	y	0.8427300000000001
167.7359	0.2	lvj	17	noun	phrase	1	2	nomatch	petit	-1	1	y	0.8427300000000001
167.9359	0.0	+	17	noun	phrase	1	3	nomatch	petit	-1	1	y	0.8427300000000001
168.3359	0.2	bjsm	17	noun	phrase	1	4	nomatch	petit	-1	1	y	0.8427300000000001
168.5358	0.0	+	17	noun	phrase	1	5	nomatch	petit	-1	1	y	0.8427300000000001
168.9358	0.2	pjf	17	noun	phrase	1	6	nomatch	petit	-1	1	y	0.8427300000000001
169.1358	0.0	+	17	noun	phrase	1	7	nomatch	petit	-1	1	y	0.8427300000000001
169.5358	0.2	kmfzsvl	17	noun	phrase	1	8	nomatch	petit	-1	1	y	0.8427300000000001
169.7357	0.0	+	17	noun	phrase	1	9	nomatch	petit	-1	1	y	0.8427300000000001
170.13569999999999	0.2	beau	17	noun	phrase	1	10	nomatch	petit	-1	1	y	0.8427300000000001
170.3358	0.0	+	17	noun	phrase	1	11	nomatch	petit	-1	1	y	0.8427300000000001
170.7357	0.0	+	17	noun	phrase	1	12	nomatch	petit	-1	1	y	0.8427300000000001
172.7355	0.0	PETIT	17	noun	phrase	1	13	nomatch	petit	-1	1	y	0.8427300000000001
173.6354	0.0	+	17	noun	phrase	1	14	nomatch	petit	-1	1	y	0.8427300000000001
173.57829999999998	0.0	[response]	17	noun	phrase	1	15	nomatch	petit	-1	1	y	0.8427300000000001
175.1353	0.0	+	18	verb	phrase	3	1	nomatch	tard	-1	1	y	0.83054
175.68529999999998	0.2	zwpbcmj	18	verb	phrase	3	2	nomatch	tard	-1	1	y	0.83054
175.8853	0.0	+	18	verb	phrase	3	3	nomatch	tard	-1	1	y	0.83054
176.2852	0.2	jgvm	18	verb	phrase	3	4	nomatch	tard	-1	1	y	0.83054
176.4852	0.0	+	18	verb	phrase	3	5	nomatch	tard	-1	1	y	0.83054
176.8852	0.2	doit	18	verb	phrase	3	6	nomatch	tard	-1	1	y	0.83054
177.0852	0.0	+	18	verb	phrase	3	7	nomatch	tard	-1	1	y	0.83054
177.4852	0.2	nager	18	verb	phrase	3	8	nomatch	tard	-1	1	y	0.83054
177.6851	0.0	+	18	verb	phrase	3	9	nomatch	tard	-1	1	y	0.83054
178.08509999999998	0.2	loin	18	verb	phrase	3	10	nomatch	tard	-1	1	y	0.83054
178.2851	0.0	+	18	verb	phrase	3	11	nomatch	tard	-1	1	y	0.83054
178.6851	0.0	+	18	verb	phrase	3	12	nomatch	tard	-1	1	y	0.83054
180.6849	0.0	TARD	18	verb	phrase	3	13	nomatch	tard	-1	1	y	0.83054
181.5848	0.0	+	18	verb	phrase	3	14	nomatch	tard	-1	1	y	0.83054
181.5155	0.0	[response]	18	verb	phrase	3	15	nomatch	tard	-1	1	y	0.83054
183.10139999999998	0.0	+	19	noun	list	2	1	nomatch	bleu	-1	1	y	0.73696
183.6514	0.2	zrt	19	noun	list	2	2	nomatch	bleu	-1	1	y	0.73696
183.8513	0.0	+	19	noun	list	2	3	nomatch	bleu	-1	1	y	0.73696
184.2513	0.2	mdrs	19	noun	list	2	4	nomatch	bleu	-1	1	y	0.73696
184.4513	0.0	+	19	noun	list	2	5	nomatch	bleu	-1	1	y	0.73696
184.8513	0.2	xv	19	noun	list	2	6	nomatch	bleu	-1	1	y	0.73696
185.0512	0.0	+	19	noun	list	2	7	nomatch	bleu	-1	1	y	0.73696
185.4512	0.2	grenier	19	noun	list	2	8	nomatch	bleu	-1	1	y	0.73696
185.6512	0.0	+	19	noun	list	2	9	nomatch	bleu	-1	1	y	0.73696
186.0512	0.2	vite	19	noun	list	2	10	nomatch	bleu	-1	1	y	0.73696
186.2511	0.0	+	19	noun	list	2	11	nomatch	bleu	-1	1	y	0.73696
186.65109999999999	0.0	+	19	noun	list	2	12	nomatch	bleu	-1	1	y	0.73696
188.65109999999999	0.0	BLEU	19	noun	list	2	13	nomatch	bleu	-1	1	y	0.73696
189.4509	0.0	+	19	noun	list	2	14	nomatch	bleu	-1	1	y	0.73696
189.3881	0.0	[response]	19	noun	list	2	15	nomatch	bleu	-1	1	y	0.73696
191.0508	0.0	+	20	noun	list	1	1	nomatch	plus	-1	1	y	0.69382
191.6007	0.2	dfxl	20	noun	list	1	2	nomatch	plus	-1	1	y	0.69382
191.8007	0.0	+	20	noun	list	1	3	nomatch	plus	-1	1	y	0.69382
192.20069999999998	0.2	kvgl	20	noun	list	1	4	nomatch	plus	-1	1	y	0.69382
192.4007	0.0	+	20	noun	list	1	5	nomatch	plus	-1	1	y	0.69382
192.8006	0.2	pjf	20	noun	list	1	6	nomatch	plus	-1	1	y	0.69382
193.0006	0.0	+	20	noun	list	1	7	nomatch	plus	-1	1	y	0.69382
193.4006	0.2	kmfzsvl	20	noun	list	1	8	nomatch	plus	-1	1	y	0.69382
193.6006	0.0	+	20	noun	list	1	9	nomatch	plus	-1	1	y	0.69382
194.0005	0.2	trop	20	noun	list	1	10	nomatch	plus	-1	1	y	0.69382
194.2005	0.0	+	20	noun	list	1	11	nomatch	plus	-1	1	y	0.69382
194.60049999999998	0.0	+	20	noun	list	1	12	nomatch	plus	-1	1	y	0.69382
196.6003	0.0	PLUS	20	noun	list	1	13	nomatch	plus	-1	1	y	0.69382
197.3503	0.0	+	20	noun	list	1	14	nomatch	plus	-1	1	y	0.69382
197.2942	0.0	[response]	20	noun	list	1	15	nomatch	plus	-1	1	y	0.69382
199.0002	0.0	+	21	verb	phrase	1	1	nomatch	grand	-1	1	y	0.67823
199.55010000000001	0.2	njs	21	verb	phrase	1	2	nomatch	grand	-1	1	y	0.67823
199.7501	0.0	+	21	verb	phrase	1	3	nomatch	grand	-1	1	y	0.67823
200.15009999999998	0.2	ljxk	21	verb	phrase	1	4	nomatch	grand	-1	1	y	0.67823
200.35009999999997	0.0	+	21	verb	phrase	1	5	nomatch	grand	-1	1	y	0.67823
200.74999999999997	0.2	zmpt	21	verb	phrase	1	6	nomatch	grand	-1	1	y	0.67823
200.95000000000002	0.0	+	21	verb	phrase	1	7	nomatch	grand	-1	1	y	0.67823
201.35	0.2	lbzh	21	verb	phrase	1	8	nomatch	grand	-1	1	y	0.67823
201.54999999999998	0.0	+	21	verb	phrase	1	9	nomatch	grand	-1	1	y	0.67823
201.94989999999999	0.2	nager	21	verb	phrase	1	10	nomatch	grand	-1	1	y	0.67823
202.14989999999997	0.0	+	21	verb	phrase	1	11	nomatch	grand	-1	1	y	0.67823
202.5499	0.0	+	21	verb	phrase	1	12	nomatch	grand	-1	1	y	0.67823
204.5497	0.0	GRAND	21	verb	phrase	1	13	nomatch	grand	-1	1	y	0.67823
205.283	0.0	+	21	verb	phrase	1	14	nomatch	grand	-1	1	y	0.67823
205.22799999999998	0.0	[response]	21	verb	phrase	1	15	nomatch	grand	-1	1	y	0.67823
206.94949999999997	0.0	+	22	noun	phrase	1	1	nomatch	grenier	-1	1	y	0.7267
207.49949999999998	0.2	dsgvcb	22	noun	phrase	1	2	nomatch	grenier	-1	1	y	0.7267
207.69949999999997	0.0	+	22	noun	phrase	1	3	nomatch	grenier	-1	1	y	0.7267
208.0995	0.2	xlb	22	noun	phrase	1	4	nomatch	grenier	-1	1	y	0.7267
208.29940000000002	0.0	+	22	noun	phrase	1	5	nomatch	grenier	-1	1	y	0.7267
208.6994	0.2	dljz	22	noun	phrase	1	6	nomatch	grenier	-1	1	y	0.7267
208.89939999999999	0.0	+	22	noun	phrase	1	7	nomatch	grenier	-1	1	y	0.7267
209.29940000000002	0.2	xlgc	22	noun	phrase	1	8	nomatch	grenier	-1	1	y	0.7267
209.4994	0.0	+	22	noun	phrase	1	9	nomatch	grenier	-1	1	y	0.7267
209.8993	0.2	clavier	22	noun	phrase	1	10	nomatch	grenier	-1	1	y	0.7267
210.0993	0.0	+	22	noun	phrase	1	11	nomatch	grenier	-1	1	y	0.7267
210.49929999999998	0.0	+	22	noun	phrase	1	12	nomatch	grenier	-1	1	y	0.7267
212.49909999999997	0.0	GRENIER	22	noun	phrase	1	13	nomatch	grenier	-1	1	y	0.7267
213.28240000000002	0.0	+	22	noun	phrase	1	14	nomatch	grenier	-1	1	y	0.7267
213.22580000000002	0.0	[response]	22	noun	phrase	1	15	nomatch	grenier	-1	1	y	0.7267
214.8989	0.0	+	23	noun	list	1	1	nomatch	sablier	-1	1	y	0.60154
215.4489	0.2	qfkjwct	23	noun	list	1	2	nomatch	sablier	-1	1	y	0.60154
215.6489	0.0	+	23	noun	list	1	3	nomatch	sablier	-1	1	y	0.60154
216.0488	0.2	lfnt	23	noun	list	1	4	nomatch	sablier	-1	1	y	0.60154
216.2488	0.0	+	23	noun	list	1	5	nomatch	sablier	-1	1	y	0.60154
216.64880000000002	0.2	xv	23	noun	list	1	6	nomatch	sablier	-1	1	y	0.60154
216.8488	0.0	+	23	noun	list	1	7	nomatch	sablier	-1	1	y	0.60154
217.2488	0.2	fkmv	23	noun	list	1	8	nomatch	sablier	-1	1	y	0.60154
217.4487	0.0	+	23	noun	list	1	9	nomatch	sablier	-1	1	y	0.60154
217.84869999999998	0.2	rocher	23	noun	list	1	10	nomatch	sablier	-1	1	y	0.60154
218.04869999999997	0.0	+	23	noun	list	1	11	nomatch	sablier	-1	1	y	0.60154
218.4487	0.0	+	23	noun	list	1	12	nomatch	sablier	-1	1	y	0.60154
220.4485	0.0	SABLIER	23	noun	list	1	13	nomatch	sablier	-1	1	y	0.60154
221.1151	0.0	+	23	noun	list	1	14	nomatch	sablier	-1	1	y	0.60154
221.04999999999998	0.0	[response]	23	noun	list	1	15	nomatch	sablier	-1	1	y	0.60154
238.84709999999998	0.0	+	24	noun	list	1	1	nomatch	nouveau	-1	1	y	0.6969400000000001
239.3971	0.2	pvd	24	noun	list	1	2	nomatch	nouveau	-1	1	y	0.6969400000000001
239.597	0.0	+	24	noun	list	1	3	nomatch	nouveau	-1	1	y	0.6969400000000001
239.99699999999999	0.2	ljxk	24	noun	list	1	4	nomatch	nouveau	-1	1	y	0.6969400000000001
240.19699999999997	0.0	+	24	noun	list	1	5	nomatch	nouveau	-1	1	y	0.6969400000000001
240.597	0.2	dljz	24	noun	list	1	6	nomatch	nouveau	-1	1	y	0.6969400000000001
240.79690000000002	0.0	+	24	noun	list	1	7	nomatch	nouveau	-1	1	y	0.6969400000000001
241.1969	0.2	mtlhd	24	noun	list	1	8	nomatch	nouveau	-1	1	y	0.6969400000000001
241.3969	0.0	+	24	noun	list	1	9	nomatch	nouveau	-1	1	y	0.6969400000000001
241.79690000000002	0.2	casier	24	noun	list	1	10	nomatch	nouveau	-1	1	y	0.6969400000000001
241.9969	0.0	+	24	noun	list	1	11	nomatch	nouveau	-1	1	y	0.6969400000000001
242.3968	0.0	+	24	noun	list	1	12	nomatch	nouveau	-1	1	y	0.6969400000000001
244.39669999999998	0.0	NOUVEAU	24	noun	list	1	13	nomatch	nouveau	-1	1	y	0.6969400000000001
245.16330000000002	0.0	+	24	noun	list	1	14	nomatch	nouveau	-1	1	y	0.6969400000000001
245.0936	0.0	[response]	24	noun	list	1	15	nomatch	nouveau	-1	1	y	0.6969400000000001
246.7965	0.0	+	25	noun	list	1	1	nomatch	tard	-1	0	TIMEOUT	-1.0
247.3464	0.2	vkbp	25	noun	list	1	2	nomatch	tard	-1	0	TIMEOUT	-1.0
247.54639999999998	0.0	+	25	noun	list	1	3	nomatch	tard	-1	0	TIMEOUT	-1.0
247.9464	0.2	jgvm	25	noun	list	1	4	nomatch	tard	-1	0	TIMEOUT	-1.0
248.1464	0.0	+	25	noun	list	1	5	nomatch	tard	-1	0	TIMEOUT	-1.0
248.54639999999998	0.2	pjf	25	noun	list	1	6	nomatch	tard	-1	0	TIMEOUT	-1.0
248.7463	0.0	+	25	noun	list	1	7	nomatch	tard	-1	0	TIMEOUT	-1.0
249.14629999999997	0.2	wfcrtlhv	25	noun	list	1	8	nomatch	tard	-1	0	TIMEOUT	-1.0
249.3463	0.0	+	25	noun	list	1	9	nomatch	tard	-1	0	TIMEOUT	-1.0
249.7463	0.2	voilier	25	noun	list	1	10	nomatch	tard	-1	0	TIMEOUT	-1.0
249.9462	0.0	+	25	noun	list	1	11	nomatch	tard	-1	0	TIMEOUT	-1.0
250.34619999999998	0.0	+	25	noun	list	1	12	nomatch	tard	-1	0	TIMEOUT	-1.0
252.3461	0.0	TARD	25	noun	list	1	13	nomatch	tard	-1	0	TIMEOUT	-1.0
262.74530000000004	0.0	+	26	noun	phrase	3	1	nomatch	leur	-1	1	y	0.69278
263.34520000000003	0.2	rdfcg	26	noun	phrase	3	2	nomatch	leur	-1	1	y	0.69278
263.5452	0.0	+	26	noun	phrase	3	3	nomatch	leur	-1	1	y	0.69278
263.9452	0.2	xhls	26	noun	phrase	3	4	nomatch	leur	-1	1	y	0.69278
264.1451	0.0	+	26	noun	phrase	3	5	nomatch	leur	-1	1	y	0.69278
264.54510000000005	0.2	son	26	noun	phrase	3	6	nomatch	leur	-1	1	y	0.69278
264.74510000000004	0.0	+	26	noun	phrase	3	7	nomatch	leur	-1	1	y	0.69278
265.1451	0.2	petit	26	noun	phrase	3	8	nomatch	leur	-1	1	y	0.69278
265.3451	0.0	+	26	noun	phrase	3	9	nomatch	leur	-1	1	y	0.69278
265.745	0.2	casier	26	noun	phrase	3	10	nomatch	leur	-1	1	y	0.69278
265.94500000000005	0.0	+	26	noun	phrase	3	11	nomatch	leur	-1	1	y	0.69278
266.345	0.0	+	26	noun	phrase	3	12	nomatch	leur	-1	1	y	0.69278
268.3448	0.0	LEUR	26	noun	phrase	3	13	nomatch	leur	-1	1	y	0.69278
269.0948	0.0	+	26	noun	phrase	3	14	nomatch	leur	-1	1	y	0.69278
269.0376	0.0	[response]	26	noun	phrase	3	15	nomatch	leur	-1	1	y	0.69278
270.74460000000005	0.0	+	27	noun	phrase	1	1	nomatch	vert	-1	1	y	0.60923
271.2946	0.2	lzb	27	noun	phrase	1	2	nomatch	vert	-1	1	y	0.60923
271.49460000000005	0.0	+	27	noun	phrase	1	3	nomatch	vert	-1	1	y	0.60923
271.8946	0.2	phxz	27	noun	phrase	1	4	nomatch	vert	-1	1	y	0.60923
272.09650000000005	0.0	+	27	noun	phrase	1	5	nomatch	vert	-1	1	y	0.60923
272.4945	0.2	pjf	27	noun	phrase	1	6	nomatch	vert	-1	1	y	0.60923
272.6945	0.0	+	27	noun	phrase	1	7	nomatch	vert	-1	1	y	0.60923
273.09450000000004	0.2	gbzhdsl	27	noun	phrase	1	8	nomatch	vert	-1	1	y	0.60923
273.2944	0.0	+	27	noun	phrase	1	9	nomatch	vert	-1	1	y	0.60923
273.69440000000003	0.2	rouge	27	noun	phrase	1	10	nomatch	vert	-1	1	y	0.60923
273.8944	0.0	+	27	noun	phrase	1	11	nomatch	vert	-1	1	y	0.60923
274.2944	0.0	+	27	noun	phrase	1	12	nomatch	vert	-1	1	y	0.60923
276.29420000000005	0.0	VERT	27	noun	phrase	1	13	nomatch	vert	-1	1	y	0.60923
276.9608	0.0	+	27	noun	phrase	1	14	nomatch	vert	-1	1	y	0.60923
276.90340000000003	0.0	[response]	27	noun	phrase	1	15	nomatch	vert	-1	1	y	0.60923
278.694	0.0	+	28	verb	list	4	1	nomatch	moins	-1	1	y	0.82353
279.244	0.2	nsrd	28	verb	list	4	2	nomatch	moins	-1	1	y	0.82353
279.444	0.0	+	28	verb	list	4	3	nomatch	moins	-1	1	y	0.82353
279.8439	0.2	sur	28	verb	list	4	4	nomatch	moins	-1	1	y	0.82353
280.0439	0.0	+	28	verb	list	4	5	nomatch	moins	-1	1	y	0.82353
280.44390000000004	0.2	doit	28	verb	list	4	6	nomatch	moins	-1	1	y	0.82353
280.64390000000003	0.0	+	28	verb	list	4	7	nomatch	moins	-1	1	y	0.82353
281.04380000000003	0.2	petit	28	verb	list	4	8	nomatch	moins	-1	1	y	0.82353
281.2438	0.0	+	28	verb	list	4	9	nomatch	moins	-1	1	y	0.82353
281.6438	0.2	jongler	28	verb	list	4	10	nomatch	moins	-1	1	y	0.82353
281.84380000000004	0.0	+	28	verb	list	4	11	nomatch	moins	-1	1	y	0.82353
282.2438	0.0	+	28	verb	list	4	12	nomatch	moins	-1	1	y	0.82353
284.2436	0.0	MOINS	28	verb	list	4	13	nomatch	moins	-1	1	y	0.82353
285.12690000000003	0.0	+	28	verb	list	4	14	nomatch	moins	-1	1	y	0.82353
285.06710000000004	0.0	[response]	28	verb	list	4	15	nomatch	moins	-1	1	y	0.82353
286.64340000000004	0.0	+	29	noun	phrase	1	1	match	sablier	5	1	p	0.53058
287.1934	0.2	ztjrd	29	noun	phrase	1	2	match	sablier	5	1	p	0.53058
287.39340000000004	0.0	+	29	noun	phrase	1	3	match	sablier	5	1	p	0.53058
287.79330000000004	0.2	xhls	29	noun	phrase	1	4	match	sablier	5	1	p	0.53058
287.99330000000003	0.0	+	29	noun	phrase	1	5	match	sablier	5	1	p	0.53058
288.3933	0.2	dljz	29	noun	phrase	1	6	match	sablier	5	1	p	0.53058
288.5933	0.0	+	29	noun	phrase	1	7	match	sablier	5	1	p	0.53058
288.9932	0.2	xznbq	29	noun	phrase	1	8	match	sablier	5	1	p	0.53058
289.19320000000005	0.0	+	29	noun	phrase	1	9	match	sablier	5	1	p	0.53058
289.5932	0.2	sablier	29	noun	phrase	1	10	match	sablier	5	1	p	0.53058
289.7932	0.0	+	29	noun	phrase	1	11	match	sablier	5	1	p	0.53058
290.1931	0.0	+	29	noun	phrase	1	12	match	sablier	5	1	p	0.53058
292.19300000000004	0.0	SABLIER	29	noun	phrase	1	13	match	sablier	5	1	p	0.53058
292.79290000000003	0.0	+	29	noun	phrase	1	14	match	sablier	5	1	p	0.53058
292.72360000000003	0.0	[response]	29	noun	phrase	1	15	match	sablier	5	1	p	0.53058
294.5928	0.0	+	30	noun	phrase	1	1	nomatch	voilier	-1	1	y	0.72714
295.1428	0.2	mgsl	30	noun	phrase	1	2	nomatch	voilier	-1	1	y	0.72714
295.34270000000004	0.0	+	30	noun	phrase	1	3	nomatch	voilier	-1	1	y	0.72714
295.7427	0.2	xlb	30	noun	phrase	1	4	nomatch	voilier	-1	1	y	0.72714
295.9427	0.0	+	30	noun	phrase	1	5	nomatch	voilier	-1	1	y	0.72714
296.34270000000004	0.2	pjf	30	noun	phrase	1	6	nomatch	voilier	-1	1	y	0.72714
296.5427	0.0	+	30	noun	phrase	1	7	nomatch	voilier	-1	1	y	0.72714
296.9426	0.2	vcbxj	30	noun	phrase	1	8	nomatch	voilier	-1	1	y	0.72714
297.1426	0.0	+	30	noun	phrase	1	9	nomatch	voilier	-1	1	y	0.72714
297.54260000000005	0.2	clavier	30	noun	phrase	1	10	nomatch	voilier	-1	1	y	0.72714
297.74260000000004	0.0	+	30	noun	phrase	1	11	nomatch	voilier	-1	1	y	0.72714
298.14250000000004	0.0	+	30	noun	phrase	1	12	nomatch	voilier	-1	1	y	0.72714
300.1424	0.0	VOILIER	30	noun	phrase	1	13	nomatch	voilier	-1	1	y	0.72714
300.92560000000003	0.0	+	30	noun	phrase	1	14	nomatch	voilier	-1	1	y	0.72714
300.8695	0.0	[response]	30	noun	phrase	1	15	nomatch	voilier	-1	1	y	0.72714
302.54220000000004	0.0	+	31	noun	list	2	1	match	tablier	4	1	p	0.6014000000000002
303.09220000000005	0.2	wmkhlbr	31	noun	list	2	2	match	tablier	4	1	p	0.6014000000000002
303.2921	0.0	+	31	noun	list	2	3	match	tablier	4	1	p	0.6014000000000002
303.69210000000004	0.2	lfnt	31	noun	list	2	4	match	tablier	4	1	p	0.6014000000000002
303.8921	0.0	+	31	noun	list	2	5	match	tablier	4	1	p	0.6014000000000002
304.2921	0.2	zmpt	31	noun	list	2	6	match	tablier	4	1	p	0.6014000000000002
304.492	0.0	+	31	noun	list	2	7	match	tablier	4	1	p	0.6014000000000002
304.892	0.2	tablier	31	noun	list	2	8	match	tablier	4	1	p	0.6014000000000002
305.09200000000004	0.0	+	31	noun	list	2	9	match	tablier	4	1	p	0.6014000000000002
305.492	0.2	loin	31	noun	list	2	10	match	tablier	4	1	p	0.6014000000000002
305.69190000000003	0.0	+	31	noun	list	2	11	match	tablier	4	1	p	0.6014000000000002
306.0919	0.0	+	31	noun	list	2	12	match	tablier	4	1	p	0.6014000000000002
308.09180000000003	0.0	TABLIER	31	noun	list	2	13	match	tablier	4	1	p	0.6014000000000002
308.75840000000005	0.0	+	31	noun	list	2	14	match	tablier	4	1	p	0.6014000000000002
308.6932000000001	0.0	[response]	31	noun	list	2	15	match	tablier	4	1	p	0.6014000000000002
310.4916	0.0	+	32	verb	phrase	3	1	nomatch	va	-1	1	y	0.81001
311.04150000000004	0.2	jvt	32	verb	phrase	3	2	nomatch	va	-1	1	y	0.81001
311.24150000000003	0.0	+	32	verb	phrase	3	3	nomatch	va	-1	1	y	0.81001
311.6415	0.2	cxg	32	verb	phrase	3	4	nomatch	va	-1	1	y	0.81001
311.8415	0.0	+	32	verb	phrase	3	5	nomatch	va	-1	1	y	0.81001
312.2414	0.2	doit	32	verb	phrase	3	6	nomatch	va	-1	1	y	0.81001
312.44140000000004	0.0	+	32	verb	phrase	3	7	nomatch	va	-1	1	y	0.81001
312.8414	0.2	trop	32	verb	phrase	3	8	nomatch	va	-1	1	y	0.81001
313.0414	0.0	+	32	verb	phrase	3	9	nomatch	va	-1	1	y	0.81001
313.44140000000004	0.2	nager	32	verb	phrase	3	10	nomatch	va	-1	1	y	0.81001
313.6413	0.0	+	32	verb	phrase	3	11	nomatch	va	-1	1	y	0.81001
314.04130000000004	0.0	+	32	verb	phrase	3	12	nomatch	va	-1	1	y	0.81001
316.0412	0.0	VA	32	verb	phrase	3	13	nomatch	va	-1	1	y	0.81001
316.90770000000003	0.0	+	32	verb	phrase	3	14	nomatch	va	-1	1	y	0.81001
316.8512	0.0	[response]	32	verb	phrase	3	15	nomatch	va	-1	1	y	0.81001
326.44030000000004	0.0	+	33	verb	phrase	1	1	nomatch	parader	-1	1	y	0.8192
326.99030000000005	0.2	lqvst	33	verb	phrase	1	2	nomatch	parader	-1	1	y	0.8192
327.19030000000004	0.0	+	33	verb	phrase	1	3	nomatch	parader	-1	1	y	0.8192
327.5903	0.2	kvgl	33	verb	phrase	1	4	nomatch	parader	-1	1	y	0.8192
327.7902	0.0	+	33	verb	phrase	1	5	nomatch	parader	-1	1	y	0.8192
328.1902	0.2	zmpt	33	verb	phrase	1	6	nomatch	parader	-1	1	y	0.8192
328.39020000000005	0.0	+	33	verb	phrase	1	7	nomatch	parader	-1	1	y	0.8192
328.7902	0.2	ndsvg	33	verb	phrase	1	8	nomatch	parader	-1	1	y	0.8192
328.9902	0.0	+	33	verb	phrase	1	9	nomatch	parader	-1	1	y	0.8192
329.3901	0.2	plus	33	verb	phrase	1	10	nomatch	parader	-1	1	y	0.8192
329.5901	0.0	+	33	verb	phrase	1	11	nomatch	parader	-1	1	y	0.8192
329.99010000000004	0.0	+	33	verb	phrase	1	12	nomatch	parader	-1	1	y	0.8192
331.98990000000003	0.0	PARADER	33	verb	phrase	1	13	nomatch	parader	-1	1	y	0.8192
332.8732	0.0	+	33	verb	phrase	1	14	nomatch	parader	-1	1	y	0.8192
332.8091	0.0	[response]	33	verb	phrase	1	15	nomatch	parader	-1	1	y	0.8192
334.3897	0.0	+	34	noun	list	3	1	match	va	3	1	p	0.92146
334.9397	0.2	qgf	34	noun	list	3	2	match	va	3	1	p	0.92146
335.1397	0.0	+	34	noun	list	3	3	match	va	3	1	p	0.92146
335.5396	0.2	lfnt	34	noun	list	3	4	match	va	3	1	p	0.92146
335.7396	0.0	+	34	noun	list	3	5	match	va	3	1	p	0.92146
336.13960000000003	0.2	va	34	noun	list	3	6	match	va	3	1	p	0.92146
336.3396	0.0	+	34	noun	list	3	7	match	va	3	1	p	0.92146
336.7396	0.2	rocher	34	noun	list	3	8	match	va	3	1	p	0.92146
336.9395	0.0	+	34	noun	list	3	9	match	va	3	1	p	0.92146
337.33950000000004	0.2	vite	34	noun	list	3	10	match	va	3	1	p	0.92146
337.53950000000003	0.0	+	34	noun	list	3	11	match	va	3	1	p	0.92146
337.9395	0.0	+	34	noun	list	3	12	match	va	3	1	p	0.92146
339.9393	0.0	VA	34	noun	list	3	13	match	va	3	1	p	0.92146
340.92260000000005	0.0	+	34	noun	list	3	14	match	va	3	1	p	0.92146
340.86080000000004	0.0	[response]	34	noun	list	3	15	match	va	3	1	p	0.92146
342.33910000000003	0.0	+	35	noun	phrase	1	1	nomatch	petit	-1	1	y	1.058
342.88910000000004	0.2	zcfm	35	noun	phrase	1	2	nomatch	petit	-1	1	y	1.058
343.08910000000003	0.0	+	35	noun	phrase	1	3	nomatch	petit	-1	1	y	1.058
343.48900000000003	0.2	xhls	35	noun	phrase	1	4	nomatch	petit	-1	1	y	1.058
343.689	0.0	+	35	noun	phrase	1	5	nomatch	petit	-1	1	y	1.058
344.089	0.2	pjf	35	noun	phrase	1	6	nomatch	petit	-1	1	y	1.058
344.28900000000004	0.0	+	35	noun	phrase	1	7	nomatch	petit	-1	1	y	1.058
344.68890000000005	0.2	mtgbk	35	noun	phrase	1	8	nomatch	petit	-1	1	y	1.058
344.88890000000004	0.0	+	35	noun	phrase	1	9	nomatch	petit	-1	1	y	1.058
345.2889	0.2	sablier	35	noun	phrase	1	10	nomatch	petit	-1	1	y	1.058
345.4889	0.0	+	35	noun	phrase	1	11	nomatch	petit	-1	1	y	1.058
345.88890000000004	0.0	+	35	noun	phrase	1	12	nomatch	petit	-1	1	y	1.058
347.88870000000003	0.0	PETIT	35	noun	phrase	1	13	nomatch	petit	-1	1	y	1.058
349.00530000000003	0.0	+	35	noun	phrase	1	14	nomatch	petit	-1	1	y	1.058
348.9467	0.0	[response]	35	noun	phrase	1	15	nomatch	petit	-1	1	y	1.058
350.2885	0.0	+	36	verb	list	1	1	nomatch	galoper	-1	1	y	0.78166
350.8385	0.2	lnfj	36	verb	list	1	2	nomatch	galoper	-1	1	y	0.78166
351.0385	0.0	+	36	verb	list	1	3	nomatch	galoper	-1	1	y	0.78166
351.4384	0.2	lfnt	36	verb	list	1	4	nomatch	galoper	-1	1	y	0.78166
351.63840000000005	0.0	+	36	verb	list	1	5	nomatch	galoper	-1	1	y	0.78166
352.0384	0.2	xv	36	verb	list	1	6	nomatch	galoper	-1	1	y	0.78166
352.2384	0.0	+	36	verb	list	1	7	nomatch	galoper	-1	1	y	0.78166
352.6383	0.2	sxfrc	36	verb	list	1	8	nomatch	galoper	-1	1	y	0.78166
352.8383	0.0	+	36	verb	list	1	9	nomatch	galoper	-1	1	y	0.78166
353.23830000000004	0.2	jongler	36	verb	list	1	10	nomatch	galoper	-1	1	y	0.78166
353.4383	0.0	+	36	verb	list	1	11	nomatch	galoper	-1	1	y	0.78166
353.83820000000003	0.0	+	36	verb	list	1	12	nomatch	galoper	-1	1	y	0.78166
355.8381	0.0	GALOPER	36	verb	list	1	13	nomatch	galoper	-1	1	y	0.78166
356.68800000000005	0.0	+	36	verb	list	1	14	nomatch	galoper	-1	1	y	0.78166
356.6197	0.0	[response]	36	verb	list	1	15	nomatch	galoper	-1	1	y	0.78166
358.2379	0.0	+	37	noun	phrase	4	1	match	sans	2	1	p	0.72967
358.78790000000004	0.2	klt	37	noun	phrase	4	2	match	sans	2	1	p	0.72967
358.98780000000005	0.0	+	37	noun	phrase	4	3	match	sans	2	1	p	0.72967
359.3878	0.2	sans	37	noun	phrase	4	4	match	sans	2	1	p	0.72967
359.5878	0.0	+	37	noun	phrase	4	5	match	sans	2	1	p	0.72967
359.98780000000005	0.2	mon	37	noun	phrase	4	6	match	sans	2	1	p	0.72967
360.18780000000004	0.0	+	37	noun	phrase	4	7	match	sans	2	1	p	0.72967
360.58770000000004	0.2	grand	37	noun	phrase	4	8	match	sans	2	1	p	0.72967
360.78770000000003	0.0	+	37	noun	phrase	4	9	match	sans	2	1	p	0.72967
361.1877	0.2	casier	37	noun	phrase	4	10	match	sans	2	1	p	0.72967
361.38770000000005	0.0	+	37	noun	phrase	4	11	match	sans	2	1	p	0.72967
361.7876	0.0	+	37	noun	phrase	4	12	match	sans	2	1	p	0.72967
363.7875	0.0	SANS	37	noun	phrase	4	13	match	sans	2	1	p	0.72967
364.5874	0.0	+	37	noun	phrase	4	14	match	sans	2	1	p	0.72967
364.5171	0.0	[response]	37	noun	phrase	4	15	match	sans	2	1	p	0.72967
366.18730000000005	0.0	+	38	noun	phrase	4	1	nomatch	boîtier	-1	1	y	0.9658500000000001
366.73720000000003	0.2	rkf	38	noun	phrase	4	2	nomatch	boîtier	-1	1	y	0.9658500000000001
366.9372	0.0	+	38	noun	phrase	4	3	nomatch	boîtier	-1	1	y	0.9658500000000001
367.33720000000005	0.2	sous	38	noun	phrase	4	4	nomatch	boîtier	-1	1	y	0.9658500000000001
367.53720000000004	0.0	+	38	noun	phrase	4	5	nomatch	boîtier	-1	1	y	0.9658500000000001
367.9372	0.2	son	38	noun	phrase	4	6	nomatch	boîtier	-1	1	y	0.9658500000000001
368.13710000000003	0.0	+	38	noun	phrase	4	7	nomatch	boîtier	-1	1	y	0.9658500000000001
368.5371	0.2	beau	38	noun	phrase	4	8	nomatch	boîtier	-1	1	y	0.9658500000000001
368.7371	0.0	+	38	noun	phrase	4	9	nomatch	boîtier	-1	1	y	0.9658500000000001
369.13710000000003	0.2	tablier	38	noun	phrase	4	10	nomatch	boîtier	-1	1	y	0.9658500000000001
369.33700000000005	0.0	+	38	noun	phrase	4	11	nomatch	boîtier	-1	1	y	0.9658500000000001
369.737	0.0	+	38	noun	phrase	4	12	nomatch	boîtier	-1	1	y	0.9658500000000001
371.73690000000005	0.0	BOÎTIER	38	noun	phrase	4	13	nomatch	boîtier	-1	1	y	0.9658500000000001
372.7701	0.0	+	38	noun	phrase	4	14	nomatch	boîtier	-1	1	y	0.9658500000000001
372.7027000000001	0.0	[response]	38	noun	phrase	4	15	nomatch	boîtier	-1	1	y	0.9658500000000001
374.1367	0.0	+	39	verb	phrase	2	1	nomatch	va	-1	1	y	0.77828
374.6866	0.2	qwjvb	39	verb	phrase	2	2	nomatch	va	-1	1	y	0.77828
374.88660000000004	0.0	+	39	verb	phrase	2	3	nomatch	va	-1	1	y	0.77828
375.2866	0.2	kvgl	39	verb	phrase	2	4	nomatch	va	-1	1	y	0.77828
375.4866	0.0	+	39	verb	phrase	2	5	nomatch	va	-1	1	y	0.77828
375.8865	0.2	zmpt	39	verb	phrase	2	6	nomatch	va	-1	1	y	0.77828
376.0865	0.0	+	39	verb	phrase	2	7	nomatch	va	-1	1	y	0.77828
376.48650000000004	0.2	parader	39	verb	phrase	2	8	nomatch	va	-1	1	y	0.77828
376.6865	0.0	+	39	verb	phrase	2	9	nomatch	va	-1	1	y	0.77828
377.0865	0.2	loin	39	verb	phrase	2	10	nomatch	va	-1	1	y	0.77828
377.2864	0.0	+	39	verb	phrase	2	11	nomatch	va	-1	1	y	0.77828
377.68640000000005	0.0	+	39	verb	phrase	2	12	nomatch	va	-1	1	y	0.77828
379.6863	0.0	VA	39	verb	phrase	2	13	nomatch	va	-1	1	y	0.77828
380.51950000000005	0.0	+	39	verb	phrase	2	14	nomatch	va	-1	1	y	0.77828
380.46450000000004	0.0	[response]	39	verb	phrase	2	15	nomatch	va	-1	1	y	0.77828
390.08540000000005	0.0	+	40	noun	phrase	2	1	nomatch	clavier	-1	1	y	0.95153
390.6354	0.2	rjvdqhn	40	noun	phrase	2	2	nomatch	clavier	-1	1	y	0.95153
390.83540000000005	0.0	+	40	noun	phrase	2	3	nomatch	clavier	-1	1	y	0.95153
391.2354	0.2	xlb	40	noun	phrase	2	4	nomatch	clavier	-1	1	y	0.95153
391.43530000000004	0.0	+	40	noun	phrase	2	5	nomatch	clavier	-1	1	y	0.95153
391.8353	0.2	vzq	40	noun	phrase	2	6	nomatch	clavier	-1	1	y	0.95153
392.0353	0.0	+	40	noun	phrase	2	7	nomatch	clavier	-1	1	y	0.95153
392.43530000000004	0.2	vieux	40	noun	phrase	2	8	nomatch	clavier	-1	1	y	0.95153
392.63530000000003	0.0	+	40	noun	phrase	2	9	nomatch	clavier	-1	1	y	0.95153
393.03520000000003	0.2	tablier	40	noun	phrase	2	10	nomatch	clavier	-1	1	y	0.95153
393.2352	0.0	+	40	noun	phrase	2	11	nomatch	clavier	-1	1	y	0.95153
393.6352	0.0	+	40	noun	phrase	2	12	nomatch	clavier	-1	1	y	0.95153
395.63500000000005	0.0	CLAVIER	40	noun	phrase	2	13	nomatch	clavier	-1	1	y	0.95153
396.65160000000003	0.0	+	40	noun	phrase	2	14	nomatch	clavier	-1	1	y	0.95153
396.58660000000003	0.0	[response]	40	noun	phrase	2	15	nomatch	clavier	-1	1	y	0.95153
398.0348	0.0	+	41	verb	phrase	1	1	nomatch	trop	-1	1	y	0.80135
398.60150000000004	0.2	hvfxnq	41	verb	phrase	1	2	nomatch	trop	-1	1	y	0.80135
398.8014	0.0	+	41	verb	phrase	1	3	nomatch	trop	-1	1	y	0.80135
399.20140000000004	0.2	cxg	41	verb	phrase	1	4	nomatch	trop	-1	1	y	0.80135
399.4014	0.0	+	41	verb	phrase	1	5	nomatch	trop	-1	1	y	0.80135
399.8014	0.2	xv	41	verb	phrase	1	6	nomatch	trop	-1	1	y	0.80135
400.00140000000005	0.0	+	41	verb	phrase	1	7	nomatch	trop	-1	1	y	0.80135
400.40130000000005	0.2	gxchlzt	41	verb	phrase	1	8	nomatch	trop	-1	1	y	0.80135
400.60130000000004	0.0	+	41	verb	phrase	1	9	nomatch	trop	-1	1	y	0.80135
401.0013	0.2	beaucoup	41	verb	phrase	1	10	nomatch	trop	-1	1	y	0.80135
401.2013	0.0	+	41	verb	phrase	1	11	nomatch	trop	-1	1	y	0.80135
401.6012	0.0	+	41	verb	phrase	1	12	nomatch	trop	-1	1	y	0.80135
403.60110000000003	0.0	TROP	41	verb	phrase	1	13	nomatch	trop	-1	1	y	0.80135
404.46770000000004	0.0	+	41	verb	phrase	1	14	nomatch	trop	-1	1	y	0.80135
404.40240000000006	0.0	[response]	41	verb	phrase	1	15	nomatch	trop	-1	1	y	0.80135
406.0009	0.0	+	42	noun	phrase	2	1	match	nouveau	4	1	p	0.87678
406.55080000000004	0.2	svnq	42	noun	phrase	2	2	match	nouveau	4	1	p	0.87678
406.7508	0.0	+	42	noun	phrase	2	3	match	nouveau	4	1	p	0.87678
407.1508	0.2	lfnt	42	noun	phrase	2	4	match	nouveau	4	1	p	0.87678
407.35080000000005	0.0	+	42	noun	phrase	2	5	match	nouveau	4	1	p	0.87678
407.7508	0.2	pjf	42	noun	phrase	2	6	match	nouveau	4	1	p	0.87678
407.95070000000004	0.0	+	42	noun	phrase	2	7	match	nouveau	4	1	p	0.87678
408.3507	0.2	nouveau	42	noun	phrase	2	8	match	nouveau	4	1	p	0.87678
408.5507	0.0	+	42	noun	phrase	2	9	match	nouveau	4	1	p	0.87678
408.95070000000004	0.2	casier	42	noun	phrase	2	10	match	nouveau	4	1	p	0.87678
409.15070000000003	0.0	+	42	noun	phrase	2	11	match	nouveau	4	1	p	0.87678
409.55060000000003	0.0	+	42	noun	phrase	2	12	match	nouveau	4	1	p	0.87678
411.5505	0.0	NOUVEAU	42	noun	phrase	2	13	match	nouveau	4	1	p	0.87678
412.4837	0.0	+	42	noun	phrase	2	14	match	nouveau	4	1	p	0.87678
412.4272	0.0	[response]	42	noun	phrase	2	15	match	nouveau	4	1	p	0.87678
421.9497	0.0	+	43	verb	phrase	1	1	match	loin	5	1	p	0.75776
422.49960000000004	0.2	kxlqpn	43	verb	phrase	1	2	match	loin	5	1	p	0.75776
422.69960000000003	0.0	+	43	verb	phrase	1	3	match	loin	5	1	p	0.75776
423.0996	0.2	cxg	43	verb	phrase	1	4	match	loin	5	1	p	0.75776
423.2996	0.0	+	43	verb	phrase	1	5	match	loin	5	1	p	0.75776
423.6995	0.2	xv	43	verb	phrase	1	6	match	loin	5	1	p	0.75776
423.89950000000005	0.0	+	43	verb	phrase	1	7	match	loin	5	1	p	0.75776
424.2995	0.2	gxchlzt	43	verb	phrase	1	8	match	loin	5	1	p	0.75776
424.4995	0.0	+	43	verb	phrase	1	9	match	loin	5	1	p	0.75776
424.8994	0.2	loin	43	verb	phrase	1	10	match	loin	5	1	p	0.75776
425.0994	0.0	+	43	verb	phrase	1	11	match	loin	5	1	p	0.75776
425.49940000000004	0.0	+	43	verb	phrase	1	12	match	loin	5	1	p	0.75776
427.49920000000003	0.0	LOIN	43	verb	phrase	1	13	match	loin	5	1	p	0.75776
428.3158	0.0	+	43	verb	phrase	1	14	match	loin	5	1	p	0.75776
428.257	0.0	[response]	43	verb	phrase	1	15	match	loin	5	1	p	0.75776
429.899	0.0	+	44	noun	list	1	1	match	clavier	5	1	p	0.80786
430.449	0.2	kmps	44	noun	list	1	2	match	clavier	5	1	p	0.80786
430.649	0.0	+	44	noun	list	1	3	match	clavier	5	1	p	0.80786
431.04900000000004	0.2	lfnt	44	noun	list	1	4	match	clavier	5	1	p	0.80786
431.24890000000005	0.0	+	44	noun	list	1	5	match	clavier	5	1	p	0.80786
431.6489	0.2	zmpt	44	noun	list	1	6	match	clavier	5	1	p	0.80786
431.8489	0.0	+	44	noun	list	1	7	match	clavier	5	1	p	0.80786
432.24890000000005	0.2	stb	44	noun	list	1	8	match	clavier	5	1	p	0.80786
432.44890000000004	0.0	+	44	noun	list	1	9	match	clavier	5	1	p	0.80786
432.84880000000004	0.2	clavier	44	noun	list	1	10	match	clavier	5	1	p	0.80786
433.0488	0.0	+	44	noun	list	1	11	match	clavier	5	1	p	0.80786
433.4488	0.0	+	44	noun	list	1	12	match	clavier	5	1	p	0.80786
435.4486	0.0	CLAVIER	44	noun	list	1	13	match	clavier	5	1	p	0.80786
436.3152	0.0	+	44	noun	list	1	14	match	clavier	5	1	p	0.80786
436.2565	0.0	[response]	44	noun	list	1	15	match	clavier	5	1	p	0.80786
437.8484	0.0	+	45	verb	list	1	1	match	nouveau	5	1	p	0.54826
438.39840000000004	0.2	zqd	45	verb	list	1	2	match	nouveau	5	1	p	0.54826
438.5984	0.0	+	45	verb	list	1	3	match	nouveau	5	1	p	0.54826
438.99830000000003	0.2	phxz	45	verb	list	1	4	match	nouveau	5	1	p	0.54826
439.1983	0.0	+	45	verb	list	1	5	match	nouveau	5	1	p	0.54826
439.59830000000005	0.2	xv	45	verb	list	1	6	match	nouveau	5	1	p	0.54826
439.79830000000004	0.0	+	45	verb	list	1	7	match	nouveau	5	1	p	0.54826
440.1983	0.2	smcjrf	45	verb	list	1	8	match	nouveau	5	1	p	0.54826
440.39820000000003	0.0	+	45	verb	list	1	9	match	nouveau	5	1	p	0.54826
440.7982	0.2	nouveau	45	verb	list	1	10	match	nouveau	5	1	p	0.54826
440.9982	0.0	+	45	verb	list	1	11	match	nouveau	5	1	p	0.54826
441.39820000000003	0.0	+	45	verb	list	1	12	match	nouveau	5	1	p	0.54826
443.398	0.0	NOUVEAU	45	verb	list	1	13	match	nouveau	5	1	p	0.54826
444.01460000000003	0.0	+	45	verb	list	1	14	match	nouveau	5	1	p	0.54826
443.9463	0.0	[response]	45	verb	list	1	15	match	nouveau	5	1	p	0.54826
453.79720000000003	0.0	+	46	verb	list	2	1	nomatch	doit	-1	1	y	0.5993100000000001
454.34720000000004	0.2	wdl	46	verb	list	2	2	nomatch	doit	-1	1	y	0.5993100000000001
454.54720000000003	0.0	+	46	verb	list	2	3	nomatch	doit	-1	1	y	0.5993100000000001
454.94710000000003	0.2	bclj	46	verb	list	2	4	nomatch	doit	-1	1	y	0.5993100000000001
455.1471	0.0	+	46	verb	list	2	5	nomatch	doit	-1	1	y	0.5993100000000001
455.5471	0.2	vzq	46	verb	list	2	6	nomatch	doit	-1	1	y	0.5993100000000001
455.74710000000005	0.0	+	46	verb	list	2	7	nomatch	doit	-1	1	y	0.5993100000000001
456.14700000000005	0.2	voyager	46	verb	list	2	8	nomatch	doit	-1	1	y	0.5993100000000001
456.347	0.0	+	46	verb	list	2	9	nomatch	doit	-1	1	y	0.5993100000000001
456.74700000000007	0.2	blanc	46	verb	list	2	10	nomatch	doit	-1	1	y	0.5993100000000001
456.947	0.0	+	46	verb	list	2	11	nomatch	doit	-1	1	y	0.5993100000000001
457.3469	0.0	+	46	verb	list	2	12	nomatch	doit	-1	1	y	0.5993100000000001
459.34680000000003	0.0	DOIT	46	verb	list	2	13	nomatch	doit	-1	1	y	0.5993100000000001
460.01340000000005	0.0	+	46	verb	list	2	14	nomatch	doit	-1	1	y	0.5993100000000001
459.9461	0.0	[response]	46	verb	list	2	15	nomatch	doit	-1	1	y	0.5993100000000001
461.74660000000006	0.0	+	47	noun	list	2	1	nomatch	tard	-1	1	y	0.69004
462.2966	0.2	hsxwp	47	noun	list	2	2	nomatch	tard	-1	1	y	0.69004
462.49649999999997	0.0	+	47	noun	list	2	3	nomatch	tard	-1	1	y	0.69004
462.89650000000006	0.2	ljxk	47	noun	list	2	4	nomatch	tard	-1	1	y	0.69004
463.0965	0.0	+	47	noun	list	2	5	nomatch	tard	-1	1	y	0.69004
463.49649999999997	0.2	pjf	47	noun	list	2	6	nomatch	tard	-1	1	y	0.69004
463.69640000000004	0.0	+	47	noun	list	2	7	nomatch	tard	-1	1	y	0.69004
464.0964	0.2	moins	47	noun	list	2	8	nomatch	tard	-1	1	y	0.69004
464.29640000000006	0.0	+	47	noun	list	2	9	nomatch	tard	-1	1	y	0.69004
464.69640000000004	0.2	clavier	47	noun	list	2	10	nomatch	tard	-1	1	y	0.69004
464.89639999999997	0.0	+	47	noun	list	2	11	nomatch	tard	-1	1	y	0.69004
465.2963	0.0	+	47	noun	list	2	12	nomatch	tard	-1	1	y	0.69004
467.2962	0.0	TARD	47	noun	list	2	13	nomatch	tard	-1	1	y	0.69004
468.0461	0.0	+	47	noun	list	2	14	nomatch	tard	-1	1	y	0.69004
467.98620000000005	0.0	[response]	47	noun	list	2	15	nomatch	tard	-1	1	y	0.69004
469.696	0.0	+	48	noun	phrase	4	1	match	grenier	5	1	p	0.84629
470.2459	0.2	rxzfw	48	noun	phrase	4	2	match	grenier	5	1	p	0.84629
470.44590000000005	0.0	+	48	noun	phrase	4	3	match	grenier	5	1	p	0.84629
470.84590000000003	0.2	sans	48	noun	phrase	4	4	match	grenier	5	1	p	0.84629
471.0459000000001	0.0	+	48	noun	phrase	4	5	match	grenier	5	1	p	0.84629
471.44590000000005	0.2	son	48	noun	phrase	4	6	match	grenier	5	1	p	0.84629
471.6458	0.0	+	48	noun	phrase	4	7	match	grenier	5	1	p	0.84629
472.0458	0.2	grand	48	noun	phrase	4	8	match	grenier	5	1	p	0.84629
472.24580000000003	0.0	+	48	noun	phrase	4	9	match	grenier	5	1	p	0.84629
472.6458	0.2	grenier	48	noun	phrase	4	10	match	grenier	5	1	p	0.84629
472.8457000000001	0.0	+	48	noun	phrase	4	11	match	grenier	5	1	p	0.84629
473.24570000000006	0.0	+	48	noun	phrase	4	12	match	grenier	5	1	p	0.84629
475.24559999999997	0.0	GRENIER	48	noun	phrase	4	13	match	grenier	5	1	p	0.84629
476.1621	0.0	+	48	noun	phrase	4	14	match	grenier	5	1	p	0.84629
476.09180000000003	0.0	[response]	48	noun	phrase	4	15	match	grenier	5	1	p	0.84629
477.6454	0.0	+	49	verb	list	2	1	match	bleu	5	1	p	1.0627
478.1953	0.2	kqnjws	49	verb	list	2	2	match	bleu	5	1	p	1.0627
478.3953	0.0	+	49	verb	list	2	3	match	bleu	5	1	p	1.0627
478.7953	0.2	bclj	49	verb	list	2	4	match	bleu	5	1	p	1.0627
478.99530000000004	0.0	+	49	verb	list	2	5	match	bleu	5	1	p	1.0627
479.39520000000005	0.2	pjf	49	verb	list	2	6	match	bleu	5	1	p	1.0627
479.5952	0.0	+	49	verb	list	2	7	match	bleu	5	1	p	1.0627
479.99520000000007	0.2	parader	49	verb	list	2	8	match	bleu	5	1	p	1.0627
480.1952	0.0	+	49	verb	list	2	9	match	bleu	5	1	p	1.0627
480.5951	0.2	bleu	49	verb	list	2	10	match	bleu	5	1	p	1.0627
480.79510000000005	0.0	+	49	verb	list	2	11	match	bleu	5	1	p	1.0627
481.1951	0.0	+	49	verb	list	2	12	match	bleu	5	1	p	1.0627
483.1949000000001	0.0	BLEU	49	verb	list	2	13	match	bleu	5	1	p	1.0627
484.32820000000004	0.0	+	49	verb	list	2	14	match	bleu	5	1	p	1.0627
484.2576	0.0	[response]	49	verb	list	2	15	match	bleu	5	1	p	1.0627
485.5948000000001	0.0	+	50	noun	list	1	1	match	boîtier	5	1	p	0.64566
486.14470000000006	0.2	wzl	50	noun	list	1	2	match	boîtier	5	1	p	0.64566
486.3447	0.0	+	50	noun	list	1	3	match	boîtier	5	1	p	0.64566
486.7447000000001	0.2	cxg	50	noun	list	1	4	match	boîtier	5	1	p	0.64566
486.9447	0.0	+	50	noun	list	1	5	match	boîtier	5	1	p	0.64566
487.3446	0.2	dljz	50	noun	list	1	6	match	boîtier	5	1	p	0.64566
487.54460000000006	0.0	+	50	noun	list	1	7	match	boîtier	5	1	p	0.64566
487.94460000000004	0.2	lbzh	50	noun	list	1	8	match	boîtier	5	1	p	0.64566
488.14459999999997	0.0	+	50	noun	list	1	9	match	boîtier	5	1	p	0.64566
488.54449999999997	0.2	boîtier	50	noun	list	1	10	match	boîtier	5	1	p	0.64566
488.7445	0.0	+	50	noun	list	1	11	match	boîtier	5	1	p	0.64566
489.1445	0.0	+	50	noun	list	1	12	match	boîtier	5	1	p	0.64566
491.14430000000004	0.0	BOÎTIER	50	noun	list	1	13	match	boîtier	5	1	p	0.64566
491.8443	0.0	+	50	noun	list	1	14	match	boîtier	5	1	p	0.64566
491.7900000000001	0.0	[response]	50	noun	list	1	15	match	boîtier	5	1	p	0.64566
501.5435	0.0	+	51	verb	phrase	2	1	nomatch	vite	-1	1	y	0.66238
502.09350000000006	0.2	zkjsprv	51	verb	phrase	2	2	nomatch	vite	-1	1	y	0.66238
502.2935	0.0	+	51	verb	phrase	2	3	nomatch	vite	-1	1	y	0.66238
502.6934	0.2	jgvm	51	verb	phrase	2	4	nomatch	vite	-1	1	y	0.66238
502.89340000000004	0.0	+	51	verb	phrase	2	5	nomatch	vite	-1	1	y	0.66238
503.2934	0.2	zmpt	51	verb	phrase	2	6	nomatch	vite	-1	1	y	0.66238
503.49340000000007	0.0	+	51	verb	phrase	2	7	nomatch	vite	-1	1	y	0.66238
503.89330000000007	0.2	plus	51	verb	phrase	2	8	nomatch	vite	-1	1	y	0.66238
504.0933	0.0	+	51	verb	phrase	2	9	nomatch	vite	-1	1	y	0.66238
504.4933	0.2	nager	51	verb	phrase	2	10	nomatch	vite	-1	1	y	0.66238
504.6933	0.0	+	51	verb	phrase	2	11	nomatch	vite	-1	1	y	0.66238
505.0933	0.0	+	51	verb	phrase	2	12	nomatch	vite	-1	1	y	0.66238
507.09310000000005	0.0	VITE	51	verb	phrase	2	13	nomatch	vite	-1	1	y	0.66238
507.8097	0.0	+	51	verb	phrase	2	14	nomatch	vite	-1	1	y	0.66238
507.7555	0.0	[response]	51	verb	phrase	2	15	nomatch	vite	-1	1	y	0.66238
509.4929000000001	0.0	+	52	noun	phrase	1	1	match	bleu	5	1	p	0.49695
510.04290000000003	0.2	ldxqcpm	52	noun	phrase	1	2	match	bleu	5	1	p	0.49695
510.2429000000001	0.0	+	52	noun	phrase	1	3	match	bleu	5	1	p	0.49695
510.6428000000001	0.2	xlb	52	noun	phrase	1	4	match	bleu	5	1	p	0.49695
510.8428	0.0	+	52	noun	phrase	1	5	match	bleu	5	1	p	0.49695
511.2428	0.2	dljz	52	noun	phrase	1	6	match	bleu	5	1	p	0.49695
511.44280000000003	0.0	+	52	noun	phrase	1	7	match	bleu	5	1	p	0.49695
511.84270000000004	0.2	dhxvfsj	52	noun	phrase	1	8	match	bleu	5	1	p	0.49695
512.0427	0.0	+	52	noun	phrase	1	9	match	bleu	5	1	p	0.49695
512.4427000000001	0.2	bleu	52	noun	phrase	1	10	match	bleu	5	1	p	0.49695
512.6427	0.0	+	52	noun	phrase	1	11	match	bleu	5	1	p	0.49695
513.0426	0.0	+	52	noun	phrase	1	12	match	bleu	5	1	p	0.49695
515.0425	0.0	BLEU	52	noun	phrase	1	13	match	bleu	5	1	p	0.49695
515.6091	0.0	+	52	noun	phrase	1	14	match	bleu	5	1	p	0.49695
515.5394	0.0	[response]	52	noun	phrase	1	15	match	bleu	5	1	p	0.49695
517.4423	0.0	+	53	verb	list	3	1	nomatch	voyager	-1	1	y	0.74544
517.9923	0.2	lkds	53	verb	list	3	2	nomatch	voyager	-1	1	y	0.74544
518.1922000000001	0.0	+	53	verb	list	3	3	nomatch	voyager	-1	1	y	0.74544
518.5922	0.2	xhls	53	verb	list	3	4	nomatch	voyager	-1	1	y	0.74544
518.7922	0.0	+	53	verb	list	3	5	nomatch	voyager	-1	1	y	0.74544
519.1922000000001	0.2	va	53	verb	list	3	6	nomatch	voyager	-1	1	y	0.74544
519.3922	0.0	+	53	verb	list	3	7	nomatch	voyager	-1	1	y	0.74544
519.7921	0.2	nouveau	53	verb	list	3	8	nomatch	voyager	-1	1	y	0.74544
519.9921	0.0	+	53	verb	list	3	9	nomatch	voyager	-1	1	y	0.74544
520.3921	0.2	nager	53	verb	list	3	10	nomatch	voyager	-1	1	y	0.74544
520.5921000000001	0.0	+	53	verb	list	3	11	nomatch	voyager	-1	1	y	0.74544
520.9920000000001	0.0	+	53	verb	list	3	12	nomatch	voyager	-1	1	y	0.74544
522.9919	0.0	VOYAGER	53	verb	list	3	13	nomatch	voyager	-1	1	y	0.74544
523.7918000000001	0.0	+	53	verb	list	3	14	nomatch	voyager	-1	1	y	0.74544
523.7373	0.0	[response]	53	verb	list	3	15	nomatch	voyager	-1	1	y	0.74544
525.3917	0.0	+	54	noun	phrase	2	1	nomatch	sur	-1	1	y	0.63993
525.9417	0.2	pqrbztk	54	noun	phrase	2	2	nomatch	sur	-1	1	y	0.63993
526.1416	0.0	+	54	noun	phrase	2	3	nomatch	sur	-1	1	y	0.63993
526.5416	0.2	bjsm	54	noun	phrase	2	4	nomatch	sur	-1	1	y	0.63993
526.7416000000001	0.0	+	54	noun	phrase	2	5	nomatch	sur	-1	1	y	0.63993
527.1416	0.2	vzq	54	noun	phrase	2	6	nomatch	sur	-1	1	y	0.63993
527.3415	0.0	+	54	noun	phrase	2	7	nomatch	sur	-1	1	y	0.63993
527.7415	0.2	tablier	54	noun	phrase	2	8	nomatch	sur	-1	1	y	0.63993
527.9415	0.0	+	54	noun	phrase	2	9	nomatch	sur	-1	1	y	0.63993
528.3415	0.2	bleu	54	noun	phrase	2	10	nomatch	sur	-1	1	y	0.63993
528.5415	0.0	+	54	noun	phrase	2	11	nomatch	sur	-1	1	y	0.63993
528.9414	0.0	+	54	noun	phrase	2	12	nomatch	sur	-1	1	y	0.63993
530.9413000000001	0.0	SUR	54	noun	phrase	2	13	nomatch	sur	-1	1	y	0.63993
531.6412	0.0	+	54	noun	phrase	2	14	nomatch	sur	-1	1	y	0.63993
531.5812000000001	0.0	[response]	54	noun	phrase	2	15	nomatch	sur	-1	1	y	0.63993
533.3411	0.0	+	55	verb	list	1	1	nomatch	vieux	-1	1	y	0.73046
533.8910000000001	0.2	qbdnsv	55	verb	list	1	2	nomatch	vieux	-1	1	y	0.73046
534.091	0.0	+	55	verb	list	1	3	nomatch	vieux	-1	1	y	0.73046
534.491	0.2	xhls	55	verb	list	1	4	nomatch	vieux	-1	1	y	0.73046
534.691	0.0	+	55	verb	list	1	5	nomatch	vieux	-1	1	y	0.73046
535.0909	0.2	gxvf	55	verb	list	1	6	nomatch	vieux	-1	1	y	0.73046
535.2909000000001	0.0	+	55	verb	list	1	7	nomatch	vieux	-1	1	y	0.73046
535.6909	0.2	sxjnhdg	55	verb	list	1	8	nomatch	vieux	-1	1	y	0.73046
535.8909	0.0	+	55	verb	list	1	9	nomatch	vieux	-1	1	y	0.73046
536.2909000000001	0.2	petit	55	verb	list	1	10	nomatch	vieux	-1	1	y	0.73046
536.4908	0.0	+	55	verb	list	1	11	nomatch	vieux	-1	1	y	0.73046
536.8908	0.0	+	55	verb	list	1	12	nomatch	vieux	-1	1	y	0.73046
538.8907	0.0	VIEUX	55	verb	list	1	13	nomatch	vieux	-1	1	y	0.73046
539.6906	0.0	+	55	verb	list	1	14	nomatch	vieux	-1	1	y	0.73046
539.6211000000001	0.0	[response]	55	verb	list	1	15	nomatch	vieux	-1	1	y	0.73046
541.2905000000001	0.0	+	56	verb	phrase	4	1	nomatch	sur	-1	1	y	0.7870500000000001
541.8404	0.2	zmp	56	verb	phrase	4	2	nomatch	sur	-1	1	y	0.7870500000000001
542.0404	0.0	+	56	verb	phrase	4	3	nomatch	sur	-1	1	y	0.7870500000000001
542.4404000000001	0.2	jean	56	verb	phrase	4	4	nomatch	sur	-1	1	y	0.7870500000000001
542.6404	0.0	+	56	verb	phrase	4	5	nomatch	sur	-1	1	y	0.7870500000000001
543.0403	0.2	doit	56	verb	phrase	4	6	nomatch	sur	-1	1	y	0.7870500000000001
543.2403	0.0	+	56	verb	phrase	4	7	nomatch	sur	-1	1	y	0.7870500000000001
543.6403	0.2	parader	56	verb	phrase	4	8	nomatch	sur	-1	1	y	0.7870500000000001
543.8403000000001	0.0	+	56	verb	phrase	4	9	nomatch	sur	-1	1	y	0.7870500000000001
544.2402000000001	0.2	ainsi	56	verb	phrase	4	10	nomatch	sur	-1	1	y	0.7870500000000001
544.4402	0.0	+	56	verb	phrase	4	11	nomatch	sur	-1	1	y	0.7870500000000001
544.8402	0.0	+	56	verb	phrase	4	12	nomatch	sur	-1	1	y	0.7870500000000001
546.84	0.0	SUR	56	verb	phrase	4	13	nomatch	sur	-1	1	y	0.7870500000000001
547.69	0.0	+	56	verb	phrase	4	14	nomatch	sur	-1	1	y	0.7870500000000001
547.6271000000002	0.0	[response]	56	verb	phrase	4	15	nomatch	sur	-1	1	y	0.7870500000000001
565.2386	0.0	+	57	verb	list	1	1	nomatch	nager	-1	1	y	0.73647
565.7886	0.2	vrqwbxs	57	verb	list	1	2	nomatch	nager	-1	1	y	0.73647
565.9886	0.0	+	57	verb	list	1	3	nomatch	nager	-1	1	y	0.73647
566.3885	0.2	xhls	57	verb	list	1	4	nomatch	nager	-1	1	y	0.73647
566.5885000000001	0.0	+	57	verb	list	1	5	nomatch	nager	-1	1	y	0.73647
566.9885	0.2	xv	57	verb	list	1	6	nomatch	nager	-1	1	y	0.73647
567.1885	0.0	+	57	verb	list	1	7	nomatch	nager	-1	1	y	0.73647
567.5884	0.2	dpfz	57	verb	list	1	8	nomatch	nager	-1	1	y	0.73647
567.7884	0.0	+	57	verb	list	1	9	nomatch	nager	-1	1	y	0.73647
568.1884	0.2	patiner	57	verb	list	1	10	nomatch	nager	-1	1	y	0.73647
568.3884	0.0	+	57	verb	list	1	11	nomatch	nager	-1	1	y	0.73647
568.7884	0.0	+	57	verb	list	1	12	nomatch	nager	-1	1	y	0.73647
570.7882000000001	0.0	NAGER	57	verb	list	1	13	nomatch	nager	-1	1	y	0.73647
571.5881	0.0	+	57	verb	list	1	14	nomatch	nager	-1	1	y	0.73647
571.5247	0.0	[response]	57	verb	list	1	15	nomatch	nager	-1	1	y	0.73647
573.188	0.0	+	58	noun	phrase	1	1	nomatch	tablier	-1	1	y	0.58193
573.738	0.2	tdsrp	58	noun	phrase	1	2	nomatch	tablier	-1	1	y	0.58193
573.938	0.0	+	58	noun	phrase	1	3	nomatch	tablier	-1	1	y	0.58193
574.3379	0.2	mdrs	58	noun	phrase	1	4	nomatch	tablier	-1	1	y	0.58193
574.5379	0.0	+	58	noun	phrase	1	5	nomatch	tablier	-1	1	y	0.58193
574.9379	0.2	pjf	58	noun	phrase	1	6	nomatch	tablier	-1	1	y	0.58193
575.1379000000001	0.0	+	58	noun	phrase	1	7	nomatch	tablier	-1	1	y	0.58193
575.5378000000001	0.2	nzprw	58	noun	phrase	1	8	nomatch	tablier	-1	1	y	0.58193
575.7378	0.0	+	58	noun	phrase	1	9	nomatch	tablier	-1	1	y	0.58193
576.1378	0.2	voilier	58	noun	phrase	1	10	nomatch	tablier	-1	1	y	0.58193
576.3378	0.0	+	58	noun	phrase	1	11	nomatch	tablier	-1	1	y	0.58193
576.7377	0.0	+	58	noun	phrase	1	12	nomatch	tablier	-1	1	y	0.58193
578.7376	0.0	TABLIER	58	noun	phrase	1	13	nomatch	tablier	-1	1	y	0.58193
579.3875	0.0	+	58	noun	phrase	1	14	nomatch	tablier	-1	1	y	0.58193
579.3195000000002	0.0	[response]	58	noun	phrase	1	15	nomatch	tablier	-1	1	y	0.58193
581.1374000000001	0.0	+	59	verb	phrase	1	1	nomatch	mieux	-1	1	y	0.62551
581.6874	0.2	spfn	59	verb	phrase	1	2	nomatch	mieux	-1	1	y	0.62551
581.8873	0.0	+	59	verb	phrase	1	3	nomatch	mieux	-1	1	y	0.62551
582.2873000000001	0.2	zvkc	59	verb	phrase	1	4	nomatch	mieux	-1	1	y	0.62551
582.4873	0.0	+	59	verb	phrase	1	5	nomatch	mieux	-1	1	y	0.62551
582.8873	0.2	xv	59	verb	phrase	1	6	nomatch	mieux	-1	1	y	0.62551
583.0873	0.0	+	59	verb	phrase	1	7	nomatch	mieux	-1	1	y	0.62551
583.4872	0.2	rnxhwcm	59	verb	phrase	1	8	nomatch	mieux	-1	1	y	0.62551
583.6872000000001	0.0	+	59	verb	phrase	1	9	nomatch	mieux	-1	1	y	0.62551
584.0872	0.2	moins	59	verb	phrase	1	10	nomatch	mieux	-1	1	y	0.62551
584.2872	0.0	+	59	verb	phrase	1	11	nomatch	mieux	-1	1	y	0.62551
584.6871	0.0	+	59	verb	phrase	1	12	nomatch	mieux	-1	1	y	0.62551
586.687	0.0	MIEUX	59	verb	phrase	1	13	nomatch	mieux	-1	1	y	0.62551
587.3703	0.0	+	59	verb	phrase	1	14	nomatch	mieux	-1	1	y	0.62551
587.3125	0.0	[response]	59	verb	phrase	1	15	nomatch	mieux	-1	1	y	0.62551
597.0862000000001	0.0	+	60	verb	phrase	4	1	nomatch	va	-1	1	y	0.93695
597.6361	0.2	chvp	60	verb	phrase	4	2	nomatch	va	-1	1	y	0.93695
597.8361	0.0	+	60	verb	phrase	4	3	nomatch	va	-1	1	y	0.93695
598.2361000000001	0.2	adam	60	verb	phrase	4	4	nomatch	va	-1	1	y	0.93695
598.4361	0.0	+	60	verb	phrase	4	5	nomatch	va	-1	1	y	0.93695
598.836	0.2	doit	60	verb	phrase	4	6	nomatch	va	-1	1	y	0.93695
599.0360000000001	0.0	+	60	verb	phrase	4	7	nomatch	va	-1	1	y	0.93695
599.436	0.2	patiner	60	verb	phrase	4	8	nomatch	va	-1	1	y	0.93695
599.6360000000001	0.0	+	60	verb	phrase	4	9	nomatch	va	-1	1	y	0.93695
600.0359	0.2	tôt	60	verb	phrase	4	10	nomatch	va	-1	1	y	0.93695
600.2359	0.0	+	60	verb	phrase	4	11	nomatch	va	-1	1	y	0.93695
600.6359	0.0	+	60	verb	phrase	4	12	nomatch	va	-1	1	y	0.93695
602.6357	0.0	VA	60	verb	phrase	4	13	nomatch	va	-1	1	y	0.93695
603.6357	0.0	+	60	verb	phrase	4	14	nomatch	va	-1	1	y	0.93695
603.5727	0.0	[response]	60	verb	phrase	4	15	nomatch	va	-1	1	y	0.93695
605.0356	0.0	+	61	verb	list	1	1	nomatch	rouler	-1	1	y	0.76949
605.5855	0.2	nvb	61	verb	list	1	2	nomatch	rouler	-1	1	y	0.76949
605.7855000000001	0.0	+	61	verb	list	1	3	nomatch	rouler	-1	1	y	0.76949
606.1855	0.2	hmzf	61	verb	list	1	4	nomatch	rouler	-1	1	y	0.76949
606.3855	0.0	+	61	verb	list	1	5	nomatch	rouler	-1	1	y	0.76949
606.7854	0.2	vzq	61	verb	list	1	6	nomatch	rouler	-1	1	y	0.76949
606.9854	0.0	+	61	verb	list	1	7	nomatch	rouler	-1	1	y	0.76949
607.3854	0.2	xlgc	61	verb	list	1	8	nomatch	rouler	-1	1	y	0.76949
607.5854	0.0	+	61	verb	list	1	9	nomatch	rouler	-1	1	y	0.76949
607.9853	0.2	galoper	61	verb	list	1	10	nomatch	rouler	-1	1	y	0.76949
608.1853	0.0	+	61	verb	list	1	11	nomatch	rouler	-1	1	y	0.76949
608.5853000000001	0.0	+	61	verb	list	1	12	nomatch	rouler	-1	1	y	0.76949
610.5851	0.0	ROULER	61	verb	list	1	13	nomatch	rouler	-1	1	y	0.76949
611.4184	0.0	+	61	verb	list	1	14	nomatch	rouler	-1	1	y	0.76949
611.3546	0.0	[response]	61	verb	list	1	15	nomatch	rouler	-1	1	y	0.76949
612.9849	0.0	+	62	noun	list	2	1	nomatch	vite	-1	1	y	0.67722
613.5349	0.2	zwlh	62	noun	list	2	2	nomatch	vite	-1	1	y	0.67722
613.7349	0.0	+	62	noun	list	2	3	nomatch	vite	-1	1	y	0.67722
614.1349	0.2	gscb	62	noun	list	2	4	nomatch	vite	-1	1	y	0.67722
614.3349000000001	0.0	+	62	noun	list	2	5	nomatch	vite	-1	1	y	0.67722
614.7349	0.2	zmpt	62	noun	list	2	6	nomatch	vite	-1	1	y	0.67722
614.9348	0.0	+	62	noun	list	2	7	nomatch	vite	-1	1	y	0.67722
615.3514	0.2	rocher	62	noun	list	2	8	nomatch	vite	-1	1	y	0.67722
615.5348	0.0	+	62	noun	list	2	9	nomatch	vite	-1	1	y	0.67722
615.9514	0.2	loin	62	noun	list	2	10	nomatch	vite	-1	1	y	0.67722
616.1514000000001	0.0	+	62	noun	list	2	11	nomatch	vite	-1	1	y	0.67722
616.5513	0.0	+	62	noun	list	2	12	nomatch	vite	-1	1	y	0.67722
618.5512	0.0	VITE	62	noun	list	2	13	nomatch	vite	-1	1	y	0.67722
619.2845	0.0	+	62	noun	list	2	14	nomatch	vite	-1	1	y	0.67722
619.2284000000001	0.0	[response]	62	noun	list	2	15	nomatch	vite	-1	1	y	0.67722
620.951	0.0	+	63	noun	list	4	1	match	luc	2	1	p	0.55196
621.501	0.2	flr	63	noun	list	4	2	match	luc	2	1	p	0.55196
621.7009	0.0	+	63	noun	list	4	3	match	luc	2	1	p	0.55196
622.1021000000001	0.2	luc	63	noun	list	4	4	match	luc	2	1	p	0.55196
622.3009000000001	0.0	+	63	noun	list	4	5	match	luc	2	1	p	0.55196
622.7009	0.2	son	63	noun	list	4	6	match	luc	2	1	p	0.55196
622.9009	0.0	+	63	noun	list	4	7	match	luc	2	1	p	0.55196
623.3008	0.2	mieux	63	noun	list	4	8	match	luc	2	1	p	0.55196
623.5008	0.0	+	63	noun	list	4	9	match	luc	2	1	p	0.55196
623.9008	0.2	clavier	63	noun	list	4	10	match	luc	2	1	p	0.55196
624.1008	0.0	+	63	noun	list	4	11	match	luc	2	1	p	0.55196
624.5007	0.0	+	63	noun	list	4	12	match	luc	2	1	p	0.55196
626.5006000000001	0.0	LUC	63	noun	list	4	13	match	luc	2	1	p	0.55196
627.1172	0.0	+	63	noun	list	4	14	match	luc	2	1	p	0.55196
627.0525	0.0	[response]	63	noun	list	4	15	match	luc	2	1	p	0.55196
628.9004	0.0	+	64	verb	list	3	1	nomatch	jade	-1	1	y	0.63058
629.4504000000001	0.2	pdwzlh	64	verb	list	3	2	nomatch	jade	-1	1	y	0.63058
629.6503	0.0	+	64	verb	list	3	3	nomatch	jade	-1	1	y	0.63058
630.0503	0.2	zvkc	64	verb	list	3	4	nomatch	jade	-1	1	y	0.63058
630.2503	0.0	+	64	verb	list	3	5	nomatch	jade	-1	1	y	0.63058
630.6503	0.2	leur	64	verb	list	3	6	nomatch	jade	-1	1	y	0.63058
630.8502	0.0	+	64	verb	list	3	7	nomatch	jade	-1	1	y	0.63058
631.2502000000001	0.2	chasser	64	verb	list	3	8	nomatch	jade	-1	1	y	0.63058
631.4502	0.0	+	64	verb	list	3	9	nomatch	jade	-1	1	y	0.63058
631.8502	0.2	bleu	64	verb	list	3	10	nomatch	jade	-1	1	y	0.63058
632.0502	0.0	+	64	verb	list	3	11	nomatch	jade	-1	1	y	0.63058
632.4501	0.0	+	64	verb	list	3	12	nomatch	jade	-1	1	y	0.63058
634.45	0.0	JADE	64	verb	list	3	13	nomatch	jade	-1	1	y	0.63058
635.1499	0.0	+	64	verb	list	3	14	nomatch	jade	-1	1	y	0.63058
635.0805	0.0	[response]	64	verb	list	3	15	nomatch	jade	-1	1	y	0.63058
636.8498000000001	0.0	+	65	verb	list	2	1	match	grand	4	1	p	0.6112
637.3997	0.2	dlpk	65	verb	list	2	2	match	grand	4	1	p	0.6112
637.5997	0.0	+	65	verb	list	2	3	match	grand	4	1	p	0.6112
637.9997000000001	0.2	xhls	65	verb	list	2	4	match	grand	4	1	p	0.6112
638.1997	0.0	+	65	verb	list	2	5	match	grand	4	1	p	0.6112
638.5997	0.2	xv	65	verb	list	2	6	match	grand	4	1	p	0.6112
638.7996	0.0	+	65	verb	list	2	7	match	grand	4	1	p	0.6112
639.1996	0.2	grand	65	verb	list	2	8	match	grand	4	1	p	0.6112
639.3996000000001	0.0	+	65	verb	list	2	9	match	grand	4	1	p	0.6112
639.7996	0.2	rouler	65	verb	list	2	10	match	grand	4	1	p	0.6112
639.9995	0.0	+	65	verb	list	2	11	match	grand	4	1	p	0.6112
640.3995	0.0	+	65	verb	list	2	12	match	grand	4	1	p	0.6112
642.3994	0.0	GRAND	65	verb	list	2	13	match	grand	4	1	p	0.6112
643.066	0.0	+	65	verb	list	2	14	match	grand	4	1	p	0.6112
643.0106000000001	0.0	[response]	65	verb	list	2	15	match	grand	4	1	p	0.6112
644.7992	0.0	+	66	verb	phrase	1	1	match	parader	5	1	p	0.6854200000000001
645.3491	0.2	nbm	66	verb	phrase	1	2	match	parader	5	1	p	0.6854200000000001
645.5491000000001	0.0	+	66	verb	phrase	1	3	match	parader	5	1	p	0.6854200000000001
645.9491	0.2	jgvm	66	verb	phrase	1	4	match	parader	5	1	p	0.6854200000000001
646.1491	0.0	+	66	verb	phrase	1	5	match	parader	5	1	p	0.6854200000000001
646.549	0.2	zmpt	66	verb	phrase	1	6	match	parader	5	1	p	0.6854200000000001
646.749	0.0	+	66	verb	phrase	1	7	match	parader	5	1	p	0.6854200000000001
647.149	0.2	wfcrtlhv	66	verb	phrase	1	8	match	parader	5	1	p	0.6854200000000001
647.349	0.0	+	66	verb	phrase	1	9	match	parader	5	1	p	0.6854200000000001
647.7489	0.2	parader	66	verb	phrase	1	10	match	parader	5	1	p	0.6854200000000001
647.9489	0.0	+	66	verb	phrase	1	11	match	parader	5	1	p	0.6854200000000001
648.3489000000001	0.0	+	66	verb	phrase	1	12	match	parader	5	1	p	0.6854200000000001
650.3487	0.0	PARADER	66	verb	phrase	1	13	match	parader	5	1	p	0.6854200000000001
651.0987	0.0	+	66	verb	phrase	1	14	match	parader	5	1	p	0.6854200000000001
651.0342	0.0	[response]	66	verb	phrase	1	15	match	parader	5	1	p	0.6854200000000001
652.7485	0.0	+	67	verb	phrase	2	1	match	voyager	5	1	p	0.73615
653.2985	0.2	khqfpr	67	verb	phrase	2	2	match	voyager	5	1	p	0.73615
653.4985	0.0	+	67	verb	phrase	2	3	match	voyager	5	1	p	0.73615
653.8985	0.2	kvgl	67	verb	phrase	2	4	match	voyager	5	1	p	0.73615
654.0985000000001	0.0	+	67	verb	phrase	2	5	match	voyager	5	1	p	0.73615
654.4984000000001	0.2	gxvf	67	verb	phrase	2	6	match	voyager	5	1	p	0.73615
654.6984	0.0	+	67	verb	phrase	2	7	match	voyager	5	1	p	0.73615
655.0984	0.2	moins	67	verb	phrase	2	8	match	voyager	5	1	p	0.73615
655.2984	0.0	+	67	verb	phrase	2	9	match	voyager	5	1	p	0.73615
655.6983	0.2	voyager	67	verb	phrase	2	10	match	voyager	5	1	p	0.73615
655.8983000000001	0.0	+	67	verb	phrase	2	11	match	voyager	5	1	p	0.73615
656.2983	0.0	+	67	verb	phrase	2	12	match	voyager	5	1	p	0.73615
658.2981	0.0	VOYAGER	67	verb	phrase	2	13	match	voyager	5	1	p	0.73615
659.0981	0.0	+	67	verb	phrase	2	14	match	voyager	5	1	p	0.73615
659.0343	0.0	[response]	67	verb	phrase	2	15	match	voyager	5	1	p	0.73615
660.6979	0.0	+	68	noun	list	4	1	nomatch	peut	-1	1	y	0.87333
661.2479000000001	0.2	jlxcrg	68	noun	list	4	2	nomatch	peut	-1	1	y	0.87333
661.4479	0.0	+	68	noun	list	4	3	nomatch	peut	-1	1	y	0.87333
661.8479	0.2	jade	68	noun	list	4	4	nomatch	peut	-1	1	y	0.87333
662.0478	0.0	+	68	noun	list	4	5	nomatch	peut	-1	1	y	0.87333
662.4478	0.2	son	68	noun	list	4	6	nomatch	peut	-1	1	y	0.87333
662.6478000000001	0.0	+	68	noun	list	4	7	nomatch	peut	-1	1	y	0.87333
663.0478	0.2	plus	68	noun	list	4	8	nomatch	peut	-1	1	y	0.87333
663.2477	0.0	+	68	noun	list	4	9	nomatch	peut	-1	1	y	0.87333
663.6481	0.2	boîtier	68	noun	list	4	10	nomatch	peut	-1	1	y	0.87333
663.8477	0.0	+	68	noun	list	4	11	nomatch	peut	-1	1	y	0.87333
664.2477	0.0	+	68	noun	list	4	12	nomatch	peut	-1	1	y	0.87333
666.2475000000001	0.0	PEUT	68	noun	list	4	13	nomatch	peut	-1	1	y	0.87333
667.1808	0.0	+	68	noun	list	4	14	nomatch	peut	-1	1	y	0.87333
667.1209	0.0	[response]	68	noun	list	4	15	nomatch	peut	-1	1	y	0.87333
668.6473	0.0	+	69	verb	list	2	1	match	voyager	5	1	p	0.6854200000000001
669.1973	0.2	dqgncm	69	verb	list	2	2	match	voyager	5	1	p	0.6854200000000001
669.3973	0.0	+	69	verb	list	2	3	match	voyager	5	1	p	0.6854200000000001
669.7972	0.2	xlb	69	verb	list	2	4	match	voyager	5	1	p	0.6854200000000001
669.9972	0.0	+	69	verb	list	2	5	match	voyager	5	1	p	0.6854200000000001
670.3972	0.2	gxvf	69	verb	list	2	6	match	voyager	5	1	p	0.6854200000000001
670.5972	0.0	+	69	verb	list	2	7	match	voyager	5	1	p	0.6854200000000001
670.9972	0.2	petit	69	verb	list	2	8	match	voyager	5	1	p	0.6854200000000001
671.1971	0.0	+	69	verb	list	2	9	match	voyager	5	1	p	0.6854200000000001
671.5971000000001	0.2	voyager	69	verb	list	2	10	match	voyager	5	1	p	0.6854200000000001
671.7971	0.0	+	69	verb	list	2	11	match	voyager	5	1	p	0.6854200000000001
672.1971	0.0	+	69	verb	list	2	12	match	voyager	5	1	p	0.6854200000000001
674.1969	0.0	VOYAGER	69	verb	list	2	13	match	voyager	5	1	p	0.6854200000000001
674.9468	0.0	+	69	verb	list	2	14	match	voyager	5	1	p	0.6854200000000001
674.8823	0.0	[response]	69	verb	list	2	15	match	voyager	5	1	p	0.6854200000000001
676.5967	0.0	+	70	verb	list	3	1	nomatch	leur	-1	1	y	0.78186
677.1467	0.2	lnrz	70	verb	list	3	2	nomatch	leur	-1	1	y	0.78186
677.3467	0.0	+	70	verb	list	3	3	nomatch	leur	-1	1	y	0.78186
677.7466000000001	0.2	jgvm	70	verb	list	3	4	nomatch	leur	-1	1	y	0.78186
677.9466	0.0	+	70	verb	list	3	5	nomatch	leur	-1	1	y	0.78186
678.3466000000001	0.2	mon	70	verb	list	3	6	nomatch	leur	-1	1	y	0.78186
678.5466	0.0	+	70	verb	list	3	7	nomatch	leur	-1	1	y	0.78186
678.9465	0.2	patiner	70	verb	list	3	8	nomatch	leur	-1	1	y	0.78186
679.1465000000001	0.0	+	70	verb	list	3	9	nomatch	leur	-1	1	y	0.78186
679.5465	0.2	rouge	70	verb	list	3	10	nomatch	leur	-1	1	y	0.78186
679.7465	0.0	+	70	verb	list	3	11	nomatch	leur	-1	1	y	0.78186
680.1464	0.0	+	70	verb	list	3	12	nomatch	leur	-1	1	y	0.78186
682.1463	0.0	LEUR	70	verb	list	3	13	nomatch	leur	-1	1	y	0.78186
682.9962	0.0	+	70	verb	list	3	14	nomatch	leur	-1	1	y	0.78186
682.9282000000001	0.0	[response]	70	verb	list	3	15	nomatch	leur	-1	1	y	0.78186
684.5461	0.0	+	71	verb	phrase	4	1	match	nager	4	1	p	0.74412
685.0961	0.2	hgs	71	verb	phrase	4	2	match	nager	4	1	p	0.74412
685.296	0.0	+	71	verb	phrase	4	3	match	nager	4	1	p	0.74412
685.696	0.2	luc	71	verb	phrase	4	4	match	nager	4	1	p	0.74412
685.8960000000001	0.0	+	71	verb	phrase	4	5	match	nager	4	1	p	0.74412
686.296	0.2	peut	71	verb	phrase	4	6	match	nager	4	1	p	0.74412
686.496	0.0	+	71	verb	phrase	4	7	match	nager	4	1	p	0.74412
686.8959	0.2	nager	71	verb	phrase	4	8	match	nager	4	1	p	0.74412
687.0959	0.0	+	71	verb	phrase	4	9	match	nager	4	1	p	0.74412
687.4959	0.2	loin	71	verb	phrase	4	10	match	nager	4	1	p	0.74412
687.6959	0.0	+	71	verb	phrase	4	11	match	nager	4	1	p	0.74412
688.0958	0.0	+	71	verb	phrase	4	12	match	nager	4	1	p	0.74412
690.0957000000001	0.0	NAGER	71	verb	phrase	4	13	match	nager	4	1	p	0.74412
690.8956000000001	0.0	+	71	verb	phrase	4	14	match	nager	4	1	p	0.74412
690.8398	0.0	[response]	71	verb	phrase	4	15	match	nager	4	1	p	0.74412
692.4955	0.0	+	72	verb	list	4	1	match	son	3	1	p	0.89664
693.0455000000001	0.2	frpzcx	72	verb	list	4	2	match	son	3	1	p	0.89664
693.2454	0.0	+	72	verb	list	4	3	match	son	3	1	p	0.89664
693.6454	0.2	jean	72	verb	list	4	4	match	son	3	1	p	0.89664
693.8454	0.0	+	72	verb	list	4	5	match	son	3	1	p	0.89664
694.2454	0.2	son	72	verb	list	4	6	match	son	3	1	p	0.89664
694.4453	0.0	+	72	verb	list	4	7	match	son	3	1	p	0.89664
694.8453000000001	0.2	patiner	72	verb	list	4	8	match	son	3	1	p	0.89664
695.0453	0.0	+	72	verb	list	4	9	match	son	3	1	p	0.89664
695.4453	0.2	rouge	72	verb	list	4	10	match	son	3	1	p	0.89664
695.6453	0.0	+	72	verb	list	4	11	match	son	3	1	p	0.89664
696.0452	0.0	+	72	verb	list	4	12	match	son	3	1	p	0.89664
698.0451	0.0	SON	72	verb	list	4	13	match	son	3	1	p	0.89664
699.0117	0.0	+	72	verb	list	4	14	match	son	3	1	p	0.89664
698.9417	0.0	[response]	72	verb	list	4	15	match	son	3	1	p	0.89664
700.4449000000001	0.0	+	73	verb	phrase	3	1	match	chasser	4	1	p	0.7175
700.9948	0.2	kql	73	verb	phrase	3	2	match	chasser	4	1	p	0.7175
701.1948	0.0	+	73	verb	phrase	3	3	match	chasser	4	1	p	0.7175
701.5948000000001	0.2	kvgl	73	verb	phrase	3	4	match	chasser	4	1	p	0.7175
701.7948	0.0	+	73	verb	phrase	3	5	match	chasser	4	1	p	0.7175
702.1948	0.2	peut	73	verb	phrase	3	6	match	chasser	4	1	p	0.7175
702.3947000000001	0.0	+	73	verb	phrase	3	7	match	chasser	4	1	p	0.7175
702.7947	0.2	chasser	73	verb	phrase	3	8	match	chasser	4	1	p	0.7175
702.9947000000001	0.0	+	73	verb	phrase	3	9	match	chasser	4	1	p	0.7175
703.3947000000001	0.2	ainsi	73	verb	phrase	3	10	match	chasser	4	1	p	0.7175
703.5946	0.0	+	73	verb	phrase	3	11	match	chasser	4	1	p	0.7175
703.9946	0.0	+	73	verb	phrase	3	12	match	chasser	4	1	p	0.7175
705.9945	0.0	CHASSER	73	verb	phrase	3	13	match	chasser	4	1	p	0.7175
706.7777	0.0	+	73	verb	phrase	3	14	match	chasser	4	1	p	0.7175
706.712	0.0	[response]	73	verb	phrase	3	15	match	chasser	4	1	p	0.7175
708.3943	0.0	+	74	verb	list	4	1	match	leur	3	1	p	0.74023
708.9442	0.2	rqmpftg	74	verb	list	4	2	match	leur	3	1	p	0.74023
709.1442000000001	0.0	+	74	verb	list	4	3	match	leur	3	1	p	0.74023
709.5442	0.2	paul	74	verb	list	4	4	match	leur	3	1	p	0.74023
709.7442	0.0	+	74	verb	list	4	5	match	leur	3	1	p	0.74023
710.1441	0.2	leur	74	verb	list	4	6	match	leur	3	1	p	0.74023
710.3441	0.0	+	74	verb	list	4	7	match	leur	3	1	p	0.74023
710.7441	0.2	nager	74	verb	list	4	8	match	leur	3	1	p	0.74023
710.9441	0.0	+	74	verb	list	4	9	match	leur	3	1	p	0.74023
711.344	0.2	noir	74	verb	list	4	10	match	leur	3	1	p	0.74023
711.544	0.0	+	74	verb	list	4	11	match	leur	3	1	p	0.74023
711.9440000000001	0.0	+	74	verb	list	4	12	match	leur	3	1	p	0.74023
713.9438	0.0	LEUR	74	verb	list	4	13	match	leur	3	1	p	0.74023
714.7438000000001	0.0	+	74	verb	list	4	14	match	leur	3	1	p	0.74023
714.6841000000001	0.0	[response]	74	verb	list	4	15	match	leur	3	1	p	0.74023
716.3437	0.0	+	75	verb	phrase	2	1	nomatch	tard	-1	1	y	0.68647
716.8936	0.2	rqtdszl	75	verb	phrase	2	2	nomatch	tard	-1	1	y	0.68647
717.0936	0.0	+	75	verb	phrase	2	3	nomatch	tard	-1	1	y	0.68647
717.4936	0.2	hmzf	75	verb	phrase	2	4	nomatch	tard	-1	1	y	0.68647
717.6936000000001	0.0	+	75	verb	phrase	2	5	nomatch	tard	-1	1	y	0.68647
718.0935000000001	0.2	zmpt	75	verb	phrase	2	6	nomatch	tard	-1	1	y	0.68647
718.2935	0.0	+	75	verb	phrase	2	7	nomatch	tard	-1	1	y	0.68647
718.6935	0.2	patiner	75	verb	phrase	2	8	nomatch	tard	-1	1	y	0.68647
718.8935	0.0	+	75	verb	phrase	2	9	nomatch	tard	-1	1	y	0.68647
719.2934	0.2	loin	75	verb	phrase	2	10	nomatch	tard	-1	1	y	0.68647
719.4934000000001	0.0	+	75	verb	phrase	2	11	nomatch	tard	-1	1	y	0.68647
719.8934	0.0	+	75	verb	phrase	2	12	nomatch	tard	-1	1	y	0.68647
721.8932	0.0	TARD	75	verb	phrase	2	13	nomatch	tard	-1	1	y	0.68647
722.6432	0.0	+	75	verb	phrase	2	14	nomatch	tard	-1	1	y	0.68647
722.5797	0.0	[response]	75	verb	phrase	2	15	nomatch	tard	-1	1	y	0.68647
724.293	0.0	+	76	noun	phrase	3	1	nomatch	voilier	-1	1	y	0.71481
724.8430000000001	0.2	zgfnjv	76	noun	phrase	3	2	nomatch	voilier	-1	1	y	0.71481
725.043	0.0	+	76	noun	phrase	3	3	nomatch	voilier	-1	1	y	0.71481
725.443	0.2	mdrs	76	noun	phrase	3	4	nomatch	voilier	-1	1	y	0.71481
725.6429	0.0	+	76	noun	phrase	3	5	nomatch	voilier	-1	1	y	0.71481
726.0429	0.2	leur	76	noun	phrase	3	6	nomatch	voilier	-1	1	y	0.71481
726.2429000000001	0.0	+	76	noun	phrase	3	7	nomatch	voilier	-1	1	y	0.71481
726.6429	0.2	petit	76	noun	phrase	3	8	nomatch	voilier	-1	1	y	0.71481
726.8429	0.0	+	76	noun	phrase	3	9	nomatch	voilier	-1	1	y	0.71481
727.2428	0.2	tablier	76	noun	phrase	3	10	nomatch	voilier	-1	1	y	0.71481
727.4428	0.0	+	76	noun	phrase	3	11	nomatch	voilier	-1	1	y	0.71481
727.8428	0.0	+	76	noun	phrase	3	12	nomatch	voilier	-1	1	y	0.71481
729.8426000000001	0.0	VOILIER	76	noun	phrase	3	13	nomatch	voilier	-1	1	y	0.71481
730.6259	0.0	+	76	noun	phrase	3	14	nomatch	voilier	-1	1	y	0.71481
730.5574	0.0	[response]	76	noun	phrase	3	15	nomatch	voilier	-1	1	y	0.71481
732.2424	0.0	+	77	verb	list	3	1	match	parader	4	1	p	0.70153
732.7924	0.2	pfz	77	verb	list	3	2	match	parader	4	1	p	0.70153
732.9924	0.0	+	77	verb	list	3	3	match	parader	4	1	p	0.70153
733.3924000000001	0.2	kvgl	77	verb	list	3	4	match	parader	4	1	p	0.70153
733.5923	0.0	+	77	verb	list	3	5	match	parader	4	1	p	0.70153
733.9923	0.2	son	77	verb	list	3	6	match	parader	4	1	p	0.70153
734.1923	0.0	+	77	verb	list	3	7	match	parader	4	1	p	0.70153
734.5923	0.2	parader	77	verb	list	3	8	match	parader	4	1	p	0.70153
734.7922	0.0	+	77	verb	list	3	9	match	parader	4	1	p	0.70153
735.1922000000001	0.2	bleu	77	verb	list	3	10	match	parader	4	1	p	0.70153
735.3922	0.0	+	77	verb	list	3	11	match	parader	4	1	p	0.70153
735.7922	0.0	+	77	verb	list	3	12	match	parader	4	1	p	0.70153
737.792	0.0	PARADER	77	verb	list	3	13	match	parader	4	1	p	0.70153
738.5586000000001	0.0	+	77	verb	list	3	14	match	parader	4	1	p	0.70153
738.4935	0.0	[response]	77	verb	list	3	15	match	parader	4	1	p	0.70153
740.1918000000001	0.0	+	78	noun	list	4	1	match	adam	2	1	p	0.83438
740.7418	0.2	qrgzp	78	noun	list	4	2	match	adam	2	1	p	0.83438
740.9418000000001	0.0	+	78	noun	list	4	3	match	adam	2	1	p	0.83438
741.3417000000001	0.2	adam	78	noun	list	4	4	match	adam	2	1	p	0.83438
741.5417	0.0	+	78	noun	list	4	5	match	adam	2	1	p	0.83438
741.9417	0.2	leur	78	noun	list	4	6	match	adam	2	1	p	0.83438
742.1417	0.0	+	78	noun	list	4	7	match	adam	2	1	p	0.83438
742.5416	0.2	beaucoup	78	noun	list	4	8	match	adam	2	1	p	0.83438
742.7416000000001	0.0	+	78	noun	list	4	9	match	adam	2	1	p	0.83438
743.1416	0.2	grenier	78	noun	list	4	10	match	adam	2	1	p	0.83438
743.3416	0.0	+	78	noun	list	4	11	match	adam	2	1	p	0.83438
743.7416000000001	0.0	+	78	noun	list	4	12	match	adam	2	1	p	0.83438
745.7414	0.0	ADAM	78	noun	list	4	13	match	adam	2	1	p	0.83438
746.6413	0.0	+	78	noun	list	4	14	match	adam	2	1	p	0.83438
746.5758000000001	0.0	[response]	78	noun	list	4	15	match	adam	2	1	p	0.83438
748.1412	0.0	+	79	verb	phrase	4	1	nomatch	mon	-1	1	y	0.83208
748.6912	0.2	rwp	79	verb	phrase	4	2	nomatch	mon	-1	1	y	0.83208
748.8912	0.0	+	79	verb	phrase	4	3	nomatch	mon	-1	1	y	0.83208
749.2911	0.2	paul	79	verb	phrase	4	4	nomatch	mon	-1	1	y	0.83208
749.4911000000001	0.0	+	79	verb	phrase	4	5	nomatch	mon	-1	1	y	0.83208
749.8911	0.2	peut	79	verb	phrase	4	6	nomatch	mon	-1	1	y	0.83208
750.0911	0.0	+	79	verb	phrase	4	7	nomatch	mon	-1	1	y	0.83208
750.491	0.2	moins	79	verb	phrase	4	8	nomatch	mon	-1	1	y	0.83208
750.691	0.0	+	79	verb	phrase	4	9	nomatch	mon	-1	1	y	0.83208
751.0911	0.2	parader	79	verb	phrase	4	10	nomatch	mon	-1	1	y	0.83208
751.291	0.0	+	79	verb	phrase	4	11	nomatch	mon	-1	1	y	0.83208
751.6909	0.0	+	79	verb	phrase	4	12	nomatch	mon	-1	1	y	0.83208
753.6908	0.0	MON	79	verb	phrase	4	13	nomatch	mon	-1	1	y	0.83208
754.5907	0.0	+	79	verb	phrase	4	14	nomatch	mon	-1	1	y	0.83208
754.5229	0.0	[response]	79	verb	phrase	4	15	nomatch	mon	-1	1	y	0.83208
756.0906	0.0	+	80	verb	list	1	1	match	voyager	5	1	p	0.48519
756.6406000000001	0.2	kpdztj	80	verb	list	1	2	match	voyager	5	1	p	0.48519
756.8405	0.0	+	80	verb	list	1	3	match	voyager	5	1	p	0.48519
757.2405	0.2	xlb	80	verb	list	1	4	match	voyager	5	1	p	0.48519
757.4405	0.0	+	80	verb	list	1	5	match	voyager	5	1	p	0.48519
757.8405	0.2	gxvf	80	verb	list	1	6	match	voyager	5	1	p	0.48519
758.0405000000001	0.0	+	80	verb	list	1	7	match	voyager	5	1	p	0.48519
758.4404000000001	0.2	sxfrc	80	verb	list	1	8	match	voyager	5	1	p	0.48519
758.6404	0.0	+	80	verb	list	1	9	match	voyager	5	1	p	0.48519
759.0404	0.2	voyager	80	verb	list	1	10	match	voyager	5	1	p	0.48519
759.2404	0.0	+	80	verb	list	1	11	match	voyager	5	1	p	0.48519
759.6403	0.0	+	80	verb	list	1	12	match	voyager	5	1	p	0.48519
761.6402	0.0	VOYAGER	80	verb	list	1	13	match	voyager	5	1	p	0.48519
762.1901	0.0	+	80	verb	list	1	14	match	voyager	5	1	p	0.48519
764.0400000000001	0.0	+	80	verb	list	1	15	match	voyager	5	1	p	0.48519
765.0232	0.0	+	80	verb	list	1	16	match	voyager	5	1	p	0.48519
765.1232	0.0	+	80	verb	list	1	17	match	voyager	5	1	p	0.48519
766.5231	0.0	+	80	verb	list	1	18	match	voyager	5	1	p	0.48519
766.6231	0.0	+	80	verb	list	1	19	match	voyager	5	1	p	0.48519
768.0063	0.0	+	80	verb	list	1	20	match	voyager	5	1	p	0.48519
768.1063	0.0	+	80	verb	list	1	21	match	voyager	5	1	p	0.48519
769.5229	0.0	+	80	verb	list	1	22	match	voyager	5	1	p	0.48519
769.6229000000001	0.0	+	80	verb	list	1	23	match	voyager	5	1	p	0.48519
771.0061000000001	0.0	+	80	verb	list	1	24	match	voyager	5	1	p	0.48519
771.1061	0.0	+	80	verb	list	1	25	match	voyager	5	1	p	0.48519
772.5227	0.0	+	80	verb	list	1	26	match	voyager	5	1	p	0.48519
772.6227	0.0	+	80	verb	list	1	27	match	voyager	5	1	p	0.48519
774.0059	0.0	+	80	verb	list	1	28	match	voyager	5	1	p	0.48519
774.1059	0.0	+	80	verb	list	1	29	match	voyager	5	1	p	0.48519
775.5224000000001	0.0	+	80	verb	list	1	30	match	voyager	5	1	p	0.48519
775.6224	0.0	+	80	verb	list	1	31	match	voyager	5	1	p	0.48519
777.0057	0.0	+	80	verb	list	1	32	match	voyager	5	1	p	0.48519
777.1057000000001	0.0	+	80	verb	list	1	33	match	voyager	5	1	p	0.48519
778.5222	0.0	+	80	verb	list	1	34	match	voyager	5	1	p	0.48519
778.6222	0.0	+	80	verb	list	1	35	match	voyager	5	1	p	0.48519
783.6051	0.0	+	80	verb	list	1	36	match	voyager	5	1	p	0.48519
762.1254	0.0	[response]	80	verb	list	1	37	match	voyager	5	1	p	0.48519
