onset	duration	stim	trial_number	trial_type	trial_structure	trial_length	sequential_position	probe_type	probe	probe_position	response_correct	response_key	response_time
0.06090000000000373	0.0	+	1	noun	phrase	4	1	match	leur	3	1	p	1.4552
0.5452999999999975	0.2	dsmgp	1	noun	phrase	4	2	match	leur	3	1	p	1.4552
0.7441000000000031	0.0	+	1	noun	phrase	4	3	match	leur	3	1	p	1.4552
1.1441000000000088	0.2	sans	1	noun	phrase	4	4	match	leur	3	1	p	1.4552
1.3440999999999974	0.0	+	1	noun	phrase	4	5	match	leur	3	1	p	1.4552
1.744100000000003	0.2	leur	1	noun	phrase	4	6	match	leur	3	1	p	1.4552
1.9440000000000026	0.0	+	1	noun	phrase	4	7	match	leur	3	1	p	1.4552
2.3440000000000083	0.2	grand	1	noun	phrase	4	8	match	leur	3	1	p	1.4552
2.543999999999997	0.0	+	1	noun	phrase	4	9	match	leur	3	1	p	1.4552
2.9440000000000026	0.2	cendrier	1	noun	phrase	4	10	match	leur	3	1	p	1.4552
3.1440000000000055	0.0	+	1	noun	phrase	4	11	match	leur	3	1	p	1.4552
3.543900000000008	0.0	+	1	noun	phrase	4	12	match	leur	3	1	p	1.4552
5.5438000000000045	0.0	LEUR	1	noun	phrase	4	13	match	leur	3	1	p	1.4552
7.060299999999998	0.0	+	1	noun	phrase	4	14	match	leur	3	1	p	1.4552
6.999000000000009	0.0	[response]	1	noun	phrase	4	15	match	leur	3	1	p	1.4552
7.9436000000000035	0.0	+	2	noun	phrase	4	1	nomatch	va	-1	1	y	0.68459
8.493499999999997	0.2	dfcbs	2	noun	phrase	4	2	nomatch	va	-1	1	y	0.68459
8.6935	0.0	+	2	noun	phrase	4	3	nomatch	va	-1	1	y	0.68459
9.093500000000006	0.2	dans	2	noun	phrase	4	4	nomatch	va	-1	1	y	0.68459
9.293500000000009	0.0	+	2	noun	phrase	4	5	nomatch	va	-1	1	y	0.68459
9.6935	0.2	mon	2	noun	phrase	4	6	nomatch	va	-1	1	y	0.68459
9.8934	0.0	+	2	noun	phrase	4	7	nomatch	va	-1	1	y	0.68459
10.293400000000005	0.2	vieux	2	noun	phrase	4	8	nomatch	va	-1	1	y	0.68459
10.493400000000008	0.0	+	2	noun	phrase	4	9	nomatch	va	-1	1	y	0.68459
10.8934	0.2	sablier	2	noun	phrase	4	10	nomatch	va	-1	1	y	0.68459
11.0933	0.0	+	2	noun	phrase	4	11	nomatch	va	-1	1	y	0.68459
11.493300000000005	0.0	+	2	noun	phrase	4	12	nomatch	va	-1	1	y	0.68459
13.493200000000002	0.0	VA	2	noun	phrase	4	13	nomatch	va	-1	1	y	0.68459
14.243099999999998	0.0	+	2	noun	phrase	4	14	nomatch	va	-1	1	y	0.68459
14.177800000000005	0.0	[response]	2	noun	phrase	4	15	nomatch	va	-1	1	y	0.68459
15.893	0.0	+	3	noun	list	3	1	match	tard	5	1	p	1.0822
16.44290000000001	0.2	qsjcf	3	noun	list	3	2	match	tard	5	1	p	1.0822
16.642899999999997	0.0	+	3	noun	list	3	3	match	tard	5	1	p	1.0822
17.042900000000003	0.2	qlk	3	noun	list	3	4	match	tard	5	1	p	1.0822
17.242900000000006	0.0	+	3	noun	list	3	5	match	tard	5	1	p	1.0822
17.64280000000001	0.2	doit	3	noun	list	3	6	match	tard	5	1	p	1.0822
17.842799999999997	0.0	+	3	noun	list	3	7	match	tard	5	1	p	1.0822
18.242800000000003	0.2	rocher	3	noun	list	3	8	match	tard	5	1	p	1.0822
18.442800000000005	0.0	+	3	noun	list	3	9	match	tard	5	1	p	1.0822
18.842799999999997	0.2	tard	3	noun	list	3	10	match	tard	5	1	p	1.0822
19.042699999999996	0.0	+	3	noun	list	3	11	match	tard	5	1	p	1.0822
19.442700000000002	0.0	+	3	noun	list	3	12	match	tard	5	1	p	1.0822
21.4426	0.0	TARD	3	noun	list	3	13	match	tard	5	1	p	1.0822
22.5925	0.0	+	3	noun	list	3	14	match	tard	5	1	p	1.0822
22.5248	0.0	[response]	3	noun	list	3	15	match	tard	5	1	p	1.0822
23.842399999999998	0.0	+	4	noun	phrase	1	1	match	petit	5	1	p	0.66091
24.392300000000006	0.2	xvtgsnw	4	noun	phrase	1	2	match	petit	5	1	p	0.66091
24.59230000000001	0.0	+	4	noun	phrase	1	3	match	petit	5	1	p	0.66091
24.9923	0.2	cfwl	4	noun	phrase	1	4	match	petit	5	1	p	0.66091
25.192300000000003	0.0	+	4	noun	phrase	1	5	match	petit	5	1	p	0.66091
25.592200000000005	0.2	nlfk	4	noun	phrase	1	6	match	petit	5	1	p	0.66091
25.79220000000001	0.0	+	4	noun	phrase	1	7	match	petit	5	1	p	0.66091
26.1922	0.2	zvhkjp	4	noun	phrase	1	8	match	petit	5	1	p	0.66091
26.392200000000003	0.0	+	4	noun	phrase	1	9	match	petit	5	1	p	0.66091
26.792100000000005	0.2	petit	4	noun	phrase	1	10	match	petit	5	1	p	0.66091
26.992100000000008	0.0	+	4	noun	phrase	1	11	match	petit	5	1	p	0.66091
27.3921	0.0	+	4	noun	phrase	1	12	match	petit	5	1	p	0.66091
29.391900000000007	0.0	PETIT	4	noun	phrase	1	13	match	petit	5	1	p	0.66091
30.108500000000006	0.0	+	4	noun	phrase	1	14	match	petit	5	1	p	0.66091
30.052800000000005	0.0	[response]	4	noun	phrase	1	15	match	petit	5	1	p	0.66091
31.791700000000006	0.0	+	5	noun	phrase	1	1	nomatch	beau	-1	1	y	0.7595300000000001
32.3417	0.2	tfxqsj	5	noun	phrase	1	2	nomatch	beau	-1	1	y	0.7595300000000001
32.541700000000006	0.0	+	5	noun	phrase	1	3	nomatch	beau	-1	1	y	0.7595300000000001
32.9417	0.2	qlk	5	noun	phrase	1	4	nomatch	beau	-1	1	y	0.7595300000000001
33.1417	0.0	+	5	noun	phrase	1	5	nomatch	beau	-1	1	y	0.7595300000000001
33.5416	0.2	zfj	5	noun	phrase	1	6	nomatch	beau	-1	1	y	0.7595300000000001
33.741600000000005	0.0	+	5	noun	phrase	1	7	nomatch	beau	-1	1	y	0.7595300000000001
34.1416	0.2	mkxrfgz	5	noun	phrase	1	8	nomatch	beau	-1	1	y	0.7595300000000001
34.3416	0.0	+	5	noun	phrase	1	9	nomatch	beau	-1	1	y	0.7595300000000001
34.7415	0.2	vieux	5	noun	phrase	1	10	nomatch	beau	-1	1	y	0.7595300000000001
34.941500000000005	0.0	+	5	noun	phrase	1	11	nomatch	beau	-1	1	y	0.7595300000000001
35.341499999999996	0.0	+	5	noun	phrase	1	12	nomatch	beau	-1	1	y	0.7595300000000001
37.341300000000004	0.0	BEAU	5	noun	phrase	1	13	nomatch	beau	-1	1	y	0.7595300000000001
38.1579	0.0	+	5	noun	phrase	1	14	nomatch	beau	-1	1	y	0.7595300000000001
38.100899999999996	0.0	[response]	5	noun	phrase	1	15	nomatch	beau	-1	1	y	0.7595300000000001
39.7411	0.0	+	6	verb	phrase	2	1	match	trop	4	1	p	0.74957
40.2911	0.2	mfqxhg	6	verb	phrase	2	2	match	trop	4	1	p	0.74957
40.4911	0.0	+	6	verb	phrase	2	3	match	trop	4	1	p	0.74957
40.89110000000001	0.2	mpnw	6	verb	phrase	2	4	match	trop	4	1	p	0.74957
41.09100000000001	0.0	+	6	verb	phrase	2	5	match	trop	4	1	p	0.74957
41.491	0.2	kbcr	6	verb	phrase	2	6	match	trop	4	1	p	0.74957
41.691	0.0	+	6	verb	phrase	2	7	match	trop	4	1	p	0.74957
42.09100000000001	0.2	trop	6	verb	phrase	2	8	match	trop	4	1	p	0.74957
42.29090000000001	0.0	+	6	verb	phrase	2	9	match	trop	4	1	p	0.74957
42.691500000000005	0.2	chasser	6	verb	phrase	2	10	match	trop	4	1	p	0.74957
42.8909	0.0	+	6	verb	phrase	2	11	match	trop	4	1	p	0.74957
43.29090000000001	0.0	+	6	verb	phrase	2	12	match	trop	4	1	p	0.74957
45.2907	0.0	TROP	6	verb	phrase	2	13	match	trop	4	1	p	0.74957
46.10730000000001	0.0	+	6	verb	phrase	2	14	match	trop	4	1	p	0.74957
46.040300000000016	0.0	[response]	6	verb	phrase	2	15	match	trop	4	1	p	0.74957
47.6905	0.0	+	7	noun	list	1	1	nomatch	nager	-1	1	y	0.93056
48.2405	0.2	znj	7	noun	list	1	2	nomatch	nager	-1	1	y	0.93056
48.4405	0.0	+	7	noun	list	1	3	nomatch	nager	-1	1	y	0.93056
48.8404	0.2	lnjw	7	noun	list	1	4	nomatch	nager	-1	1	y	0.93056
49.040400000000005	0.0	+	7	noun	list	1	5	nomatch	nager	-1	1	y	0.93056
49.4404	0.2	nlfk	7	noun	list	1	6	nomatch	nager	-1	1	y	0.93056
49.6404	0.0	+	7	noun	list	1	7	nomatch	nager	-1	1	y	0.93056
50.0403	0.2	trcz	7	noun	list	1	8	nomatch	nager	-1	1	y	0.93056
50.240300000000005	0.0	+	7	noun	list	1	9	nomatch	nager	-1	1	y	0.93056
50.640299999999996	0.2	casier	7	noun	list	1	10	nomatch	nager	-1	1	y	0.93056
50.8403	0.0	+	7	noun	list	1	11	nomatch	nager	-1	1	y	0.93056
51.240300000000005	0.0	+	7	noun	list	1	12	nomatch	nager	-1	1	y	0.93056
53.2401	0.0	NAGER	7	noun	list	1	13	nomatch	nager	-1	1	y	0.93056
54.24000000000001	0.0	+	7	noun	list	1	14	nomatch	nager	-1	1	y	0.93056
54.17070000000001	0.0	[response]	7	noun	list	1	15	nomatch	nager	-1	1	y	0.93056
55.6399	0.0	+	8	noun	list	1	1	nomatch	grand	-1	1	y	0.62281
56.18990000000001	0.2	vsjcfl	8	noun	list	1	2	nomatch	grand	-1	1	y	0.62281
56.3899	0.0	+	8	noun	list	1	3	nomatch	grand	-1	1	y	0.62281
56.7898	0.2	bqsx	8	noun	list	1	4	nomatch	grand	-1	1	y	0.62281
56.98979999999999	0.0	+	8	noun	list	1	5	nomatch	grand	-1	1	y	0.62281
57.389799999999994	0.2	clzr	8	noun	list	1	6	nomatch	grand	-1	1	y	0.62281
57.58980000000001	0.0	+	8	noun	list	1	7	nomatch	grand	-1	1	y	0.62281
57.98970000000001	0.2	srxqgvjf	8	noun	list	1	8	nomatch	grand	-1	1	y	0.62281
58.1897	0.0	+	8	noun	list	1	9	nomatch	grand	-1	1	y	0.62281
58.58970000000001	0.2	tôt	8	noun	list	1	10	nomatch	grand	-1	1	y	0.62281
58.789699999999996	0.0	+	8	noun	list	1	11	nomatch	grand	-1	1	y	0.62281
59.1896	0.0	+	8	noun	list	1	12	nomatch	grand	-1	1	y	0.62281
61.189499999999995	0.0	GRAND	8	noun	list	1	13	nomatch	grand	-1	1	y	0.62281
61.8728	0.0	+	8	noun	list	1	14	nomatch	grand	-1	1	y	0.62281
61.81230000000001	0.0	[response]	8	noun	list	1	15	nomatch	grand	-1	1	y	0.62281
63.589299999999994	0.0	+	9	noun	phrase	1	1	match	noir	5	0	y	0.096929
64.1393	0.2	tzlcjbw	9	noun	phrase	1	2	match	noir	5	0	y	0.096929
64.33919999999999	0.0	+	9	noun	phrase	1	3	match	noir	5	0	y	0.096929
64.7392	0.2	qlk	9	noun	phrase	1	4	match	noir	5	0	y	0.096929
64.93920000000001	0.0	+	9	noun	phrase	1	5	match	noir	5	0	y	0.096929
65.33919999999999	0.2	zfj	9	noun	phrase	1	6	match	noir	5	0	y	0.096929
65.53920000000001	0.0	+	9	noun	phrase	1	7	match	noir	5	0	y	0.096929
65.93910000000001	0.2	gnlzmd	9	noun	phrase	1	8	match	noir	5	0	y	0.096929
66.1391	0.0	+	9	noun	phrase	1	9	match	noir	5	0	y	0.096929
66.5391	0.2	noir	9	noun	phrase	1	10	match	noir	5	0	y	0.096929
66.7391	0.0	+	9	noun	phrase	1	11	match	noir	5	0	y	0.096929
67.139	0.0	+	9	noun	phrase	1	12	match	noir	5	0	y	0.096929
69.13889999999999	0.0	NOIR	9	noun	phrase	1	13	match	noir	5	0	y	0.096929
69.30550000000001	0.0	+	9	noun	phrase	1	14	match	noir	5	0	y	0.096929
69.2358	0.0	[response]	9	noun	phrase	1	15	match	noir	5	0	y	0.096929
71.53869999999999	0.0	+	10	noun	phrase	4	1	nomatch	mon	-1	1	y	0.81742
72.0887	0.2	vjzr	10	noun	phrase	4	2	nomatch	mon	-1	1	y	0.81742
72.28860000000002	0.0	+	10	noun	phrase	4	3	nomatch	mon	-1	1	y	0.81742
72.6886	0.2	pour	10	noun	phrase	4	4	nomatch	mon	-1	1	y	0.81742
72.88860000000001	0.0	+	10	noun	phrase	4	5	nomatch	mon	-1	1	y	0.81742
73.28869999999999	0.2	son	10	noun	phrase	4	6	nomatch	mon	-1	1	y	0.81742
73.4885	0.0	+	10	noun	phrase	4	7	nomatch	mon	-1	1	y	0.81742
73.88850000000001	0.2	vieux	10	noun	phrase	4	8	nomatch	mon	-1	1	y	0.81742
74.0885	0.0	+	10	noun	phrase	4	9	nomatch	mon	-1	1	y	0.81742
74.4885	0.2	panier	10	noun	phrase	4	10	nomatch	mon	-1	1	y	0.81742
74.68849999999999	0.0	+	10	noun	phrase	4	11	nomatch	mon	-1	1	y	0.81742
75.0884	0.0	+	10	noun	phrase	4	12	nomatch	mon	-1	1	y	0.81742
77.08829999999999	0.0	MON	10	noun	phrase	4	13	nomatch	mon	-1	1	y	0.81742
77.9715	0.0	+	10	noun	phrase	4	14	nomatch	mon	-1	1	y	0.81742
77.90570000000001	0.0	[response]	10	noun	phrase	4	15	nomatch	mon	-1	1	y	0.81742
87.4875	0.0	+	11	verb	phrase	1	1	match	tôt	5	1	p	0.53837
88.0374	0.2	hdlwk	11	verb	phrase	1	2	match	tôt	5	1	p	0.53837
88.2374	0.0	+	11	verb	phrase	1	3	match	tôt	5	1	p	0.53837
88.6374	0.2	lnjw	11	verb	phrase	1	4	match	tôt	5	1	p	0.53837
88.83740000000002	0.0	+	11	verb	phrase	1	5	match	tôt	5	1	p	0.53837
89.23729999999999	0.2	clzr	11	verb	phrase	1	6	match	tôt	5	1	p	0.53837
89.43730000000001	0.0	+	11	verb	phrase	1	7	match	tôt	5	1	p	0.53837
89.83730000000001	0.2	dvktf	11	verb	phrase	1	8	match	tôt	5	1	p	0.53837
90.0373	0.0	+	11	verb	phrase	1	9	match	tôt	5	1	p	0.53837
90.4372	0.2	tôt	11	verb	phrase	1	10	match	tôt	5	1	p	0.53837
90.63719999999999	0.0	+	11	verb	phrase	1	11	match	tôt	5	1	p	0.53837
91.0372	0.0	+	11	verb	phrase	1	12	match	tôt	5	1	p	0.53837
93.03699999999999	0.0	TÔT	11	verb	phrase	1	13	match	tôt	5	1	p	0.53837
93.63700000000001	0.0	+	11	verb	phrase	1	14	match	tôt	5	1	p	0.53837
93.57540000000002	0.0	[response]	11	verb	phrase	1	15	match	tôt	5	1	p	0.53837
103.4362	0.0	+	12	verb	list	1	1	nomatch	marc	-1	1	y	0.8103000000000001
103.98620000000001	0.2	dnhxr	12	verb	list	1	2	nomatch	marc	-1	1	y	0.8103000000000001
104.1862	0.0	+	12	verb	list	1	3	nomatch	marc	-1	1	y	0.8103000000000001
104.5862	0.2	mpnw	12	verb	list	1	4	nomatch	marc	-1	1	y	0.8103000000000001
104.78609999999999	0.0	+	12	verb	list	1	5	nomatch	marc	-1	1	y	0.8103000000000001
105.1861	0.2	stm	12	verb	list	1	6	nomatch	marc	-1	1	y	0.8103000000000001
105.38610000000001	0.0	+	12	verb	list	1	7	nomatch	marc	-1	1	y	0.8103000000000001
105.78609999999999	0.2	xstng	12	verb	list	1	8	nomatch	marc	-1	1	y	0.8103000000000001
105.986	0.0	+	12	verb	list	1	9	nomatch	marc	-1	1	y	0.8103000000000001
106.38600000000001	0.2	parader	12	verb	list	1	10	nomatch	marc	-1	1	y	0.8103000000000001
106.586	0.0	+	12	verb	list	1	11	nomatch	marc	-1	1	y	0.8103000000000001
106.986	0.0	+	12	verb	list	1	12	nomatch	marc	-1	1	y	0.8103000000000001
108.9858	0.0	MARC	12	verb	list	1	13	nomatch	marc	-1	1	y	0.8103000000000001
109.8524	0.0	+	12	verb	list	1	14	nomatch	marc	-1	1	y	0.8103000000000001
109.79610000000001	0.0	[response]	12	verb	list	1	15	nomatch	marc	-1	1	y	0.8103000000000001
111.3856	0.0	+	13	noun	list	2	1	match	tôt	5	1	p	2.2991000000000006
111.93560000000001	0.2	sctxhlf	13	noun	list	2	2	match	tôt	5	1	p	2.2991000000000006
112.1356	0.0	+	13	noun	list	2	3	match	tôt	5	1	p	2.2991000000000006
112.5355	0.2	qlk	13	noun	list	2	4	match	tôt	5	1	p	2.2991000000000006
112.73550000000002	0.0	+	13	noun	list	2	5	match	tôt	5	1	p	2.2991000000000006
113.1355	0.2	clzr	13	noun	list	2	6	match	tôt	5	1	p	2.2991000000000006
113.33550000000001	0.0	+	13	noun	list	2	7	match	tôt	5	1	p	2.2991000000000006
113.73540000000001	0.2	clavier	13	noun	list	2	8	match	tôt	5	1	p	2.2991000000000006
113.9354	0.0	+	13	noun	list	2	9	match	tôt	5	1	p	2.2991000000000006
114.3354	0.2	tôt	13	noun	list	2	10	match	tôt	5	1	p	2.2991000000000006
114.5354	0.0	+	13	noun	list	2	11	match	tôt	5	1	p	2.2991000000000006
114.9354	0.0	+	13	noun	list	2	12	match	tôt	5	1	p	2.2991000000000006
116.9352	0.0	TÔT	13	noun	list	2	13	match	tôt	5	1	p	2.2991000000000006
119.3017	0.0	+	13	noun	list	2	14	match	tôt	5	1	p	2.2991000000000006
119.2343	0.0	[response]	13	noun	list	2	15	match	tôt	5	1	p	2.2991000000000006
119.36829999999999	0.0	+	14	verb	list	1	1	nomatch	adam	-1	1	y	0.62156
119.885	0.2	pvcnldq	14	verb	list	1	2	nomatch	adam	-1	1	y	0.62156
120.085	0.0	+	14	verb	list	1	3	nomatch	adam	-1	1	y	0.62156
120.4849	0.2	swgv	14	verb	list	1	4	nomatch	adam	-1	1	y	0.62156
120.68490000000001	0.0	+	14	verb	list	1	5	nomatch	adam	-1	1	y	0.62156
121.08489999999999	0.2	stm	14	verb	list	1	6	nomatch	adam	-1	1	y	0.62156
121.28490000000001	0.0	+	14	verb	list	1	7	nomatch	adam	-1	1	y	0.62156
121.68490000000001	0.2	dvktf	14	verb	list	1	8	nomatch	adam	-1	1	y	0.62156
121.8849	0.0	+	14	verb	list	1	9	nomatch	adam	-1	1	y	0.62156
122.30149999999999	0.2	vert	14	verb	list	1	10	nomatch	adam	-1	1	y	0.62156
122.48479999999999	0.0	+	14	verb	list	1	11	nomatch	adam	-1	1	y	0.62156
122.90140000000001	0.0	+	14	verb	list	1	12	nomatch	adam	-1	1	y	0.62156
124.9013	0.0	ADAM	14	verb	list	1	13	nomatch	adam	-1	1	y	0.62156
125.5845	0.0	+	14	verb	list	1	14	nomatch	adam	-1	1	y	0.62156
125.5228	0.0	[response]	14	verb	list	1	15	nomatch	adam	-1	1	y	0.62156
135.30040000000002	0.0	+	15	noun	phrase	2	1	nomatch	moins	-1	1	y	1.4712
135.85039999999998	0.2	mtnb	15	noun	phrase	2	2	nomatch	moins	-1	1	y	1.4712
136.05040000000002	0.0	+	15	noun	phrase	2	3	nomatch	moins	-1	1	y	1.4712
136.4504	0.2	jcvb	15	noun	phrase	2	4	nomatch	moins	-1	1	y	1.4712
136.65030000000002	0.0	+	15	noun	phrase	2	5	nomatch	moins	-1	1	y	1.4712
137.0503	0.2	zfj	15	noun	phrase	2	6	nomatch	moins	-1	1	y	1.4712
137.25029999999998	0.0	+	15	noun	phrase	2	7	nomatch	moins	-1	1	y	1.4712
137.65030000000002	0.2	petit	15	noun	phrase	2	8	nomatch	moins	-1	1	y	1.4712
137.8503	0.0	+	15	noun	phrase	2	9	nomatch	moins	-1	1	y	1.4712
138.2502	0.2	rocher	15	noun	phrase	2	10	nomatch	moins	-1	1	y	1.4712
138.4502	0.0	+	15	noun	phrase	2	11	nomatch	moins	-1	1	y	1.4712
138.85020000000003	0.0	+	15	noun	phrase	2	12	nomatch	moins	-1	1	y	1.4712
140.85000000000002	0.0	MOINS	15	noun	phrase	2	13	nomatch	moins	-1	1	y	1.4712
142.3832	0.0	+	15	noun	phrase	2	14	nomatch	moins	-1	1	y	1.4712
142.32120000000003	0.0	[response]	15	noun	phrase	2	15	nomatch	moins	-1	1	y	1.4712
143.2498	0.0	+	16	verb	phrase	4	1	match	parader	5	1	p	0.9854000000000002
143.7998	0.2	xbkmgc	16	verb	phrase	4	2	match	parader	5	1	p	0.9854000000000002
143.9998	0.0	+	16	verb	phrase	4	3	match	parader	5	1	p	0.9854000000000002
144.39980000000003	0.2	luc	16	verb	phrase	4	4	match	parader	5	1	p	0.9854000000000002
144.59969999999998	0.0	+	16	verb	phrase	4	5	match	parader	5	1	p	0.9854000000000002
144.99970000000002	0.2	doit	16	verb	phrase	4	6	match	parader	5	1	p	0.9854000000000002
145.1997	0.0	+	16	verb	phrase	4	7	match	parader	5	1	p	0.9854000000000002
145.59969999999998	0.2	mieux	16	verb	phrase	4	8	match	parader	5	1	p	0.9854000000000002
145.7996	0.0	+	16	verb	phrase	4	9	match	parader	5	1	p	0.9854000000000002
146.19959999999998	0.2	parader	16	verb	phrase	4	10	match	parader	5	1	p	0.9854000000000002
146.39960000000002	0.0	+	16	verb	phrase	4	11	match	parader	5	1	p	0.9854000000000002
146.7996	0.0	+	16	verb	phrase	4	12	match	parader	5	1	p	0.9854000000000002
148.7994	0.0	PARADER	16	verb	phrase	4	13	match	parader	5	1	p	0.9854000000000002
149.84930000000003	0.0	+	16	verb	phrase	4	14	match	parader	5	1	p	0.9854000000000002
149.78480000000002	0.0	[response]	16	verb	phrase	4	15	match	parader	5	1	p	0.9854000000000002
151.19920000000002	0.0	+	17	noun	phrase	1	1	match	vieux	5	1	p	2.275
151.74920000000003	0.2	csl	17	noun	phrase	1	2	match	vieux	5	1	p	2.275
151.94920000000002	0.0	+	17	noun	phrase	1	3	match	vieux	5	1	p	2.275
152.34910000000002	0.2	qrgw	17	noun	phrase	1	4	match	vieux	5	1	p	2.275
152.5491	0.0	+	17	noun	phrase	1	5	match	vieux	5	1	p	2.275
152.9491	0.2	nlfk	17	noun	phrase	1	6	match	vieux	5	1	p	2.275
153.14909999999998	0.0	+	17	noun	phrase	1	7	match	vieux	5	1	p	2.275
153.54899999999998	0.2	zcmdkht	17	noun	phrase	1	8	match	vieux	5	1	p	2.275
153.74900000000002	0.0	+	17	noun	phrase	1	9	match	vieux	5	1	p	2.275
154.149	0.2	vieux	17	noun	phrase	1	10	match	vieux	5	1	p	2.275
154.349	0.0	+	17	noun	phrase	1	11	match	vieux	5	1	p	2.275
154.74900000000002	0.0	+	17	noun	phrase	1	12	match	vieux	5	1	p	2.275
156.74880000000002	0.0	VIEUX	17	noun	phrase	1	13	match	vieux	5	1	p	2.275
159.08190000000002	0.0	+	17	noun	phrase	1	14	match	vieux	5	1	p	2.275
159.0238	0.0	[response]	17	noun	phrase	1	15	match	vieux	5	1	p	2.275
159.1486	0.0	+	18	noun	list	4	1	nomatch	doit	-1	1	y	0.76518
159.6986	0.2	kwpj	18	noun	list	4	2	nomatch	doit	-1	1	y	0.76518
159.8986	0.0	+	18	noun	list	4	3	nomatch	doit	-1	1	y	0.76518
160.2985	0.2	avec	18	noun	list	4	4	nomatch	doit	-1	1	y	0.76518
160.49849999999998	0.0	+	18	noun	list	4	5	nomatch	doit	-1	1	y	0.76518
160.8985	0.2	va	18	noun	list	4	6	nomatch	doit	-1	1	y	0.76518
161.0985	0.0	+	18	noun	list	4	7	nomatch	doit	-1	1	y	0.76518
161.4984	0.2	sablier	18	noun	list	4	8	nomatch	doit	-1	1	y	0.76518
161.6984	0.0	+	18	noun	list	4	9	nomatch	doit	-1	1	y	0.76518
162.09840000000003	0.2	ainsi	18	noun	list	4	10	nomatch	doit	-1	1	y	0.76518
162.29840000000002	0.0	+	18	noun	list	4	11	nomatch	doit	-1	1	y	0.76518
162.69830000000002	0.0	+	18	noun	list	4	12	nomatch	doit	-1	1	y	0.76518
164.69819999999999	0.0	DOIT	18	noun	list	4	13	nomatch	doit	-1	1	y	0.76518
165.5315	0.0	+	18	noun	list	4	14	nomatch	doit	-1	1	y	0.76518
165.46339999999998	0.0	[response]	18	noun	list	4	15	nomatch	doit	-1	1	y	0.76518
167.098	0.0	+	19	noun	list	2	1	match	casier	5	1	p	3.4584
167.64800000000002	0.2	trpxv	19	noun	list	2	2	match	casier	5	1	p	3.4584
167.84789999999998	0.0	+	19	noun	list	2	3	match	casier	5	1	p	3.4584
168.24790000000002	0.2	lnjw	19	noun	list	2	4	match	casier	5	1	p	3.4584
168.4479	0.0	+	19	noun	list	2	5	match	casier	5	1	p	3.4584
168.84789999999998	0.2	zfj	19	noun	list	2	6	match	casier	5	1	p	3.4584
169.04790000000003	0.0	+	19	noun	list	2	7	match	casier	5	1	p	3.4584
169.44780000000003	0.2	trop	19	noun	list	2	8	match	casier	5	1	p	3.4584
169.64780000000002	0.0	+	19	noun	list	2	9	match	casier	5	1	p	3.4584
170.0478	0.2	casier	19	noun	list	2	10	match	casier	5	1	p	3.4584
170.24779999999998	0.0	+	19	noun	list	2	11	match	casier	5	1	p	3.4584
170.6477	0.0	+	19	noun	list	2	12	match	casier	5	1	p	3.4584
172.6476	0.0	CASIER	19	noun	list	2	13	match	casier	5	1	p	3.4584
176.164	0.0	+	19	noun	list	2	14	match	casier	5	1	p	3.4584
176.10600000000005	0.0	[response]	19	noun	list	2	15	match	casier	5	1	p	3.4584
183.04680000000002	0.0	+	20	noun	phrase	4	1	nomatch	tablier	-1	0	TIMEOUT	-1.0
183.5967	0.2	dvtlgz	20	noun	phrase	4	2	nomatch	tablier	-1	0	TIMEOUT	-1.0
183.79670000000004	0.0	+	20	noun	phrase	4	3	nomatch	tablier	-1	0	TIMEOUT	-1.0
184.19670000000002	0.2	dans	20	noun	phrase	4	4	nomatch	tablier	-1	0	TIMEOUT	-1.0
184.3967	0.0	+	20	noun	phrase	4	5	nomatch	tablier	-1	0	TIMEOUT	-1.0
184.7966	0.2	leur	20	noun	phrase	4	6	nomatch	tablier	-1	0	TIMEOUT	-1.0
184.9966	0.0	+	20	noun	phrase	4	7	nomatch	tablier	-1	0	TIMEOUT	-1.0
185.39660000000003	0.2	grand	20	noun	phrase	4	8	nomatch	tablier	-1	0	TIMEOUT	-1.0
185.59660000000002	0.0	+	20	noun	phrase	4	9	nomatch	tablier	-1	0	TIMEOUT	-1.0
185.99650000000003	0.2	rocher	20	noun	phrase	4	10	nomatch	tablier	-1	0	TIMEOUT	-1.0
186.19650000000001	0.0	+	20	noun	phrase	4	11	nomatch	tablier	-1	0	TIMEOUT	-1.0
186.5965	0.0	+	20	noun	phrase	4	12	nomatch	tablier	-1	0	TIMEOUT	-1.0
188.59630000000004	0.0	TABLIER	20	noun	phrase	4	13	nomatch	tablier	-1	0	TIMEOUT	-1.0
190.99620000000004	0.0	+	21	noun	list	4	1	match	casier	4	0	TIMEOUT	-1.0
191.59610000000004	0.2	lvmwp	21	noun	list	4	2	match	casier	4	0	TIMEOUT	-1.0
191.79610000000002	0.0	+	21	noun	list	4	3	match	casier	4	0	TIMEOUT	-1.0
192.1961	0.2	pour	21	noun	list	4	4	match	casier	4	0	TIMEOUT	-1.0
192.3961	0.0	+	21	noun	list	4	5	match	casier	4	0	TIMEOUT	-1.0
192.796	0.2	va	21	noun	list	4	6	match	casier	4	0	TIMEOUT	-1.0
192.99600000000004	0.0	+	21	noun	list	4	7	match	casier	4	0	TIMEOUT	-1.0
193.39600000000002	0.2	casier	21	noun	list	4	8	match	casier	4	0	TIMEOUT	-1.0
193.596	0.0	+	21	noun	list	4	9	match	casier	4	0	TIMEOUT	-1.0
193.9959	0.2	tard	21	noun	list	4	10	match	casier	4	0	TIMEOUT	-1.0
194.1959	0.0	+	21	noun	list	4	11	match	casier	4	0	TIMEOUT	-1.0
194.59590000000003	0.0	+	21	noun	list	4	12	match	casier	4	0	TIMEOUT	-1.0
196.59570000000002	0.0	CASIER	21	noun	list	4	13	match	casier	4	0	TIMEOUT	-1.0
198.9955	0.0	+	22	noun	phrase	1	1	nomatch	leur	-1	1	y	0.51167
199.59550000000002	0.2	dwv	22	noun	phrase	1	2	nomatch	leur	-1	1	y	0.51167
199.7955	0.0	+	22	noun	phrase	1	3	nomatch	leur	-1	1	y	0.51167
200.19550000000004	0.2	jztp	22	noun	phrase	1	4	nomatch	leur	-1	1	y	0.51167
200.3954	0.0	+	22	noun	phrase	1	5	nomatch	leur	-1	1	y	0.51167
200.79540000000003	0.2	nlfk	22	noun	phrase	1	6	nomatch	leur	-1	1	y	0.51167
200.99540000000002	0.0	+	22	noun	phrase	1	7	nomatch	leur	-1	1	y	0.51167
201.3954	0.2	tsrndmj	22	noun	phrase	1	8	nomatch	leur	-1	1	y	0.51167
201.5953	0.0	+	22	noun	phrase	1	9	nomatch	leur	-1	1	y	0.51167
201.99530000000004	0.2	grand	22	noun	phrase	1	10	nomatch	leur	-1	1	y	0.51167
202.19530000000003	0.0	+	22	noun	phrase	1	11	nomatch	leur	-1	1	y	0.51167
202.5953	0.0	+	22	noun	phrase	1	12	nomatch	leur	-1	1	y	0.51167
204.5951	0.0	LEUR	22	noun	phrase	1	13	nomatch	leur	-1	1	y	0.51167
205.1617	0.0	+	22	noun	phrase	1	14	nomatch	leur	-1	1	y	0.51167
205.10680000000002	0.0	[response]	22	noun	phrase	1	15	nomatch	leur	-1	1	y	0.51167
206.99490000000003	0.0	+	23	noun	list	3	1	match	panier	5	1	p	0.77234
207.54490000000004	0.2	npbcml	23	noun	list	3	2	match	panier	5	1	p	0.77234
207.74490000000003	0.0	+	23	noun	list	3	3	match	panier	5	1	p	0.77234
208.14480000000003	0.2	swgv	23	noun	list	3	4	match	panier	5	1	p	0.77234
208.34480000000002	0.0	+	23	noun	list	3	5	match	panier	5	1	p	0.77234
208.7448	0.2	mon	23	noun	list	3	6	match	panier	5	1	p	0.77234
208.94480000000004	0.0	+	23	noun	list	3	7	match	panier	5	1	p	0.77234
209.34480000000002	0.2	mieux	23	noun	list	3	8	match	panier	5	1	p	0.77234
209.54470000000003	0.0	+	23	noun	list	3	9	match	panier	5	1	p	0.77234
209.9447	0.2	panier	23	noun	list	3	10	match	panier	5	1	p	0.77234
210.1447	0.0	+	23	noun	list	3	11	match	panier	5	1	p	0.77234
210.54470000000003	0.0	+	23	noun	list	3	12	match	panier	5	1	p	0.77234
212.54450000000003	0.0	PANIER	23	noun	list	3	13	match	panier	5	1	p	0.77234
213.37780000000004	0.0	+	23	noun	list	3	14	match	panier	5	1	p	0.77234
213.3168	0.0	[response]	23	noun	list	3	15	match	panier	5	1	p	0.77234
214.9443	0.0	+	24	verb	list	4	1	match	rouge	5	1	p	0.73018
215.4943	0.2	nkwvtc	24	verb	list	4	2	match	rouge	5	1	p	0.73018
215.6943	0.0	+	24	verb	list	4	3	match	rouge	5	1	p	0.73018
216.0942	0.2	adam	24	verb	list	4	4	match	rouge	5	1	p	0.73018
216.2942	0.0	+	24	verb	list	4	5	match	rouge	5	1	p	0.73018
216.69420000000002	0.2	leur	24	verb	list	4	6	match	rouge	5	1	p	0.73018
216.8942	0.0	+	24	verb	list	4	7	match	rouge	5	1	p	0.73018
217.29410000000001	0.2	voyager	24	verb	list	4	8	match	rouge	5	1	p	0.73018
217.4941	0.0	+	24	verb	list	4	9	match	rouge	5	1	p	0.73018
217.89410000000004	0.2	rouge	24	verb	list	4	10	match	rouge	5	1	p	0.73018
218.09410000000003	0.0	+	24	verb	list	4	11	match	rouge	5	1	p	0.73018
218.49400000000003	0.0	+	24	verb	list	4	12	match	rouge	5	1	p	0.73018
220.4939	0.0	ROUGE	24	verb	list	4	13	match	rouge	5	1	p	0.73018
221.29380000000003	0.0	+	24	verb	list	4	14	match	rouge	5	1	p	0.73018
221.22410000000002	0.0	[response]	24	verb	list	4	15	match	rouge	5	1	p	0.73018
222.89370000000002	0.0	+	25	noun	list	3	1	nomatch	va	-1	1	y	1.2099
223.44370000000004	0.2	tmqgh	25	noun	list	3	2	nomatch	va	-1	1	y	1.2099
223.6436	0.0	+	25	noun	list	3	3	nomatch	va	-1	1	y	1.2099
224.04360000000003	0.2	mbnk	25	noun	list	3	4	nomatch	va	-1	1	y	1.2099
224.24360000000001	0.0	+	25	noun	list	3	5	nomatch	va	-1	1	y	1.2099
224.6436	0.2	doit	25	noun	list	3	6	nomatch	va	-1	1	y	1.2099
224.84360000000004	0.0	+	25	noun	list	3	7	nomatch	va	-1	1	y	1.2099
225.24350000000004	0.2	cendrier	25	noun	list	3	8	nomatch	va	-1	1	y	1.2099
225.44350000000003	0.0	+	25	noun	list	3	9	nomatch	va	-1	1	y	1.2099
225.8435	0.2	tôt	25	noun	list	3	10	nomatch	va	-1	1	y	1.2099
226.0435	0.0	+	25	noun	list	3	11	nomatch	va	-1	1	y	1.2099
226.4434	0.0	+	25	noun	list	3	12	nomatch	va	-1	1	y	1.2099
228.44330000000002	0.0	VA	25	noun	list	3	13	nomatch	va	-1	1	y	1.2099
229.70980000000003	0.0	+	25	noun	list	3	14	nomatch	va	-1	1	y	1.2099
229.65320000000003	0.0	[response]	25	noun	list	3	15	nomatch	va	-1	1	y	1.2099
230.8431	0.0	+	26	noun	list	2	1	match	sablier	5	0	TIMEOUT	-1.0
231.39300000000003	0.2	vfnw	26	noun	list	2	2	match	sablier	5	0	TIMEOUT	-1.0
231.59300000000002	0.0	+	26	noun	list	2	3	match	sablier	5	0	TIMEOUT	-1.0
231.993	0.2	vzfj	26	noun	list	2	4	match	sablier	5	0	TIMEOUT	-1.0
232.19300000000004	0.0	+	26	noun	list	2	5	match	sablier	5	0	TIMEOUT	-1.0
232.59300000000002	0.2	zfj	26	noun	list	2	6	match	sablier	5	0	TIMEOUT	-1.0
232.79290000000003	0.0	+	26	noun	list	2	7	match	sablier	5	0	TIMEOUT	-1.0
233.1929	0.2	trop	26	noun	list	2	8	match	sablier	5	0	TIMEOUT	-1.0
233.3929	0.0	+	26	noun	list	2	9	match	sablier	5	0	TIMEOUT	-1.0
233.79290000000003	0.2	sablier	26	noun	list	2	10	match	sablier	5	0	TIMEOUT	-1.0
233.9928	0.0	+	26	noun	list	2	11	match	sablier	5	0	TIMEOUT	-1.0
234.39280000000002	0.0	+	26	noun	list	2	12	match	sablier	5	0	TIMEOUT	-1.0
236.3927	0.0	SABLIER	26	noun	list	2	13	match	sablier	5	0	TIMEOUT	-1.0
238.79250000000002	0.0	+	27	noun	list	1	1	match	casier	5	0	TIMEOUT	-1.0
239.3924	0.2	pfhvnmk	27	noun	list	1	2	match	casier	5	0	TIMEOUT	-1.0
239.5924	0.0	+	27	noun	list	1	3	match	casier	5	0	TIMEOUT	-1.0
239.99240000000003	0.2	bqsx	27	noun	list	1	4	match	casier	5	0	TIMEOUT	-1.0
240.19240000000002	0.0	+	27	noun	list	1	5	match	casier	5	0	TIMEOUT	-1.0
240.59230000000002	0.2	tw	27	noun	list	1	6	match	casier	5	0	TIMEOUT	-1.0
240.7923	0.0	+	27	noun	list	1	7	match	casier	5	0	TIMEOUT	-1.0
241.1923	0.2	rbn	27	noun	list	1	8	match	casier	5	0	TIMEOUT	-1.0
241.39230000000003	0.0	+	27	noun	list	1	9	match	casier	5	0	TIMEOUT	-1.0
241.7923	0.2	casier	27	noun	list	1	10	match	casier	5	0	TIMEOUT	-1.0
241.99220000000003	0.0	+	27	noun	list	1	11	match	casier	5	0	TIMEOUT	-1.0
242.3922	0.0	+	27	noun	list	1	12	match	casier	5	0	TIMEOUT	-1.0
244.39210000000003	0.0	CASIER	27	noun	list	1	13	match	casier	5	0	TIMEOUT	-1.0
246.7919	0.0	+	28	verb	phrase	4	1	match	chasser	5	1	p	1.8236
247.3918	0.2	lvmcq	28	verb	phrase	4	2	match	chasser	5	1	p	1.8236
247.59180000000003	0.0	+	28	verb	phrase	4	3	match	chasser	5	1	p	1.8236
247.9918	0.2	jade	28	verb	phrase	4	4	match	chasser	5	1	p	1.8236
248.1918	0.0	+	28	verb	phrase	4	5	match	chasser	5	1	p	1.8236
248.5917	0.2	peut	28	verb	phrase	4	6	match	chasser	5	1	p	1.8236
248.7917	0.0	+	28	verb	phrase	4	7	match	chasser	5	1	p	1.8236
249.19170000000003	0.2	moins	28	verb	phrase	4	8	match	chasser	5	1	p	1.8236
249.39170000000001	0.0	+	28	verb	phrase	4	9	match	chasser	5	1	p	1.8236
249.79160000000002	0.2	chasser	28	verb	phrase	4	10	match	chasser	5	1	p	1.8236
249.9916	0.0	+	28	verb	phrase	4	11	match	chasser	5	1	p	1.8236
250.39160000000004	0.0	+	28	verb	phrase	4	12	match	chasser	5	1	p	1.8236
252.39140000000003	0.0	CHASSER	28	verb	phrase	4	13	match	chasser	5	1	p	1.8236
254.27460000000002	0.0	+	28	verb	phrase	4	14	match	chasser	5	1	p	1.8236
254.21500000000003	0.0	[response]	28	verb	phrase	4	15	match	chasser	5	1	p	1.8236
254.7912	0.0	+	29	noun	phrase	2	1	match	sablier	4	1	p	0.52172
255.34120000000001	0.2	kbs	29	noun	phrase	2	2	match	sablier	4	1	p	0.52172
255.5412	0.0	+	29	noun	phrase	2	3	match	sablier	4	1	p	0.52172
255.94120000000004	0.2	cfwl	29	noun	phrase	2	4	match	sablier	4	1	p	0.52172
256.1411	0.0	+	29	noun	phrase	2	5	match	sablier	4	1	p	0.52172
256.54110000000003	0.2	zfj	29	noun	phrase	2	6	match	sablier	4	1	p	0.52172
256.7411	0.0	+	29	noun	phrase	2	7	match	sablier	4	1	p	0.52172
257.1411	0.2	sablier	29	noun	phrase	2	8	match	sablier	4	1	p	0.52172
257.341	0.0	+	29	noun	phrase	2	9	match	sablier	4	1	p	0.52172
257.74100000000004	0.2	noir	29	noun	phrase	2	10	match	sablier	4	1	p	0.52172
257.94100000000003	0.0	+	29	noun	phrase	2	11	match	sablier	4	1	p	0.52172
258.341	0.0	+	29	noun	phrase	2	12	match	sablier	4	1	p	0.52172
260.3408	0.0	SABLIER	29	noun	phrase	2	13	match	sablier	4	1	p	0.52172
260.9241	0.0	+	29	noun	phrase	2	14	match	sablier	4	1	p	0.52172
260.8625	0.0	[response]	29	noun	phrase	2	15	match	sablier	4	1	p	0.52172
262.74060000000003	0.0	+	30	noun	list	2	1	nomatch	cendrier	-1	0	TIMEOUT	-1.0
263.29060000000004	0.2	vhz	30	noun	list	2	2	nomatch	cendrier	-1	0	TIMEOUT	-1.0
263.49060000000003	0.0	+	30	noun	list	2	3	nomatch	cendrier	-1	0	TIMEOUT	-1.0
263.89050000000003	0.2	vzfj	30	noun	list	2	4	nomatch	cendrier	-1	0	TIMEOUT	-1.0
264.0905	0.0	+	30	noun	list	2	5	nomatch	cendrier	-1	0	TIMEOUT	-1.0
264.4905	0.2	nlfk	30	noun	list	2	6	nomatch	cendrier	-1	0	TIMEOUT	-1.0
264.69050000000004	0.0	+	30	noun	list	2	7	nomatch	cendrier	-1	0	TIMEOUT	-1.0
265.0905	0.2	moins	30	noun	list	2	8	nomatch	cendrier	-1	0	TIMEOUT	-1.0
265.29040000000003	0.0	+	30	noun	list	2	9	nomatch	cendrier	-1	0	TIMEOUT	-1.0
265.6904	0.2	grenier	30	noun	list	2	10	nomatch	cendrier	-1	0	TIMEOUT	-1.0
265.8904	0.0	+	30	noun	list	2	11	nomatch	cendrier	-1	0	TIMEOUT	-1.0
266.29040000000003	0.0	+	30	noun	list	2	12	nomatch	cendrier	-1	0	TIMEOUT	-1.0
268.2902	0.0	CENDRIER	30	noun	list	2	13	nomatch	cendrier	-1	0	TIMEOUT	-1.0
270.69	0.0	+	31	verb	phrase	1	1	match	trop	5	0	TIMEOUT	-1.0
271.29	0.2	mvq	31	verb	phrase	1	2	match	trop	5	0	TIMEOUT	-1.0
271.49	0.0	+	31	verb	phrase	1	3	match	trop	5	0	TIMEOUT	-1.0
271.8899	0.2	lnjw	31	verb	phrase	1	4	match	trop	5	0	TIMEOUT	-1.0
272.0899	0.0	+	31	verb	phrase	1	5	match	trop	5	0	TIMEOUT	-1.0
272.48990000000003	0.2	clzr	31	verb	phrase	1	6	match	trop	5	0	TIMEOUT	-1.0
272.6899	0.0	+	31	verb	phrase	1	7	match	trop	5	0	TIMEOUT	-1.0
273.0898	0.2	tcvmrdq	31	verb	phrase	1	8	match	trop	5	0	TIMEOUT	-1.0
273.2898	0.0	+	31	verb	phrase	1	9	match	trop	5	0	TIMEOUT	-1.0
273.6898	0.2	trop	31	verb	phrase	1	10	match	trop	5	0	TIMEOUT	-1.0
273.88980000000004	0.0	+	31	verb	phrase	1	11	match	trop	5	0	TIMEOUT	-1.0
274.28970000000004	0.0	+	31	verb	phrase	1	12	match	trop	5	0	TIMEOUT	-1.0
276.2896	0.0	TROP	31	verb	phrase	1	13	match	trop	5	0	TIMEOUT	-1.0
278.68940000000003	0.0	+	32	noun	phrase	3	1	nomatch	petit	-1	0	TIMEOUT	-1.0
279.2894	0.2	hwcf	32	noun	phrase	3	2	nomatch	petit	-1	0	TIMEOUT	-1.0
279.4893	0.0	+	32	noun	phrase	3	3	nomatch	petit	-1	0	TIMEOUT	-1.0
279.8893	0.2	qrgw	32	noun	phrase	3	4	nomatch	petit	-1	0	TIMEOUT	-1.0
280.08930000000004	0.0	+	32	noun	phrase	3	5	nomatch	petit	-1	0	TIMEOUT	-1.0
280.4893	0.2	leur	32	noun	phrase	3	6	nomatch	petit	-1	0	TIMEOUT	-1.0
280.6892	0.0	+	32	noun	phrase	3	7	nomatch	petit	-1	0	TIMEOUT	-1.0
281.0892	0.2	cendrier	32	noun	phrase	3	8	nomatch	petit	-1	0	TIMEOUT	-1.0
281.2892	0.0	+	32	noun	phrase	3	9	nomatch	petit	-1	0	TIMEOUT	-1.0
281.6892	0.2	vert	32	noun	phrase	3	10	nomatch	petit	-1	0	TIMEOUT	-1.0
281.8892	0.0	+	32	noun	phrase	3	11	nomatch	petit	-1	0	TIMEOUT	-1.0
282.2891	0.0	+	32	noun	phrase	3	12	nomatch	petit	-1	0	TIMEOUT	-1.0
284.28900000000004	0.0	PETIT	32	noun	phrase	3	13	nomatch	petit	-1	0	TIMEOUT	-1.0
286.6888	0.0	+	33	noun	phrase	3	1	match	son	3	0	y	1.1316
287.2887	0.2	htw	33	noun	phrase	3	2	match	son	3	0	y	1.1316
287.4887	0.0	+	33	noun	phrase	3	3	match	son	3	0	y	1.1316
287.88870000000003	0.2	jztp	33	noun	phrase	3	4	match	son	3	0	y	1.1316
288.0887	0.0	+	33	noun	phrase	3	5	match	son	3	0	y	1.1316
288.4887	0.2	son	33	noun	phrase	3	6	match	son	3	0	y	1.1316
288.6886	0.0	+	33	noun	phrase	3	7	match	son	3	0	y	1.1316
289.08860000000004	0.2	grand	33	noun	phrase	3	8	match	son	3	0	y	1.1316
289.28860000000003	0.0	+	33	noun	phrase	3	9	match	son	3	0	y	1.1316
289.6886	0.2	tablier	33	noun	phrase	3	10	match	son	3	0	y	1.1316
289.8885	0.0	+	33	noun	phrase	3	11	match	son	3	0	y	1.1316
290.2885	0.0	+	33	noun	phrase	3	12	match	son	3	0	y	1.1316
292.2884	0.0	SON	33	noun	phrase	3	13	match	son	3	0	y	1.1316
293.48830000000004	0.0	+	33	noun	phrase	3	14	match	son	3	0	y	1.1316
293.41990000000004	0.0	[response]	33	noun	phrase	3	15	match	son	3	0	y	1.1316
294.6882	0.0	+	34	verb	phrase	1	1	match	danser	5	1	p	0.44812
295.23810000000003	0.2	kpbm	34	verb	phrase	1	2	match	danser	5	1	p	0.44812
295.4381	0.0	+	34	verb	phrase	1	3	match	danser	5	1	p	0.44812
295.8381	0.2	rpcx	34	verb	phrase	1	4	match	danser	5	1	p	0.44812
296.03810000000004	0.0	+	34	verb	phrase	1	5	match	danser	5	1	p	0.44812
296.43800000000005	0.2	tw	34	verb	phrase	1	6	match	danser	5	1	p	0.44812
296.63800000000003	0.0	+	34	verb	phrase	1	7	match	danser	5	1	p	0.44812
297.038	0.2	rbn	34	verb	phrase	1	8	match	danser	5	1	p	0.44812
297.238	0.0	+	34	verb	phrase	1	9	match	danser	5	1	p	0.44812
297.6379	0.2	danser	34	verb	phrase	1	10	match	danser	5	1	p	0.44812
297.8379	0.0	+	34	verb	phrase	1	11	match	danser	5	1	p	0.44812
298.2379	0.0	+	34	verb	phrase	1	12	match	danser	5	1	p	0.44812
300.2377	0.0	DANSER	34	verb	phrase	1	13	match	danser	5	1	p	0.44812
300.75440000000003	0.0	+	34	verb	phrase	1	14	match	danser	5	1	p	0.44812
300.68590000000006	0.0	[response]	34	verb	phrase	1	15	match	danser	5	1	p	0.44812
302.6376	0.0	+	35	noun	list	1	1	nomatch	noir	-1	1	y	0.79493
303.1875	0.2	tfjlmx	35	noun	list	1	2	nomatch	noir	-1	1	y	0.79493
303.3875	0.0	+	35	noun	list	1	3	nomatch	noir	-1	1	y	0.79493
303.7875	0.2	vzfj	35	noun	list	1	4	nomatch	noir	-1	1	y	0.79493
303.9875	0.0	+	35	noun	list	1	5	nomatch	noir	-1	1	y	0.79493
304.3874	0.2	nlfk	35	noun	list	1	6	nomatch	noir	-1	1	y	0.79493
304.5874	0.0	+	35	noun	list	1	7	nomatch	noir	-1	1	y	0.79493
304.98740000000004	0.2	srxqgvjf	35	noun	list	1	8	nomatch	noir	-1	1	y	0.79493
305.1874	0.0	+	35	noun	list	1	9	nomatch	noir	-1	1	y	0.79493
305.5873	0.2	trop	35	noun	list	1	10	nomatch	noir	-1	1	y	0.79493
305.7873	0.0	+	35	noun	list	1	11	nomatch	noir	-1	1	y	0.79493
306.1873	0.0	+	35	noun	list	1	12	nomatch	noir	-1	1	y	0.79493
308.18710000000004	0.0	NOIR	35	noun	list	1	13	nomatch	noir	-1	1	y	0.79493
309.0371	0.0	+	35	noun	list	1	14	nomatch	noir	-1	1	y	0.79493
308.9821	0.0	[response]	35	noun	list	1	15	nomatch	noir	-1	1	y	0.79493
318.5863	0.0	+	36	verb	list	2	1	nomatch	grand	-1	0	TIMEOUT	-1.0
319.1363	0.2	xsz	36	verb	list	2	2	nomatch	grand	-1	0	TIMEOUT	-1.0
319.3363	0.0	+	36	verb	list	2	3	nomatch	grand	-1	0	TIMEOUT	-1.0
319.7362	0.2	qlk	36	verb	list	2	4	nomatch	grand	-1	0	TIMEOUT	-1.0
319.93620000000004	0.0	+	36	verb	list	2	5	nomatch	grand	-1	0	TIMEOUT	-1.0
320.3362	0.2	kbcr	36	verb	list	2	6	nomatch	grand	-1	0	TIMEOUT	-1.0
320.5362	0.0	+	36	verb	list	2	7	nomatch	grand	-1	0	TIMEOUT	-1.0
320.9361	0.2	vieux	36	verb	list	2	8	nomatch	grand	-1	0	TIMEOUT	-1.0
321.1361	0.0	+	36	verb	list	2	9	nomatch	grand	-1	0	TIMEOUT	-1.0
321.53610000000003	0.2	chasser	36	verb	list	2	10	nomatch	grand	-1	0	TIMEOUT	-1.0
321.7361	0.0	+	36	verb	list	2	11	nomatch	grand	-1	0	TIMEOUT	-1.0
322.1361	0.0	+	36	verb	list	2	12	nomatch	grand	-1	0	TIMEOUT	-1.0
324.1359	0.0	GRAND	36	verb	list	2	13	nomatch	grand	-1	0	TIMEOUT	-1.0
326.5543	0.0	+	37	verb	list	2	1	match	rouge	5	0	TIMEOUT	-1.0
327.13570000000004	0.2	mpcx	37	verb	list	2	2	match	rouge	5	0	TIMEOUT	-1.0
327.33570000000003	0.0	+	37	verb	list	2	3	match	rouge	5	0	TIMEOUT	-1.0
327.73560000000003	0.2	mpnw	37	verb	list	2	4	match	rouge	5	0	TIMEOUT	-1.0
327.9356	0.0	+	37	verb	list	2	5	match	rouge	5	0	TIMEOUT	-1.0
328.3356	0.2	zfj	37	verb	list	2	6	match	rouge	5	0	TIMEOUT	-1.0
328.53560000000004	0.0	+	37	verb	list	2	7	match	rouge	5	0	TIMEOUT	-1.0
328.9355	0.2	plonger	37	verb	list	2	8	match	rouge	5	0	TIMEOUT	-1.0
329.13550000000004	0.0	+	37	verb	list	2	9	match	rouge	5	0	TIMEOUT	-1.0
329.5355	0.2	rouge	37	verb	list	2	10	match	rouge	5	0	TIMEOUT	-1.0
329.7355	0.0	+	37	verb	list	2	11	match	rouge	5	0	TIMEOUT	-1.0
330.1354	0.0	+	37	verb	list	2	12	match	rouge	5	0	TIMEOUT	-1.0
332.13530000000003	0.0	ROUGE	37	verb	list	2	13	match	rouge	5	0	TIMEOUT	-1.0
334.5684	0.0	+	38	noun	phrase	2	1	nomatch	beau	-1	1	y	0.83699
335.1351	0.2	rjmdk	38	noun	phrase	2	2	nomatch	beau	-1	1	y	0.83699
335.33500000000004	0.0	+	38	noun	phrase	2	3	nomatch	beau	-1	1	y	0.83699
335.735	0.2	mbnk	38	noun	phrase	2	4	nomatch	beau	-1	1	y	0.83699
335.935	0.0	+	38	noun	phrase	2	5	nomatch	beau	-1	1	y	0.83699
336.33500000000004	0.2	stm	38	noun	phrase	2	6	nomatch	beau	-1	1	y	0.83699
336.5349	0.0	+	38	noun	phrase	2	7	nomatch	beau	-1	1	y	0.83699
336.9349	0.2	grand	38	noun	phrase	2	8	nomatch	beau	-1	1	y	0.83699
337.1349	0.0	+	38	noun	phrase	2	9	nomatch	beau	-1	1	y	0.83699
337.5349	0.2	clavier	38	noun	phrase	2	10	nomatch	beau	-1	1	y	0.83699
337.73490000000004	0.0	+	38	noun	phrase	2	11	nomatch	beau	-1	1	y	0.83699
338.1349	0.0	+	38	noun	phrase	2	12	nomatch	beau	-1	1	y	0.83699
340.1513	0.0	BEAU	38	noun	phrase	2	13	nomatch	beau	-1	1	y	0.83699
341.0513	0.0	+	38	noun	phrase	2	14	nomatch	beau	-1	1	y	0.83699
340.98830000000004	0.0	[response]	38	noun	phrase	2	15	nomatch	beau	-1	1	y	0.83699
342.5511	0.0	+	39	verb	phrase	1	1	nomatch	danser	-1	0	TIMEOUT	-1.0
343.10110000000003	0.2	jqs	39	verb	phrase	1	2	nomatch	danser	-1	0	TIMEOUT	-1.0
343.3011	0.0	+	39	verb	phrase	1	3	nomatch	danser	-1	0	TIMEOUT	-1.0
343.7011	0.2	vzfj	39	verb	phrase	1	4	nomatch	danser	-1	0	TIMEOUT	-1.0
343.901	0.0	+	39	verb	phrase	1	5	nomatch	danser	-1	0	TIMEOUT	-1.0
344.30100000000004	0.2	clzr	39	verb	phrase	1	6	nomatch	danser	-1	0	TIMEOUT	-1.0
344.50100000000003	0.0	+	39	verb	phrase	1	7	nomatch	danser	-1	0	TIMEOUT	-1.0
344.901	0.2	rbn	39	verb	phrase	1	8	nomatch	danser	-1	0	TIMEOUT	-1.0
345.101	0.0	+	39	verb	phrase	1	9	nomatch	danser	-1	0	TIMEOUT	-1.0
345.5009	0.2	galoper	39	verb	phrase	1	10	nomatch	danser	-1	0	TIMEOUT	-1.0
345.7009	0.0	+	39	verb	phrase	1	11	nomatch	danser	-1	0	TIMEOUT	-1.0
346.1009	0.0	+	39	verb	phrase	1	12	nomatch	danser	-1	0	TIMEOUT	-1.0
348.1007	0.0	DANSER	39	verb	phrase	1	13	nomatch	danser	-1	0	TIMEOUT	-1.0
350.50050000000005	0.0	+	40	verb	phrase	4	1	match	chasser	4	1	p	1.4653
351.1005	0.2	ckgr	40	verb	phrase	4	2	match	chasser	4	1	p	1.4653
351.3005	0.0	+	40	verb	phrase	4	3	match	chasser	4	1	p	1.4653
351.7004	0.2	marc	40	verb	phrase	4	4	match	chasser	4	1	p	1.4653
351.9004	0.0	+	40	verb	phrase	4	5	match	chasser	4	1	p	1.4653
352.3004	0.2	va	40	verb	phrase	4	6	match	chasser	4	1	p	1.4653
352.5004	0.0	+	40	verb	phrase	4	7	match	chasser	4	1	p	1.4653
352.9004	0.2	chasser	40	verb	phrase	4	8	match	chasser	4	1	p	1.4653
353.1003	0.0	+	40	verb	phrase	4	9	match	chasser	4	1	p	1.4653
353.50030000000004	0.2	ainsi	40	verb	phrase	4	10	match	chasser	4	1	p	1.4653
353.7003	0.0	+	40	verb	phrase	4	11	match	chasser	4	1	p	1.4653
354.1003	0.0	+	40	verb	phrase	4	12	match	chasser	4	1	p	1.4653
356.1001	0.0	CHASSER	40	verb	phrase	4	13	match	chasser	4	1	p	1.4653
357.6333	0.0	+	40	verb	phrase	4	14	match	chasser	4	1	p	1.4653
357.5654	0.0	[response]	40	verb	phrase	4	15	match	chasser	4	1	p	1.4653
358.4999	0.0	+	41	verb	list	2	1	match	nager	5	0	TIMEOUT	-1.0
359.04990000000004	0.2	gvmk	41	verb	list	2	2	match	nager	5	0	TIMEOUT	-1.0
359.2499	0.0	+	41	verb	list	2	3	match	nager	5	0	TIMEOUT	-1.0
359.6498	0.2	qrgw	41	verb	list	2	4	match	nager	5	0	TIMEOUT	-1.0
359.8498	0.0	+	41	verb	list	2	5	match	nager	5	0	TIMEOUT	-1.0
360.2498	0.2	tw	41	verb	list	2	6	match	nager	5	0	TIMEOUT	-1.0
360.44980000000004	0.0	+	41	verb	list	2	7	match	nager	5	0	TIMEOUT	-1.0
360.84970000000004	0.2	petit	41	verb	list	2	8	match	nager	5	0	TIMEOUT	-1.0
361.04970000000003	0.0	+	41	verb	list	2	9	match	nager	5	0	TIMEOUT	-1.0
361.4497	0.2	nager	41	verb	list	2	10	match	nager	5	0	TIMEOUT	-1.0
361.6497	0.0	+	41	verb	list	2	11	match	nager	5	0	TIMEOUT	-1.0
362.0496	0.0	+	41	verb	list	2	12	match	nager	5	0	TIMEOUT	-1.0
364.0495	0.0	NAGER	41	verb	list	2	13	match	nager	5	0	TIMEOUT	-1.0
366.4493	0.0	+	42	noun	phrase	1	1	match	rouge	5	0	y	2.2491
367.0493	0.2	fgznvc	42	noun	phrase	1	2	match	rouge	5	0	y	2.2491
367.24920000000003	0.0	+	42	noun	phrase	1	3	match	rouge	5	0	y	2.2491
367.6492	0.2	mbnk	42	noun	phrase	1	4	match	rouge	5	0	y	2.2491
367.8492	0.0	+	42	noun	phrase	1	5	match	rouge	5	0	y	2.2491
368.24920000000003	0.2	stm	42	noun	phrase	1	6	match	rouge	5	0	y	2.2491
368.4492	0.0	+	42	noun	phrase	1	7	match	rouge	5	0	y	2.2491
368.8491	0.2	jmrgfh	42	noun	phrase	1	8	match	rouge	5	0	y	2.2491
369.0491	0.0	+	42	noun	phrase	1	9	match	rouge	5	0	y	2.2491
369.44910000000004	0.2	rouge	42	noun	phrase	1	10	match	rouge	5	0	y	2.2491
369.64910000000003	0.0	+	42	noun	phrase	1	11	match	rouge	5	0	y	2.2491
370.04900000000004	0.0	+	42	noun	phrase	1	12	match	rouge	5	0	y	2.2491
372.0489	0.0	ROUGE	42	noun	phrase	1	13	match	rouge	5	0	y	2.2491
374.3654	0.0	+	42	noun	phrase	1	14	match	rouge	5	0	y	2.2491
374.2979	0.0	[response]	42	noun	phrase	1	15	match	rouge	5	0	y	2.2491
374.44870000000003	0.0	+	43	noun	list	1	1	nomatch	ainsi	-1	0	TIMEOUT	-1.0
374.9986	0.2	qflj	43	noun	list	1	2	nomatch	ainsi	-1	0	TIMEOUT	-1.0
375.1986	0.0	+	43	noun	list	1	3	nomatch	ainsi	-1	0	TIMEOUT	-1.0
375.59860000000003	0.2	qlk	43	noun	list	1	4	nomatch	ainsi	-1	0	TIMEOUT	-1.0
375.7986	0.0	+	43	noun	list	1	5	nomatch	ainsi	-1	0	TIMEOUT	-1.0
376.1986	0.2	kbcr	43	noun	list	1	6	nomatch	ainsi	-1	0	TIMEOUT	-1.0
376.3985	0.0	+	43	noun	list	1	7	nomatch	ainsi	-1	0	TIMEOUT	-1.0
376.7985	0.2	zvhkjp	43	noun	list	1	8	nomatch	ainsi	-1	0	TIMEOUT	-1.0
376.99850000000004	0.0	+	43	noun	list	1	9	nomatch	ainsi	-1	0	TIMEOUT	-1.0
377.3985	0.2	tard	43	noun	list	1	10	nomatch	ainsi	-1	0	TIMEOUT	-1.0
377.5984	0.0	+	43	noun	list	1	11	nomatch	ainsi	-1	0	TIMEOUT	-1.0
377.9984	0.0	+	43	noun	list	1	12	nomatch	ainsi	-1	0	TIMEOUT	-1.0
379.99830000000003	0.0	AINSI	43	noun	list	1	13	nomatch	ainsi	-1	0	TIMEOUT	-1.0
382.3981	0.0	+	44	noun	list	4	1	nomatch	plus	-1	1	y	1.6403000000000003
382.998	0.2	zhrmpl	44	noun	list	4	2	nomatch	plus	-1	1	y	1.6403000000000003
383.19800000000004	0.0	+	44	noun	list	4	3	nomatch	plus	-1	1	y	1.6403000000000003
383.598	0.2	sous	44	noun	list	4	4	nomatch	plus	-1	1	y	1.6403000000000003
383.798	0.0	+	44	noun	list	4	5	nomatch	plus	-1	1	y	1.6403000000000003
384.1979	0.2	peut	44	noun	list	4	6	nomatch	plus	-1	1	y	1.6403000000000003
384.3979	0.0	+	44	noun	list	4	7	nomatch	plus	-1	1	y	1.6403000000000003
384.7979	0.2	tablier	44	noun	list	4	8	nomatch	plus	-1	1	y	1.6403000000000003
384.9979	0.0	+	44	noun	list	4	9	nomatch	plus	-1	1	y	1.6403000000000003
385.3978	0.2	tôt	44	noun	list	4	10	nomatch	plus	-1	1	y	1.6403000000000003
385.5978	0.0	+	44	noun	list	4	11	nomatch	plus	-1	1	y	1.6403000000000003
385.99780000000004	0.0	+	44	noun	list	4	12	nomatch	plus	-1	1	y	1.6403000000000003
387.99760000000003	0.0	PLUS	44	noun	list	4	13	nomatch	plus	-1	1	y	1.6403000000000003
389.6975	0.0	+	44	noun	list	4	14	nomatch	plus	-1	1	y	1.6403000000000003
389.63790000000006	0.0	[response]	44	noun	list	4	15	nomatch	plus	-1	1	y	1.6403000000000003
390.39750000000004	0.0	+	45	noun	phrase	1	1	nomatch	yves	-1	0	TIMEOUT	-1.0
390.9474	0.2	psrcz	45	noun	phrase	1	2	nomatch	yves	-1	0	TIMEOUT	-1.0
391.1474	0.0	+	45	noun	phrase	1	3	nomatch	yves	-1	0	TIMEOUT	-1.0
391.54740000000004	0.2	jztp	45	noun	phrase	1	4	nomatch	yves	-1	0	TIMEOUT	-1.0
391.7474	0.0	+	45	noun	phrase	1	5	nomatch	yves	-1	0	TIMEOUT	-1.0
392.14730000000003	0.2	stm	45	noun	phrase	1	6	nomatch	yves	-1	0	TIMEOUT	-1.0
392.3473	0.0	+	45	noun	phrase	1	7	nomatch	yves	-1	0	TIMEOUT	-1.0
392.7473	0.2	srxqgvjf	45	noun	phrase	1	8	nomatch	yves	-1	0	TIMEOUT	-1.0
392.94730000000004	0.0	+	45	noun	phrase	1	9	nomatch	yves	-1	0	TIMEOUT	-1.0
393.34720000000004	0.2	noir	45	noun	phrase	1	10	nomatch	yves	-1	0	TIMEOUT	-1.0
393.54720000000003	0.0	+	45	noun	phrase	1	11	nomatch	yves	-1	0	TIMEOUT	-1.0
393.9472	0.0	+	45	noun	phrase	1	12	nomatch	yves	-1	0	TIMEOUT	-1.0
395.947	0.0	YVES	45	noun	phrase	1	13	nomatch	yves	-1	0	TIMEOUT	-1.0
398.34680000000003	0.0	+	46	verb	phrase	1	1	nomatch	luc	-1	1	y	5.7714
398.9468	0.2	jsvbz	46	verb	phrase	1	2	nomatch	luc	-1	1	y	5.7714
399.14680000000004	0.0	+	46	verb	phrase	1	3	nomatch	luc	-1	1	y	5.7714
399.5468	0.2	bjlw	46	verb	phrase	1	4	nomatch	luc	-1	1	y	5.7714
399.74670000000003	0.0	+	46	verb	phrase	1	5	nomatch	luc	-1	1	y	5.7714
400.1467	0.2	kbcr	46	verb	phrase	1	6	nomatch	luc	-1	1	y	5.7714
400.3467	0.0	+	46	verb	phrase	1	7	nomatch	luc	-1	1	y	5.7714
400.74670000000003	0.2	hkgtdnr	46	verb	phrase	1	8	nomatch	luc	-1	1	y	5.7714
400.9466	0.0	+	46	verb	phrase	1	9	nomatch	luc	-1	1	y	5.7714
401.3466	0.2	beaucoup	46	verb	phrase	1	10	nomatch	luc	-1	1	y	5.7714
401.5466	0.0	+	46	verb	phrase	1	11	nomatch	luc	-1	1	y	5.7714
401.9466	0.0	+	46	verb	phrase	1	12	nomatch	luc	-1	1	y	5.7714
403.94640000000004	0.0	LUC	46	verb	phrase	1	13	nomatch	luc	-1	1	y	5.7714
409.77930000000003	0.0	+	46	verb	phrase	1	14	nomatch	luc	-1	1	y	5.7714
409.7178	0.0	[response]	46	verb	phrase	1	15	nomatch	luc	-1	1	y	5.7714
422.345	0.0	+	47	verb	phrase	2	1	match	trop	4	0	TIMEOUT	-1.0
422.89500000000004	0.2	wtzrnm	47	verb	phrase	2	2	match	trop	4	0	TIMEOUT	-1.0
423.0949	0.0	+	47	verb	phrase	2	3	match	trop	4	0	TIMEOUT	-1.0
423.49490000000003	0.2	rpcx	47	verb	phrase	2	4	match	trop	4	0	TIMEOUT	-1.0
423.6949	0.0	+	47	verb	phrase	2	5	match	trop	4	0	TIMEOUT	-1.0
424.0949	0.2	clzr	47	verb	phrase	2	6	match	trop	4	0	TIMEOUT	-1.0
424.2948	0.0	+	47	verb	phrase	2	7	match	trop	4	0	TIMEOUT	-1.0
424.69480000000004	0.2	trop	47	verb	phrase	2	8	match	trop	4	0	TIMEOUT	-1.0
424.89480000000003	0.0	+	47	verb	phrase	2	9	match	trop	4	0	TIMEOUT	-1.0
425.2948	0.2	nager	47	verb	phrase	2	10	match	trop	4	0	TIMEOUT	-1.0
425.4948	0.0	+	47	verb	phrase	2	11	match	trop	4	0	TIMEOUT	-1.0
425.8947	0.0	+	47	verb	phrase	2	12	match	trop	4	0	TIMEOUT	-1.0
427.8946	0.0	TROP	47	verb	phrase	2	13	match	trop	4	0	TIMEOUT	-1.0
430.2944	0.0	+	48	noun	phrase	3	1	nomatch	sous	-1	1	y	0.6256200000000001
430.89430000000004	0.2	wdlz	48	noun	phrase	3	2	nomatch	sous	-1	1	y	0.6256200000000001
431.09430000000003	0.0	+	48	noun	phrase	3	3	nomatch	sous	-1	1	y	0.6256200000000001
431.4943	0.2	mbnk	48	noun	phrase	3	4	nomatch	sous	-1	1	y	0.6256200000000001
431.6943	0.0	+	48	noun	phrase	3	5	nomatch	sous	-1	1	y	0.6256200000000001
432.0942	0.2	mon	48	noun	phrase	3	6	nomatch	sous	-1	1	y	0.6256200000000001
432.2942	0.0	+	48	noun	phrase	3	7	nomatch	sous	-1	1	y	0.6256200000000001
432.6942	0.2	petit	48	noun	phrase	3	8	nomatch	sous	-1	1	y	0.6256200000000001
432.8942	0.0	+	48	noun	phrase	3	9	nomatch	sous	-1	1	y	0.6256200000000001
433.2942	0.2	cendrier	48	noun	phrase	3	10	nomatch	sous	-1	1	y	0.6256200000000001
433.4941	0.0	+	48	noun	phrase	3	11	nomatch	sous	-1	1	y	0.6256200000000001
433.89410000000004	0.0	+	48	noun	phrase	3	12	nomatch	sous	-1	1	y	0.6256200000000001
435.894	0.0	SOUS	48	noun	phrase	3	13	nomatch	sous	-1	1	y	0.6256200000000001
436.5772	0.0	+	48	noun	phrase	3	14	nomatch	sous	-1	1	y	0.6256200000000001
436.5196	0.0	[response]	48	noun	phrase	3	15	nomatch	sous	-1	1	y	0.6256200000000001
438.29380000000003	0.0	+	49	verb	list	4	1	match	va	3	1	p	0.68016
438.8437	0.2	flgkb	49	verb	list	4	2	match	va	3	1	p	0.68016
439.0437	0.0	+	49	verb	list	4	3	match	va	3	1	p	0.68016
439.44370000000004	0.2	dans	49	verb	list	4	4	match	va	3	1	p	0.68016
439.6437	0.0	+	49	verb	list	4	5	match	va	3	1	p	0.68016
440.0436	0.2	va	49	verb	list	4	6	match	va	3	1	p	0.68016
440.2436000000001	0.0	+	49	verb	list	4	7	match	va	3	1	p	0.68016
440.64360000000005	0.2	nouveau	49	verb	list	4	8	match	va	3	1	p	0.68016
440.8436	0.0	+	49	verb	list	4	9	match	va	3	1	p	0.68016
441.2435	0.2	chasser	49	verb	list	4	10	match	va	3	1	p	0.68016
441.44350000000003	0.0	+	49	verb	list	4	11	match	va	3	1	p	0.68016
441.8435	0.0	+	49	verb	list	4	12	match	va	3	1	p	0.68016
443.84330000000006	0.0	VA	49	verb	list	4	13	match	va	3	1	p	0.68016
444.59330000000006	0.0	+	49	verb	list	4	14	match	va	3	1	p	0.68016
444.52350000000007	0.0	[response]	49	verb	list	4	15	match	va	3	1	p	0.68016
454.2425	0.0	+	50	noun	phrase	3	1	nomatch	leur	-1	1	y	0.59939
454.79249999999996	0.2	qwd	50	noun	phrase	3	2	nomatch	leur	-1	1	y	0.59939
454.9925	0.0	+	50	noun	phrase	3	3	nomatch	leur	-1	1	y	0.59939
455.3924	0.2	bqsx	50	noun	phrase	3	4	nomatch	leur	-1	1	y	0.59939
455.59240000000005	0.0	+	50	noun	phrase	3	5	nomatch	leur	-1	1	y	0.59939
455.99240000000003	0.2	mon	50	noun	phrase	3	6	nomatch	leur	-1	1	y	0.59939
456.19239999999996	0.0	+	50	noun	phrase	3	7	nomatch	leur	-1	1	y	0.59939
456.59240000000005	0.2	sablier	50	noun	phrase	3	8	nomatch	leur	-1	1	y	0.59939
456.7923	0.0	+	50	noun	phrase	3	9	nomatch	leur	-1	1	y	0.59939
457.1923	0.2	blanc	50	noun	phrase	3	10	nomatch	leur	-1	1	y	0.59939
457.39230000000003	0.0	+	50	noun	phrase	3	11	nomatch	leur	-1	1	y	0.59939
457.7923	0.0	+	50	noun	phrase	3	12	nomatch	leur	-1	1	y	0.59939
459.79210000000006	0.0	LEUR	50	noun	phrase	3	13	nomatch	leur	-1	1	y	0.59939
460.45869999999996	0.0	+	50	noun	phrase	3	14	nomatch	leur	-1	1	y	0.59939
460.3915000000001	0.0	[response]	50	noun	phrase	3	15	nomatch	leur	-1	1	y	0.59939
470.1913	0.0	+	51	verb	list	4	1	match	doit	3	0	TIMEOUT	-1.0
470.74129999999997	0.2	ngt	51	verb	list	4	2	match	doit	3	0	TIMEOUT	-1.0
470.9413	0.0	+	51	verb	list	4	3	match	doit	3	0	TIMEOUT	-1.0
471.3412	0.2	sur	51	verb	list	4	4	match	doit	3	0	TIMEOUT	-1.0
471.54120000000006	0.0	+	51	verb	list	4	5	match	doit	3	0	TIMEOUT	-1.0
471.94120000000004	0.2	doit	51	verb	list	4	6	match	doit	3	0	TIMEOUT	-1.0
472.14119999999997	0.0	+	51	verb	list	4	7	match	doit	3	0	TIMEOUT	-1.0
472.5411	0.2	petit	51	verb	list	4	8	match	doit	3	0	TIMEOUT	-1.0
472.7411	0.0	+	51	verb	list	4	9	match	doit	3	0	TIMEOUT	-1.0
473.1411	0.2	voyager	51	verb	list	4	10	match	doit	3	0	TIMEOUT	-1.0
473.34110000000004	0.0	+	51	verb	list	4	11	match	doit	3	0	TIMEOUT	-1.0
473.74100000000004	0.0	+	51	verb	list	4	12	match	doit	3	0	TIMEOUT	-1.0
475.74090000000007	0.0	DOIT	51	verb	list	4	13	match	doit	3	0	TIMEOUT	-1.0
478.1407	0.0	+	52	noun	phrase	2	1	nomatch	jade	-1	0	TIMEOUT	-1.0
478.74060000000003	0.2	kcd	52	noun	phrase	2	2	nomatch	jade	-1	0	TIMEOUT	-1.0
478.94059999999996	0.0	+	52	noun	phrase	2	3	nomatch	jade	-1	0	TIMEOUT	-1.0
479.34060000000005	0.2	jztp	52	noun	phrase	2	4	nomatch	jade	-1	0	TIMEOUT	-1.0
479.5406	0.0	+	52	noun	phrase	2	5	nomatch	jade	-1	0	TIMEOUT	-1.0
479.94059999999996	0.2	zfj	52	noun	phrase	2	6	nomatch	jade	-1	0	TIMEOUT	-1.0
480.14050000000003	0.0	+	52	noun	phrase	2	7	nomatch	jade	-1	0	TIMEOUT	-1.0
480.5405	0.2	tablier	52	noun	phrase	2	8	nomatch	jade	-1	0	TIMEOUT	-1.0
480.74050000000005	0.0	+	52	noun	phrase	2	9	nomatch	jade	-1	0	TIMEOUT	-1.0
481.14050000000003	0.2	blanc	52	noun	phrase	2	10	nomatch	jade	-1	0	TIMEOUT	-1.0
481.3404	0.0	+	52	noun	phrase	2	11	nomatch	jade	-1	0	TIMEOUT	-1.0
481.74039999999997	0.0	+	52	noun	phrase	2	12	nomatch	jade	-1	0	TIMEOUT	-1.0
483.7403	0.0	JADE	52	noun	phrase	2	13	nomatch	jade	-1	0	TIMEOUT	-1.0
486.1401	0.0	+	53	noun	list	4	1	match	cendrier	4	0	y	3.6962
486.74000000000007	0.2	xltfhpk	53	noun	list	4	2	match	cendrier	4	0	y	3.6962
486.94	0.0	+	53	noun	list	4	3	match	cendrier	4	0	y	3.6962
487.34	0.2	vers	53	noun	list	4	4	match	cendrier	4	0	y	3.6962
487.54	0.0	+	53	noun	list	4	5	match	cendrier	4	0	y	3.6962
487.9399	0.2	peut	53	noun	list	4	6	match	cendrier	4	0	y	3.6962
488.13990000000007	0.0	+	53	noun	list	4	7	match	cendrier	4	0	y	3.6962
488.53990000000005	0.2	cendrier	53	noun	list	4	8	match	cendrier	4	0	y	3.6962
488.7399	0.0	+	53	noun	list	4	9	match	cendrier	4	0	y	3.6962
489.1398	0.2	ainsi	53	noun	list	4	10	match	cendrier	4	0	y	3.6962
489.3398	0.0	+	53	noun	list	4	11	match	cendrier	4	0	y	3.6962
489.7398	0.0	+	53	noun	list	4	12	match	cendrier	4	0	y	3.6962
491.7397	0.0	CENDRIER	53	noun	list	4	13	match	cendrier	4	0	y	3.6962
495.50600000000003	0.0	+	53	noun	list	4	14	match	cendrier	4	0	y	3.6962
495.4359	0.0	[response]	53	noun	list	4	15	match	cendrier	4	0	y	3.6962
510.13820000000004	0.0	+	54	verb	phrase	3	1	match	nager	5	0	y	1.1405
510.6882	0.2	rgkl	54	verb	phrase	3	2	match	nager	5	0	y	1.1405
510.88820000000004	0.0	+	54	verb	phrase	3	3	match	nager	5	0	y	1.1405
511.28810000000004	0.2	swgv	54	verb	phrase	3	4	match	nager	5	0	y	1.1405
511.4881	0.0	+	54	verb	phrase	3	5	match	nager	5	0	y	1.1405
511.88810000000007	0.2	va	54	verb	phrase	3	6	match	nager	5	0	y	1.1405
512.0880999999999	0.0	+	54	verb	phrase	3	7	match	nager	5	0	y	1.1405
512.4879999999999	0.2	moins	54	verb	phrase	3	8	match	nager	5	0	y	1.1405
512.688	0.0	+	54	verb	phrase	3	9	match	nager	5	0	y	1.1405
513.088	0.2	nager	54	verb	phrase	3	10	match	nager	5	0	y	1.1405
513.288	0.0	+	54	verb	phrase	3	11	match	nager	5	0	y	1.1405
513.688	0.0	+	54	verb	phrase	3	12	match	nager	5	0	y	1.1405
515.6877999999999	0.0	NAGER	54	verb	phrase	3	13	match	nager	5	0	y	1.1405
516.8877	0.0	+	54	verb	phrase	3	14	match	nager	5	0	y	1.1405
516.8283	0.0	[response]	54	verb	phrase	3	15	match	nager	5	0	y	1.1405
518.0876	0.0	+	55	verb	list	3	1	match	parader	4	1	p	0.77635
518.6375999999999	0.2	rzvsm	55	verb	list	3	2	match	parader	4	1	p	0.77635
518.8376	0.0	+	55	verb	list	3	3	match	parader	4	1	p	0.77635
519.2375	0.2	bjlw	55	verb	list	3	4	match	parader	4	1	p	0.77635
519.4375	0.0	+	55	verb	list	3	5	match	parader	4	1	p	0.77635
519.8375	0.2	leur	55	verb	list	3	6	match	parader	4	1	p	0.77635
520.0374999999999	0.0	+	55	verb	list	3	7	match	parader	4	1	p	0.77635
520.4373999999999	0.2	parader	55	verb	list	3	8	match	parader	4	1	p	0.77635
520.6374	0.0	+	55	verb	list	3	9	match	parader	4	1	p	0.77635
521.0373999999999	0.2	blanc	55	verb	list	3	10	match	parader	4	1	p	0.77635
521.2374	0.0	+	55	verb	list	3	11	match	parader	4	1	p	0.77635
521.6373	0.0	+	55	verb	list	3	12	match	parader	4	1	p	0.77635
523.6372	0.0	PARADER	55	verb	list	3	13	match	parader	4	1	p	0.77635
524.4705	0.0	+	55	verb	list	3	14	match	parader	4	1	p	0.77635
524.4135	0.0	[response]	55	verb	list	3	15	match	parader	4	1	p	0.77635
526.0369999999999	0.0	+	56	verb	phrase	3	1	match	va	3	1	p	0.75309
526.587	0.2	tdcbkx	56	verb	phrase	3	2	match	va	3	1	p	0.75309
526.7869	0.0	+	56	verb	phrase	3	3	match	va	3	1	p	0.75309
527.1868999999999	0.2	swgv	56	verb	phrase	3	4	match	va	3	1	p	0.75309
527.3869	0.0	+	56	verb	phrase	3	5	match	va	3	1	p	0.75309
527.7869	0.2	va	56	verb	phrase	3	6	match	va	3	1	p	0.75309
527.9869	0.0	+	56	verb	phrase	3	7	match	va	3	1	p	0.75309
528.3868	0.2	plus	56	verb	phrase	3	8	match	va	3	1	p	0.75309
528.5867999999999	0.0	+	56	verb	phrase	3	9	match	va	3	1	p	0.75309
528.9868	0.2	plonger	56	verb	phrase	3	10	match	va	3	1	p	0.75309
529.1868	0.0	+	56	verb	phrase	3	11	match	va	3	1	p	0.75309
529.5867	0.0	+	56	verb	phrase	3	12	match	va	3	1	p	0.75309
531.5866	0.0	VA	56	verb	phrase	3	13	match	va	3	1	p	0.75309
532.4032	0.0	+	56	verb	phrase	3	14	match	va	3	1	p	0.75309
532.3397	0.0	[response]	56	verb	phrase	3	15	match	va	3	1	p	0.75309
533.9864	0.0	+	57	verb	list	1	1	match	danser	5	1	p	0.50458
534.5363	0.2	wdxtmr	57	verb	list	1	2	match	danser	5	1	p	0.50458
534.7362999999999	0.0	+	57	verb	list	1	3	match	danser	5	1	p	0.50458
535.1363	0.2	jcvb	57	verb	list	1	4	match	danser	5	1	p	0.50458
535.3362999999999	0.0	+	57	verb	list	1	5	match	danser	5	1	p	0.50458
535.7362999999999	0.2	clzr	57	verb	list	1	6	match	danser	5	1	p	0.50458
535.9362	0.0	+	57	verb	list	1	7	match	danser	5	1	p	0.50458
536.3362	0.2	qgdkp	57	verb	list	1	8	match	danser	5	1	p	0.50458
536.5362	0.0	+	57	verb	list	1	9	match	danser	5	1	p	0.50458
536.9362	0.2	danser	57	verb	list	1	10	match	danser	5	1	p	0.50458
537.1360999999999	0.0	+	57	verb	list	1	11	match	danser	5	1	p	0.50458
537.5360999999999	0.0	+	57	verb	list	1	12	match	danser	5	1	p	0.50458
539.536	0.0	DANSER	57	verb	list	1	13	match	danser	5	1	p	0.50458
540.1025999999999	0.0	+	57	verb	list	1	14	match	danser	5	1	p	0.50458
540.0405000000001	0.0	[response]	57	verb	list	1	15	match	danser	5	1	p	0.50458
541.9358	0.0	+	58	verb	phrase	2	1	match	plus	4	0	y	4.1832
542.4857	0.2	tsxc	58	verb	phrase	2	2	match	plus	4	0	y	4.1832
542.6857	0.0	+	58	verb	phrase	2	3	match	plus	4	0	y	4.1832
543.0857	0.2	ftb	58	verb	phrase	2	4	match	plus	4	0	y	4.1832
543.2856999999999	0.0	+	58	verb	phrase	2	5	match	plus	4	0	y	4.1832
543.6855999999999	0.2	tw	58	verb	phrase	2	6	match	plus	4	0	y	4.1832
543.8856	0.0	+	58	verb	phrase	2	7	match	plus	4	0	y	4.1832
544.2855999999999	0.2	plus	58	verb	phrase	2	8	match	plus	4	0	y	4.1832
544.4856	0.0	+	58	verb	phrase	2	9	match	plus	4	0	y	4.1832
544.8856	0.2	jongler	58	verb	phrase	2	10	match	plus	4	0	y	4.1832
545.0854999999999	0.0	+	58	verb	phrase	2	11	match	plus	4	0	y	4.1832
545.4855	0.0	+	58	verb	phrase	2	12	match	plus	4	0	y	4.1832
547.4853999999999	0.0	PLUS	58	verb	phrase	2	13	match	plus	4	0	y	4.1832
551.735	0.0	+	58	verb	phrase	2	14	match	plus	4	0	y	4.1832
551.6686	0.0	[response]	58	verb	phrase	2	15	match	plus	4	0	y	4.1832
557.9011999999999	0.0	+	59	verb	list	1	1	match	noir	5	0	y	1.5412
558.4512	0.2	mpqb	59	verb	list	1	2	match	noir	5	0	y	1.5412
558.6511999999999	0.0	+	59	verb	list	1	3	match	noir	5	0	y	1.5412
559.0510999999999	0.2	rpcx	59	verb	list	1	4	match	noir	5	0	y	1.5412
559.2511	0.0	+	59	verb	list	1	5	match	noir	5	0	y	1.5412
559.6510999999999	0.2	zfj	59	verb	list	1	6	match	noir	5	0	y	1.5412
559.8511	0.0	+	59	verb	list	1	7	match	noir	5	0	y	1.5412
560.251	0.2	tcvmrdq	59	verb	list	1	8	match	noir	5	0	y	1.5412
560.4509999999999	0.0	+	59	verb	list	1	9	match	noir	5	0	y	1.5412
560.851	0.2	noir	59	verb	list	1	10	match	noir	5	0	y	1.5412
561.0509999999999	0.0	+	59	verb	list	1	11	match	noir	5	0	y	1.5412
561.4508999999999	0.0	+	59	verb	list	1	12	match	noir	5	0	y	1.5412
563.4508	0.0	NOIR	59	verb	list	1	13	match	noir	5	0	y	1.5412
565.0507	0.0	+	59	verb	list	1	14	match	noir	5	0	y	1.5412
564.9920000000001	0.0	[response]	59	verb	list	1	15	match	noir	5	0	y	1.5412
565.8506	0.0	+	60	verb	phrase	4	1	match	doit	3	0	y	9.2161
566.4005999999999	0.2	wmnlq	60	verb	phrase	4	2	match	doit	3	0	y	9.2161
566.6005	0.0	+	60	verb	phrase	4	3	match	doit	3	0	y	9.2161
567.0005	0.2	paul	60	verb	phrase	4	4	match	doit	3	0	y	9.2161
567.2004999999999	0.0	+	60	verb	phrase	4	5	match	doit	3	0	y	9.2161
567.6005	0.2	doit	60	verb	phrase	4	6	match	doit	3	0	y	9.2161
567.8004999999999	0.0	+	60	verb	phrase	4	7	match	doit	3	0	y	9.2161
568.2004	0.2	jongler	60	verb	phrase	4	8	match	doit	3	0	y	9.2161
568.4004	0.0	+	60	verb	phrase	4	9	match	doit	3	0	y	9.2161
568.8004	0.2	tard	60	verb	phrase	4	10	match	doit	3	0	y	9.2161
569.0004	0.0	+	60	verb	phrase	4	11	match	doit	3	0	y	9.2161
569.4003	0.0	+	60	verb	phrase	4	12	match	doit	3	0	y	9.2161
571.4001999999999	0.0	DOIT	60	verb	phrase	4	13	match	doit	3	0	y	9.2161
580.6827999999999	0.0	+	60	verb	phrase	4	14	match	doit	3	0	y	9.2161
580.6162999999999	0.0	[response]	60	verb	phrase	4	15	match	doit	3	0	y	9.2161
581.7994	0.0	+	61	verb	list	2	1	nomatch	clavier	-1	1	y	7.0793
582.3493	0.2	lrwvm	61	verb	list	2	2	nomatch	clavier	-1	1	y	7.0793
582.5493	0.0	+	61	verb	list	2	3	nomatch	clavier	-1	1	y	7.0793
582.9493	0.2	mbnk	61	verb	list	2	4	nomatch	clavier	-1	1	y	7.0793
583.1492999999999	0.0	+	61	verb	list	2	5	nomatch	clavier	-1	1	y	7.0793
583.5491999999999	0.2	tw	61	verb	list	2	6	nomatch	clavier	-1	1	y	7.0793
583.7492	0.0	+	61	verb	list	2	7	nomatch	clavier	-1	1	y	7.0793
584.1492	0.2	beau	61	verb	list	2	8	nomatch	clavier	-1	1	y	7.0793
584.3492	0.0	+	61	verb	list	2	9	nomatch	clavier	-1	1	y	7.0793
584.7491	0.2	danser	61	verb	list	2	10	nomatch	clavier	-1	1	y	7.0793
584.9490999999999	0.0	+	61	verb	list	2	11	nomatch	clavier	-1	1	y	7.0793
585.3490999999999	0.0	+	61	verb	list	2	12	nomatch	clavier	-1	1	y	7.0793
587.3489	0.0	CLAVIER	61	verb	list	2	13	nomatch	clavier	-1	1	y	7.0793
594.4984	0.0	+	61	verb	list	2	14	nomatch	clavier	-1	1	y	7.0793
594.4282999999999	0.0	[response]	61	verb	list	2	15	nomatch	clavier	-1	1	y	7.0793
613.7469	0.0	+	62	noun	list	3	1	nomatch	leur	-1	0	TIMEOUT	-1.0
614.2968999999999	0.2	zdwphv	62	noun	list	3	2	nomatch	leur	-1	0	TIMEOUT	-1.0
614.4969	0.0	+	62	noun	list	3	3	nomatch	leur	-1	0	TIMEOUT	-1.0
614.8968	0.2	bqsx	62	noun	list	3	4	nomatch	leur	-1	0	TIMEOUT	-1.0
615.0967999999999	0.0	+	62	noun	list	3	5	nomatch	leur	-1	0	TIMEOUT	-1.0
615.4968	0.2	va	62	noun	list	3	6	nomatch	leur	-1	0	TIMEOUT	-1.0
615.6967999999999	0.0	+	62	noun	list	3	7	nomatch	leur	-1	0	TIMEOUT	-1.0
616.0966999999999	0.2	casier	62	noun	list	3	8	nomatch	leur	-1	0	TIMEOUT	-1.0
616.2967	0.0	+	62	noun	list	3	9	nomatch	leur	-1	0	TIMEOUT	-1.0
616.6967	0.2	loin	62	noun	list	3	10	nomatch	leur	-1	0	TIMEOUT	-1.0
616.8967	0.0	+	62	noun	list	3	11	nomatch	leur	-1	0	TIMEOUT	-1.0
617.2966	0.0	+	62	noun	list	3	12	nomatch	leur	-1	0	TIMEOUT	-1.0
619.2964999999999	0.0	LEUR	62	noun	list	3	13	nomatch	leur	-1	0	TIMEOUT	-1.0
621.6963	0.0	+	63	verb	phrase	2	1	nomatch	rouge	-1	0	TIMEOUT	-1.0
622.2963	0.2	lwnzp	63	verb	phrase	2	2	nomatch	rouge	-1	0	TIMEOUT	-1.0
622.4961999999999	0.0	+	63	verb	phrase	2	3	nomatch	rouge	-1	0	TIMEOUT	-1.0
622.8961999999999	0.2	lnjw	63	verb	phrase	2	4	nomatch	rouge	-1	0	TIMEOUT	-1.0
623.0962	0.0	+	63	verb	phrase	2	5	nomatch	rouge	-1	0	TIMEOUT	-1.0
623.4961999999999	0.2	clzr	63	verb	phrase	2	6	nomatch	rouge	-1	0	TIMEOUT	-1.0
623.6961	0.0	+	63	verb	phrase	2	7	nomatch	rouge	-1	0	TIMEOUT	-1.0
624.0961	0.2	danser	63	verb	phrase	2	8	nomatch	rouge	-1	0	TIMEOUT	-1.0
624.2960999999999	0.0	+	63	verb	phrase	2	9	nomatch	rouge	-1	0	TIMEOUT	-1.0
624.6961	0.2	ainsi	63	verb	phrase	2	10	nomatch	rouge	-1	0	TIMEOUT	-1.0
624.8960999999999	0.0	+	63	verb	phrase	2	11	nomatch	rouge	-1	0	TIMEOUT	-1.0
625.2959999999999	0.0	+	63	verb	phrase	2	12	nomatch	rouge	-1	0	TIMEOUT	-1.0
627.2959	0.0	ROUGE	63	verb	phrase	2	13	nomatch	rouge	-1	0	TIMEOUT	-1.0
629.6957	0.0	+	64	verb	phrase	1	1	match	parader	5	1	p	1.2022000000000002
630.2955999999999	0.2	lrwft	64	verb	phrase	1	2	match	parader	5	1	p	1.2022000000000002
630.4956	0.0	+	64	verb	phrase	1	3	match	parader	5	1	p	1.2022000000000002
630.8956	0.2	rpcx	64	verb	phrase	1	4	match	parader	5	1	p	1.2022000000000002
631.0956	0.0	+	64	verb	phrase	1	5	match	parader	5	1	p	1.2022000000000002
631.4955	0.2	kbcr	64	verb	phrase	1	6	match	parader	5	1	p	1.2022000000000002
631.6954999999999	0.0	+	64	verb	phrase	1	7	match	parader	5	1	p	1.2022000000000002
632.0955	0.2	txmjk	64	verb	phrase	1	8	match	parader	5	1	p	1.2022000000000002
632.2955	0.0	+	64	verb	phrase	1	9	match	parader	5	1	p	1.2022000000000002
632.6954	0.2	parader	64	verb	phrase	1	10	match	parader	5	1	p	1.2022000000000002
632.8954	0.0	+	64	verb	phrase	1	11	match	parader	5	1	p	1.2022000000000002
633.2954	0.0	+	64	verb	phrase	1	12	match	parader	5	1	p	1.2022000000000002
635.2951999999999	0.0	PARADER	64	verb	phrase	1	13	match	parader	5	1	p	1.2022000000000002
636.5618	0.0	+	64	verb	phrase	1	14	match	parader	5	1	p	1.2022000000000002
636.4975	0.0	[response]	64	verb	phrase	1	15	match	parader	5	1	p	1.2022000000000002
637.6950999999999	0.0	+	65	verb	list	4	1	nomatch	yves	-1	1	y	0.56717
638.245	0.2	vqrscn	65	verb	list	4	2	nomatch	yves	-1	1	y	0.56717
638.4449999999999	0.0	+	65	verb	list	4	3	nomatch	yves	-1	1	y	0.56717
638.8449999999999	0.2	dans	65	verb	list	4	4	nomatch	yves	-1	1	y	0.56717
639.045	0.0	+	65	verb	list	4	5	nomatch	yves	-1	1	y	0.56717
639.4449	0.2	va	65	verb	list	4	6	nomatch	yves	-1	1	y	0.56717
639.6449	0.0	+	65	verb	list	4	7	nomatch	yves	-1	1	y	0.56717
640.0449	0.2	grand	65	verb	list	4	8	nomatch	yves	-1	1	y	0.56717
640.2448999999999	0.0	+	65	verb	list	4	9	nomatch	yves	-1	1	y	0.56717
640.6447999999999	0.2	galoper	65	verb	list	4	10	nomatch	yves	-1	1	y	0.56717
640.8448	0.0	+	65	verb	list	4	11	nomatch	yves	-1	1	y	0.56717
641.2447999999999	0.0	+	65	verb	list	4	12	nomatch	yves	-1	1	y	0.56717
643.2446	0.0	YVES	65	verb	list	4	13	nomatch	yves	-1	1	y	0.56717
643.8779	0.0	+	65	verb	list	4	14	nomatch	yves	-1	1	y	0.56717
643.8118	0.0	[response]	65	verb	list	4	15	nomatch	yves	-1	1	y	0.56717
645.6443999999999	0.0	+	66	noun	list	1	1	nomatch	trop	-1	1	y	1.3124
646.1944	0.2	xjrhnvb	66	noun	list	1	2	nomatch	trop	-1	1	y	1.3124
646.3943999999999	0.0	+	66	noun	list	1	3	nomatch	trop	-1	1	y	1.3124
646.7944	0.2	vzfj	66	noun	list	1	4	nomatch	trop	-1	1	y	1.3124
646.9943	0.0	+	66	noun	list	1	5	nomatch	trop	-1	1	y	1.3124
647.3942999999999	0.2	nlfk	66	noun	list	1	6	nomatch	trop	-1	1	y	1.3124
647.5943	0.0	+	66	noun	list	1	7	nomatch	trop	-1	1	y	1.3124
647.9943	0.2	xqtrdhs	66	noun	list	1	8	nomatch	trop	-1	1	y	1.3124
648.1943	0.0	+	66	noun	list	1	9	nomatch	trop	-1	1	y	1.3124
648.5942	0.2	plus	66	noun	list	1	10	nomatch	trop	-1	1	y	1.3124
648.7941999999999	0.0	+	66	noun	list	1	11	nomatch	trop	-1	1	y	1.3124
649.1941999999999	0.0	+	66	noun	list	1	12	nomatch	trop	-1	1	y	1.3124
651.194	0.0	TROP	66	noun	list	1	13	nomatch	trop	-1	1	y	1.3124
652.5605999999999	0.0	+	66	noun	list	1	14	nomatch	trop	-1	1	y	1.3124
652.5064000000001	0.0	[response]	66	noun	list	1	15	nomatch	trop	-1	1	y	1.3124
653.5938	0.0	+	67	verb	list	3	1	match	beau	4	0	TIMEOUT	-1.0
654.1437999999999	0.2	jnbtqm	67	verb	list	3	2	match	beau	4	0	TIMEOUT	-1.0
654.3438	0.0	+	67	verb	list	3	3	match	beau	4	0	TIMEOUT	-1.0
654.7437	0.2	mbnk	67	verb	list	3	4	match	beau	4	0	TIMEOUT	-1.0
654.9436999999999	0.0	+	67	verb	list	3	5	match	beau	4	0	TIMEOUT	-1.0
655.3437	0.2	va	67	verb	list	3	6	match	beau	4	0	TIMEOUT	-1.0
655.5437	0.0	+	67	verb	list	3	7	match	beau	4	0	TIMEOUT	-1.0
655.9436999999999	0.2	beau	67	verb	list	3	8	match	beau	4	0	TIMEOUT	-1.0
656.1436	0.0	+	67	verb	list	3	9	match	beau	4	0	TIMEOUT	-1.0
656.5436	0.2	nager	67	verb	list	3	10	match	beau	4	0	TIMEOUT	-1.0
656.7436	0.0	+	67	verb	list	3	11	match	beau	4	0	TIMEOUT	-1.0
657.1436	0.0	+	67	verb	list	3	12	match	beau	4	0	TIMEOUT	-1.0
659.1433999999999	0.0	BEAU	67	verb	list	3	13	match	beau	4	0	TIMEOUT	-1.0
661.5613999999999	0.0	+	68	verb	list	3	1	nomatch	peut	-1	0	TIMEOUT	-1.0
662.1432	0.2	fcdl	68	verb	list	3	2	nomatch	peut	-1	0	TIMEOUT	-1.0
662.3431999999999	0.0	+	68	verb	list	3	3	nomatch	peut	-1	0	TIMEOUT	-1.0
662.7430999999999	0.2	lnjw	68	verb	list	3	4	nomatch	peut	-1	0	TIMEOUT	-1.0
662.9431	0.0	+	68	verb	list	3	5	nomatch	peut	-1	0	TIMEOUT	-1.0
663.3430999999999	0.2	son	68	verb	list	3	6	nomatch	peut	-1	0	TIMEOUT	-1.0
663.5431	0.0	+	68	verb	list	3	7	nomatch	peut	-1	0	TIMEOUT	-1.0
663.943	0.2	jongler	68	verb	list	3	8	nomatch	peut	-1	0	TIMEOUT	-1.0
664.1429999999999	0.0	+	68	verb	list	3	9	nomatch	peut	-1	0	TIMEOUT	-1.0
664.543	0.2	noir	68	verb	list	3	10	nomatch	peut	-1	0	TIMEOUT	-1.0
664.7429999999999	0.0	+	68	verb	list	3	11	nomatch	peut	-1	0	TIMEOUT	-1.0
665.1428999999999	0.0	+	68	verb	list	3	12	nomatch	peut	-1	0	TIMEOUT	-1.0
667.1428	0.0	PEUT	68	verb	list	3	13	nomatch	peut	-1	0	TIMEOUT	-1.0
669.5426	0.0	+	69	verb	list	1	1	nomatch	voyager	-1	1	y	0.52685
670.1426	0.2	dckvhtf	69	verb	list	1	2	nomatch	voyager	-1	1	y	0.52685
670.3425	0.0	+	69	verb	list	1	3	nomatch	voyager	-1	1	y	0.52685
670.7425	0.2	jztp	69	verb	list	1	4	nomatch	voyager	-1	1	y	0.52685
670.9425	0.0	+	69	verb	list	1	5	nomatch	voyager	-1	1	y	0.52685
671.3425	0.2	tw	69	verb	list	1	6	nomatch	voyager	-1	1	y	0.52685
671.5424999999999	0.0	+	69	verb	list	1	7	nomatch	voyager	-1	1	y	0.52685
671.9423999999999	0.2	svbjp	69	verb	list	1	8	nomatch	voyager	-1	1	y	0.52685
672.1424	0.0	+	69	verb	list	1	9	nomatch	voyager	-1	1	y	0.52685
672.5423999999999	0.2	plonger	69	verb	list	1	10	nomatch	voyager	-1	1	y	0.52685
672.7424	0.0	+	69	verb	list	1	11	nomatch	voyager	-1	1	y	0.52685
673.1423	0.0	+	69	verb	list	1	12	nomatch	voyager	-1	1	y	0.52685
675.1422	0.0	VOYAGER	69	verb	list	1	13	nomatch	voyager	-1	1	y	0.52685
675.7255	0.0	+	69	verb	list	1	14	nomatch	voyager	-1	1	y	0.52685
675.669	0.0	[response]	69	verb	list	1	15	nomatch	voyager	-1	1	y	0.52685
677.5419999999999	0.0	+	70	verb	phrase	3	1	nomatch	vite	-1	1	y	0.95392
678.092	0.2	gztqj	70	verb	phrase	3	2	nomatch	vite	-1	1	y	0.95392
678.2918999999999	0.0	+	70	verb	phrase	3	3	nomatch	vite	-1	1	y	0.95392
678.6918999999999	0.2	mpnw	70	verb	phrase	3	4	nomatch	vite	-1	1	y	0.95392
678.8919	0.0	+	70	verb	phrase	3	5	nomatch	vite	-1	1	y	0.95392
679.2918999999999	0.2	va	70	verb	phrase	3	6	nomatch	vite	-1	1	y	0.95392
679.4918	0.0	+	70	verb	phrase	3	7	nomatch	vite	-1	1	y	0.95392
679.8918	0.2	galoper	70	verb	phrase	3	8	nomatch	vite	-1	1	y	0.95392
680.0917999999999	0.0	+	70	verb	phrase	3	9	nomatch	vite	-1	1	y	0.95392
680.4918	0.2	tôt	70	verb	phrase	3	10	nomatch	vite	-1	1	y	0.95392
680.6917	0.0	+	70	verb	phrase	3	11	nomatch	vite	-1	1	y	0.95392
681.0917	0.0	+	70	verb	phrase	3	12	nomatch	vite	-1	1	y	0.95392
683.0916	0.0	VITE	70	verb	phrase	3	13	nomatch	vite	-1	1	y	0.95392
684.1080999999999	0.0	+	70	verb	phrase	3	14	nomatch	vite	-1	1	y	0.95392
684.0455	0.0	[response]	70	verb	phrase	3	15	nomatch	vite	-1	1	y	0.95392
685.4914	0.0	+	71	noun	list	1	1	match	rocher	5	0	TIMEOUT	-1.0
686.0413	0.2	wtzv	71	noun	list	1	2	match	rocher	5	0	TIMEOUT	-1.0
686.2412999999999	0.0	+	71	noun	list	1	3	match	rocher	5	0	TIMEOUT	-1.0
686.6413	0.2	jcvb	71	noun	list	1	4	match	rocher	5	0	TIMEOUT	-1.0
686.8412999999999	0.0	+	71	noun	list	1	5	match	rocher	5	0	TIMEOUT	-1.0
687.2411999999999	0.2	tw	71	noun	list	1	6	match	rocher	5	0	TIMEOUT	-1.0
687.4412	0.0	+	71	noun	list	1	7	match	rocher	5	0	TIMEOUT	-1.0
687.8412	0.2	cbsr	71	noun	list	1	8	match	rocher	5	0	TIMEOUT	-1.0
688.0412	0.0	+	71	noun	list	1	9	match	rocher	5	0	TIMEOUT	-1.0
688.4412	0.2	rocher	71	noun	list	1	10	match	rocher	5	0	TIMEOUT	-1.0
688.6410999999999	0.0	+	71	noun	list	1	11	match	rocher	5	0	TIMEOUT	-1.0
689.0410999999999	0.0	+	71	noun	list	1	12	match	rocher	5	0	TIMEOUT	-1.0
691.0409999999999	0.0	ROCHER	71	noun	list	1	13	match	rocher	5	0	TIMEOUT	-1.0
693.4408	0.0	+	72	verb	phrase	3	1	match	jongler	4	0	TIMEOUT	-1.0
694.0407	0.2	gjzbnl	72	verb	phrase	3	2	match	jongler	4	0	TIMEOUT	-1.0
694.2407	0.0	+	72	verb	phrase	3	3	match	jongler	4	0	TIMEOUT	-1.0
694.6406999999999	0.2	lnjw	72	verb	phrase	3	4	match	jongler	4	0	TIMEOUT	-1.0
694.8407	0.0	+	72	verb	phrase	3	5	match	jongler	4	0	TIMEOUT	-1.0
695.2406	0.2	doit	72	verb	phrase	3	6	match	jongler	4	0	TIMEOUT	-1.0
695.4405999999999	0.0	+	72	verb	phrase	3	7	match	jongler	4	0	TIMEOUT	-1.0
695.8406	0.2	jongler	72	verb	phrase	3	8	match	jongler	4	0	TIMEOUT	-1.0
696.0405999999999	0.0	+	72	verb	phrase	3	9	match	jongler	4	0	TIMEOUT	-1.0
696.4404999999999	0.2	ainsi	72	verb	phrase	3	10	match	jongler	4	0	TIMEOUT	-1.0
696.6405	0.0	+	72	verb	phrase	3	11	match	jongler	4	0	TIMEOUT	-1.0
697.0405	0.0	+	72	verb	phrase	3	12	match	jongler	4	0	TIMEOUT	-1.0
699.0403	0.0	JONGLER	72	verb	phrase	3	13	match	jongler	4	0	TIMEOUT	-1.0
701.4400999999999	0.0	+	73	noun	phrase	1	1	nomatch	tablier	-1	0	TIMEOUT	-1.0
702.0400999999999	0.2	kgtqw	73	noun	phrase	1	2	nomatch	tablier	-1	0	TIMEOUT	-1.0
702.2401	0.0	+	73	noun	phrase	1	3	nomatch	tablier	-1	0	TIMEOUT	-1.0
702.6401	0.2	mbnk	73	noun	phrase	1	4	nomatch	tablier	-1	0	TIMEOUT	-1.0
702.8399999999999	0.0	+	73	noun	phrase	1	5	nomatch	tablier	-1	0	TIMEOUT	-1.0
703.24	0.2	zfj	73	noun	phrase	1	6	nomatch	tablier	-1	0	TIMEOUT	-1.0
703.4399999999999	0.0	+	73	noun	phrase	1	7	nomatch	tablier	-1	0	TIMEOUT	-1.0
703.8399999999999	0.2	qmfnh	73	noun	phrase	1	8	nomatch	tablier	-1	0	TIMEOUT	-1.0
704.04	0.0	+	73	noun	phrase	1	9	nomatch	tablier	-1	0	TIMEOUT	-1.0
704.4399	0.2	sablier	73	noun	phrase	1	10	nomatch	tablier	-1	0	TIMEOUT	-1.0
704.6399	0.0	+	73	noun	phrase	1	11	nomatch	tablier	-1	0	TIMEOUT	-1.0
705.0399	0.0	+	73	noun	phrase	1	12	nomatch	tablier	-1	0	TIMEOUT	-1.0
707.0396999999999	0.0	TABLIER	73	noun	phrase	1	13	nomatch	tablier	-1	0	TIMEOUT	-1.0
709.4395	0.0	+	74	verb	list	3	1	match	nouveau	4	0	TIMEOUT	-1.0
710.0395	0.2	lcfzv	74	verb	list	3	2	match	nouveau	4	0	TIMEOUT	-1.0
710.2394999999999	0.0	+	74	verb	list	3	3	match	nouveau	4	0	TIMEOUT	-1.0
710.6393999999999	0.2	jztp	74	verb	list	3	4	match	nouveau	4	0	TIMEOUT	-1.0
710.8394	0.0	+	74	verb	list	3	5	match	nouveau	4	0	TIMEOUT	-1.0
711.2393999999999	0.2	peut	74	verb	list	3	6	match	nouveau	4	0	TIMEOUT	-1.0
711.4394	0.0	+	74	verb	list	3	7	match	nouveau	4	0	TIMEOUT	-1.0
711.8393	0.2	nouveau	74	verb	list	3	8	match	nouveau	4	0	TIMEOUT	-1.0
712.0392999999999	0.0	+	74	verb	list	3	9	match	nouveau	4	0	TIMEOUT	-1.0
712.4393	0.2	galoper	74	verb	list	3	10	match	nouveau	4	0	TIMEOUT	-1.0
712.6392999999999	0.0	+	74	verb	list	3	11	match	nouveau	4	0	TIMEOUT	-1.0
713.0392999999999	0.0	+	74	verb	list	3	12	match	nouveau	4	0	TIMEOUT	-1.0
715.0391	0.0	NOUVEAU	74	verb	list	3	13	match	nouveau	4	0	TIMEOUT	-1.0
717.4389	0.0	+	75	verb	list	1	1	match	voyager	5	0	TIMEOUT	-1.0
718.0389	0.2	cfbrqm	75	verb	list	1	2	match	voyager	5	0	TIMEOUT	-1.0
718.2389	0.0	+	75	verb	list	1	3	match	voyager	5	0	TIMEOUT	-1.0
718.6388	0.2	ftb	75	verb	list	1	4	match	voyager	5	0	TIMEOUT	-1.0
718.8388	0.0	+	75	verb	list	1	5	match	voyager	5	0	TIMEOUT	-1.0
719.2388	0.2	stm	75	verb	list	1	6	match	voyager	5	0	TIMEOUT	-1.0
719.4388	0.0	+	75	verb	list	1	7	match	voyager	5	0	TIMEOUT	-1.0
719.8386999999999	0.2	xstng	75	verb	list	1	8	match	voyager	5	0	TIMEOUT	-1.0
720.0387	0.0	+	75	verb	list	1	9	match	voyager	5	0	TIMEOUT	-1.0
720.4386999999999	0.2	voyager	75	verb	list	1	10	match	voyager	5	0	TIMEOUT	-1.0
720.6387	0.0	+	75	verb	list	1	11	match	voyager	5	0	TIMEOUT	-1.0
721.0386	0.0	+	75	verb	list	1	12	match	voyager	5	0	TIMEOUT	-1.0
723.0385	0.0	VOYAGER	75	verb	list	1	13	match	voyager	5	0	TIMEOUT	-1.0
725.4382999999999	0.0	+	76	noun	list	1	1	match	tablier	5	1	p	1.2493000000000003
726.0382999999999	0.2	prx	76	noun	list	1	2	match	tablier	5	1	p	1.2493000000000003
726.2382	0.0	+	76	noun	list	1	3	match	tablier	5	1	p	1.2493000000000003
726.6382	0.2	lnjw	76	noun	list	1	4	match	tablier	5	1	p	1.2493000000000003
726.8381999999999	0.0	+	76	noun	list	1	5	match	tablier	5	1	p	1.2493000000000003
727.2382	0.2	zfj	76	noun	list	1	6	match	tablier	5	1	p	1.2493000000000003
727.4381	0.0	+	76	noun	list	1	7	match	tablier	5	1	p	1.2493000000000003
727.8380999999999	0.2	trcz	76	noun	list	1	8	match	tablier	5	1	p	1.2493000000000003
728.0381	0.0	+	76	noun	list	1	9	match	tablier	5	1	p	1.2493000000000003
728.4381	0.2	tablier	76	noun	list	1	10	match	tablier	5	1	p	1.2493000000000003
728.6381	0.0	+	76	noun	list	1	11	match	tablier	5	1	p	1.2493000000000003
729.038	0.0	+	76	noun	list	1	12	match	tablier	5	1	p	1.2493000000000003
731.0378999999999	0.0	TABLIER	76	noun	list	1	13	match	tablier	5	1	p	1.2493000000000003
732.3543999999999	0.0	+	76	noun	list	1	14	match	tablier	5	1	p	1.2493000000000003
732.2872	0.0	[response]	76	noun	list	1	15	match	tablier	5	1	p	1.2493000000000003
733.4377	0.0	+	77	verb	list	1	1	nomatch	tôt	-1	0	TIMEOUT	-1.0
733.9875999999999	0.2	jpgmbr	77	verb	list	1	2	nomatch	tôt	-1	0	TIMEOUT	-1.0
734.1876	0.0	+	77	verb	list	1	3	nomatch	tôt	-1	0	TIMEOUT	-1.0
734.5876	0.2	jztp	77	verb	list	1	4	nomatch	tôt	-1	0	TIMEOUT	-1.0
734.7876	0.0	+	77	verb	list	1	5	nomatch	tôt	-1	0	TIMEOUT	-1.0
735.1876	0.2	tw	77	verb	list	1	6	nomatch	tôt	-1	0	TIMEOUT	-1.0
735.3874999999999	0.0	+	77	verb	list	1	7	nomatch	tôt	-1	0	TIMEOUT	-1.0
735.7874999999999	0.2	pbnvrm	77	verb	list	1	8	nomatch	tôt	-1	0	TIMEOUT	-1.0
735.9875	0.0	+	77	verb	list	1	9	nomatch	tôt	-1	0	TIMEOUT	-1.0
736.3874999999999	0.2	vieux	77	verb	list	1	10	nomatch	tôt	-1	0	TIMEOUT	-1.0
736.5874	0.0	+	77	verb	list	1	11	nomatch	tôt	-1	0	TIMEOUT	-1.0
736.9874	0.0	+	77	verb	list	1	12	nomatch	tôt	-1	0	TIMEOUT	-1.0
738.9873	0.0	TÔT	77	verb	list	1	13	nomatch	tôt	-1	0	TIMEOUT	-1.0
741.4037	0.0	+	78	verb	phrase	1	1	nomatch	tablier	-1	0	TIMEOUT	-1.0
741.987	0.2	mrfjw	78	verb	phrase	1	2	nomatch	tablier	-1	0	TIMEOUT	-1.0
742.187	0.0	+	78	verb	phrase	1	3	nomatch	tablier	-1	0	TIMEOUT	-1.0
742.587	0.2	lnjw	78	verb	phrase	1	4	nomatch	tablier	-1	0	TIMEOUT	-1.0
742.7869999999999	0.0	+	78	verb	phrase	1	5	nomatch	tablier	-1	0	TIMEOUT	-1.0
743.1868999999999	0.2	clzr	78	verb	phrase	1	6	nomatch	tablier	-1	0	TIMEOUT	-1.0
743.3869	0.0	+	78	verb	phrase	1	7	nomatch	tablier	-1	0	TIMEOUT	-1.0
743.7869	0.2	hkgtdnr	78	verb	phrase	1	8	nomatch	tablier	-1	0	TIMEOUT	-1.0
743.9869	0.0	+	78	verb	phrase	1	9	nomatch	tablier	-1	0	TIMEOUT	-1.0
744.3868	0.2	loin	78	verb	phrase	1	10	nomatch	tablier	-1	0	TIMEOUT	-1.0
744.5867999999999	0.0	+	78	verb	phrase	1	11	nomatch	tablier	-1	0	TIMEOUT	-1.0
744.9868	0.0	+	78	verb	phrase	1	12	nomatch	tablier	-1	0	TIMEOUT	-1.0
746.9866	0.0	TABLIER	78	verb	phrase	1	13	nomatch	tablier	-1	0	TIMEOUT	-1.0
749.4031	0.0	+	79	verb	phrase	1	1	nomatch	tôt	-1	1	y	1.3765
749.9864	0.2	xnvh	79	verb	phrase	1	2	nomatch	tôt	-1	1	y	1.3765
750.1863999999999	0.0	+	79	verb	phrase	1	3	nomatch	tôt	-1	1	y	1.3765
750.5863999999999	0.2	swgv	79	verb	phrase	1	4	nomatch	tôt	-1	1	y	1.3765
750.7863	0.0	+	79	verb	phrase	1	5	nomatch	tôt	-1	1	y	1.3765
751.1863	0.2	tw	79	verb	phrase	1	6	nomatch	tôt	-1	1	y	1.3765
751.3863	0.0	+	79	verb	phrase	1	7	nomatch	tôt	-1	1	y	1.3765
751.7863	0.2	xnkl	79	verb	phrase	1	8	nomatch	tôt	-1	1	y	1.3765
751.9862999999999	0.0	+	79	verb	phrase	1	9	nomatch	tôt	-1	1	y	1.3765
752.3861999999999	0.2	voyager	79	verb	phrase	1	10	nomatch	tôt	-1	1	y	1.3765
752.5862	0.0	+	79	verb	phrase	1	11	nomatch	tôt	-1	1	y	1.3765
752.9861999999999	0.0	+	79	verb	phrase	1	12	nomatch	tôt	-1	1	y	1.3765
754.986	0.0	TÔT	79	verb	phrase	1	13	nomatch	tôt	-1	1	y	1.3765
756.4191999999999	0.0	+	79	verb	phrase	1	14	nomatch	tôt	-1	1	y	1.3765
756.3625000000001	0.0	[response]	79	verb	phrase	1	15	nomatch	tôt	-1	1	y	1.3765
757.3857999999999	0.0	+	80	verb	list	1	1	match	nager	5	1	p	0.47419
757.9358	0.2	ngmkzj	80	verb	list	1	2	match	nager	5	1	p	0.47419
758.1357999999999	0.0	+	80	verb	list	1	3	match	nager	5	1	p	0.47419
758.5358	0.2	rpcx	80	verb	list	1	4	match	nager	5	1	p	0.47419
758.7357	0.0	+	80	verb	list	1	5	match	nager	5	1	p	0.47419
759.1356999999999	0.2	stm	80	verb	list	1	6	match	nager	5	1	p	0.47419
759.3357	0.0	+	80	verb	list	1	7	match	nager	5	1	p	0.47419
759.7357	0.2	qrdt	80	verb	list	1	8	match	nager	5	1	p	0.47419
759.9355999999999	0.0	+	80	verb	list	1	9	match	nager	5	1	p	0.47419
760.3356	0.2	nager	80	verb	list	1	10	match	nager	5	1	p	0.47419
760.5355999999999	0.0	+	80	verb	list	1	11	match	nager	5	1	p	0.47419
760.9355999999999	0.0	+	80	verb	list	1	12	match	nager	5	1	p	0.47419
762.9354	0.0	NAGER	80	verb	list	1	13	match	nager	5	1	p	0.47419
763.4687	0.0	+	80	verb	list	1	14	match	nager	5	1	p	0.47419
765.3352	0.0	+	80	verb	list	1	15	match	nager	5	1	p	0.47419
766.5184999999999	0.0	+	80	verb	list	1	16	match	nager	5	1	p	0.47419
766.6184999999999	0.0	+	80	verb	list	1	17	match	nager	5	1	p	0.47419
768.0183999999999	0.0	+	80	verb	list	1	18	match	nager	5	1	p	0.47419
768.1183	0.0	+	80	verb	list	1	19	match	nager	5	1	p	0.47419
769.5182	0.0	+	80	verb	list	1	20	match	nager	5	1	p	0.47419
769.6182	0.0	+	80	verb	list	1	21	match	nager	5	1	p	0.47419
770.9848	0.0	+	80	verb	list	1	22	match	nager	5	1	p	0.47419
771.0848	0.0	+	80	verb	list	1	23	match	nager	5	1	p	0.47419
772.4847	0.0	+	80	verb	list	1	24	match	nager	5	1	p	0.47419
772.5847	0.0	+	80	verb	list	1	25	match	nager	5	1	p	0.47419
774.0011999999999	0.0	+	80	verb	list	1	26	match	nager	5	1	p	0.47419
774.1012	0.0	+	80	verb	list	1	27	match	nager	5	1	p	0.47419
775.5011	0.0	+	80	verb	list	1	28	match	nager	5	1	p	0.47419
775.6011	0.0	+	80	verb	list	1	29	match	nager	5	1	p	0.47419
777.001	0.0	+	80	verb	list	1	30	match	nager	5	1	p	0.47419
777.101	0.0	+	80	verb	list	1	31	match	nager	5	1	p	0.47419
778.5009	0.0	+	80	verb	list	1	32	match	nager	5	1	p	0.47419
778.6008999999999	0.0	+	80	verb	list	1	33	match	nager	5	1	p	0.47419
785.4837	0.0	+	80	verb	list	1	34	match	nager	5	1	p	0.47419
763.4096	0.0	[response]	80	verb	list	1	35	match	nager	5	1	p	0.47419
