onset	duration	stim	trial_number	trial_type	trial_structure	trial_length	sequential_position	probe_type	probe	probe_position	response_correct	response_key	response_time
0.06669999999999732	0.0	+	1	noun	list	1	1	nomatch	plus	-1	1	y	0.84862
0.551099999999991	0.2	svkczmx	1	noun	list	1	2	nomatch	plus	-1	1	y	0.84862
0.75	0.0	+	1	noun	list	1	3	nomatch	plus	-1	1	y	0.84862
1.1499999999999915	0.2	lnjw	1	noun	list	1	4	nomatch	plus	-1	1	y	0.84862
1.3499999999999943	0.0	+	1	noun	list	1	5	nomatch	plus	-1	1	y	0.84862
1.7498999999999967	0.2	zfj	1	noun	list	1	6	nomatch	plus	-1	1	y	0.84862
1.9498999999999995	0.0	+	1	noun	list	1	7	nomatch	plus	-1	1	y	0.84862
2.349899999999991	0.2	mkxrfgz	1	noun	list	1	8	nomatch	plus	-1	1	y	0.84862
2.549899999999994	0.0	+	1	noun	list	1	9	nomatch	plus	-1	1	y	0.84862
2.949799999999996	0.2	mieux	1	noun	list	1	10	nomatch	plus	-1	1	y	0.84862
3.149799999999999	0.0	+	1	noun	list	1	11	nomatch	plus	-1	1	y	0.84862
3.5497999999999905	0.0	+	1	noun	list	1	12	nomatch	plus	-1	1	y	0.84862
5.549599999999998	0.0	PLUS	1	noun	list	1	13	nomatch	plus	-1	1	y	0.84862
6.466199999999986	0.0	+	1	noun	list	1	14	nomatch	plus	-1	1	y	0.84862
6.398300000000006	0.0	[response]	1	noun	list	1	15	nomatch	plus	-1	1	y	0.84862
7.949399999999997	0.0	+	2	noun	phrase	3	1	nomatch	clavier	-1	1	y	0.8464600000000001
8.499399999999994	0.2	rfxc	2	noun	phrase	3	2	nomatch	clavier	-1	1	y	0.8464600000000001
8.699399999999997	0.0	+	2	noun	phrase	3	3	nomatch	clavier	-1	1	y	0.8464600000000001
9.099399999999989	0.2	mbnk	2	noun	phrase	3	4	nomatch	clavier	-1	1	y	0.8464600000000001
9.299399999999991	0.0	+	2	noun	phrase	3	5	nomatch	clavier	-1	1	y	0.8464600000000001
9.699299999999994	0.2	mon	2	noun	phrase	3	6	nomatch	clavier	-1	1	y	0.8464600000000001
9.899299999999997	0.0	+	2	noun	phrase	3	7	nomatch	clavier	-1	1	y	0.8464600000000001
10.299299999999988	0.2	vieux	2	noun	phrase	3	8	nomatch	clavier	-1	1	y	0.8464600000000001
10.499299999999991	0.0	+	2	noun	phrase	3	9	nomatch	clavier	-1	1	y	0.8464600000000001
10.899199999999993	0.2	rocher	2	noun	phrase	3	10	nomatch	clavier	-1	1	y	0.8464600000000001
11.099199999999996	0.0	+	2	noun	phrase	3	11	nomatch	clavier	-1	1	y	0.8464600000000001
11.499199999999988	0.0	+	2	noun	phrase	3	12	nomatch	clavier	-1	1	y	0.8464600000000001
13.498999999999995	0.0	CLAVIER	2	noun	phrase	3	13	nomatch	clavier	-1	1	y	0.8464600000000001
14.415599999999998	0.0	+	2	noun	phrase	3	14	nomatch	clavier	-1	1	y	0.8464600000000001
14.345499999999987	0.0	[response]	2	noun	phrase	3	15	nomatch	clavier	-1	1	y	0.8464600000000001
15.898799999999994	0.0	+	3	noun	list	3	1	nomatch	sans	-1	1	y	1.1584
16.44879999999999	0.2	fzlw	3	noun	list	3	2	nomatch	sans	-1	1	y	1.1584
16.648799999999994	0.0	+	3	noun	list	3	3	nomatch	sans	-1	1	y	1.1584
17.0488	0.2	vzfj	3	noun	list	3	4	nomatch	sans	-1	1	y	1.1584
17.2487	0.0	+	3	noun	list	3	5	nomatch	sans	-1	1	y	1.1584
17.64869999999999	0.2	son	3	noun	list	3	6	nomatch	sans	-1	1	y	1.1584
17.848699999999994	0.0	+	3	noun	list	3	7	nomatch	sans	-1	1	y	1.1584
18.2487	0.2	moins	3	noun	list	3	8	nomatch	sans	-1	1	y	1.1584
18.448699999999988	0.0	+	3	noun	list	3	9	nomatch	sans	-1	1	y	1.1584
18.84859999999999	0.2	cendrier	3	noun	list	3	10	nomatch	sans	-1	1	y	1.1584
19.048599999999993	0.0	+	3	noun	list	3	11	nomatch	sans	-1	1	y	1.1584
19.4486	0.0	+	3	noun	list	3	12	nomatch	sans	-1	1	y	1.1584
21.448399999999992	0.0	SANS	3	noun	list	3	13	nomatch	sans	-1	1	y	1.1584
22.664999999999992	0.0	+	3	noun	list	3	14	nomatch	sans	-1	1	y	1.1584
22.606800000000007	0.0	[response]	3	noun	list	3	15	nomatch	sans	-1	1	y	1.1584
31.8476	0.0	+	4	verb	list	4	1	match	rouge	5	1	p	1.6052000000000002
32.3976	0.2	ktjg	4	verb	list	4	2	match	rouge	5	1	p	1.6052000000000002
32.5976	0.0	+	4	verb	list	4	3	match	rouge	5	1	p	1.6052000000000002
32.99749999999999	0.2	adam	4	verb	list	4	4	match	rouge	5	1	p	1.6052000000000002
33.19749999999999	0.0	+	4	verb	list	4	5	match	rouge	5	1	p	1.6052000000000002
33.5975	0.2	mon	4	verb	list	4	6	match	rouge	5	1	p	1.6052000000000002
33.7975	0.0	+	4	verb	list	4	7	match	rouge	5	1	p	1.6052000000000002
34.19739999999999	0.2	jongler	4	verb	list	4	8	match	rouge	5	1	p	1.6052000000000002
34.39739999999999	0.0	+	4	verb	list	4	9	match	rouge	5	1	p	1.6052000000000002
34.797399999999996	0.2	rouge	4	verb	list	4	10	match	rouge	5	1	p	1.6052000000000002
34.9974	0.0	+	4	verb	list	4	11	match	rouge	5	1	p	1.6052000000000002
35.39729999999999	0.0	+	4	verb	list	4	12	match	rouge	5	1	p	1.6052000000000002
37.3972	0.0	ROUGE	4	verb	list	4	13	match	rouge	5	1	p	1.6052000000000002
39.0637	0.0	+	4	verb	list	4	14	match	rouge	5	1	p	1.6052000000000002
39.002399999999994	0.0	[response]	4	verb	list	4	15	match	rouge	5	1	p	1.6052000000000002
39.797	0.0	+	5	noun	list	1	1	match	ainsi	5	1	p	0.88681
40.346999999999994	0.2	sbmtnkr	5	noun	list	1	2	match	ainsi	5	1	p	0.88681
40.547	0.0	+	5	noun	list	1	3	match	ainsi	5	1	p	0.88681
40.9469	0.2	jcvb	5	noun	list	1	4	match	ainsi	5	1	p	0.88681
41.14689999999999	0.0	+	5	noun	list	1	5	match	ainsi	5	1	p	0.88681
41.546899999999994	0.2	tw	5	noun	list	1	6	match	ainsi	5	1	p	0.88681
41.74689999999998	0.0	+	5	noun	list	1	7	match	ainsi	5	1	p	0.88681
42.146799999999985	0.2	gnlzmd	5	noun	list	1	8	match	ainsi	5	1	p	0.88681
42.3468	0.0	+	5	noun	list	1	9	match	ainsi	5	1	p	0.88681
42.74679999999998	0.2	ainsi	5	noun	list	1	10	match	ainsi	5	1	p	0.88681
42.946799999999996	0.0	+	5	noun	list	1	11	match	ainsi	5	1	p	0.88681
43.3467	0.0	+	5	noun	list	1	12	match	ainsi	5	1	p	0.88681
45.346599999999995	0.0	AINSI	5	noun	list	1	13	match	ainsi	5	1	p	0.88681
46.29649999999998	0.0	+	5	noun	list	1	14	match	ainsi	5	1	p	0.88681
46.23339999999999	0.0	[response]	5	noun	list	1	15	match	ainsi	5	1	p	0.88681
47.746399999999994	0.0	+	6	noun	list	4	1	nomatch	plus	-1	1	y	1.308
48.296400000000006	0.2	gnpwvh	6	noun	list	4	2	nomatch	plus	-1	1	y	1.308
48.49629999999999	0.0	+	6	noun	list	4	3	nomatch	plus	-1	1	y	1.308
48.8963	0.2	yves	6	noun	list	4	4	nomatch	plus	-1	1	y	1.308
49.096299999999985	0.0	+	6	noun	list	4	5	nomatch	plus	-1	1	y	1.308
49.49629999999999	0.2	son	6	noun	list	4	6	nomatch	plus	-1	1	y	1.308
49.69629999999998	0.0	+	6	noun	list	4	7	nomatch	plus	-1	1	y	1.308
50.09619999999998	0.2	trop	6	noun	list	4	8	nomatch	plus	-1	1	y	1.308
50.2962	0.0	+	6	noun	list	4	9	nomatch	plus	-1	1	y	1.308
50.696799999999996	0.2	grenier	6	noun	list	4	10	nomatch	plus	-1	1	y	1.308
50.89619999999999	0.0	+	6	noun	list	4	11	nomatch	plus	-1	1	y	1.308
51.296099999999996	0.0	+	6	noun	list	4	12	nomatch	plus	-1	1	y	1.308
53.29599999999999	0.0	PLUS	6	noun	list	4	13	nomatch	plus	-1	1	y	1.308
54.662499999999994	0.0	+	6	noun	list	4	14	nomatch	plus	-1	1	y	1.308
54.603999999999985	0.0	[response]	6	noun	list	4	15	nomatch	plus	-1	1	y	1.308
55.69579999999999	0.0	+	7	verb	list	1	1	match	nouveau	5	1	p	0.89067
56.2457	0.2	glkxn	7	verb	list	1	2	match	nouveau	5	1	p	0.89067
56.44569999999999	0.0	+	7	verb	list	1	3	match	nouveau	5	1	p	0.89067
56.845699999999994	0.2	qlk	7	verb	list	1	4	match	nouveau	5	1	p	0.89067
57.04569999999998	0.0	+	7	verb	list	1	5	match	nouveau	5	1	p	0.89067
57.44569999999999	0.2	kbcr	7	verb	list	1	6	match	nouveau	5	1	p	0.89067
57.6456	0.0	+	7	verb	list	1	7	match	nouveau	5	1	p	0.89067
58.04560000000001	0.2	wbrkncv	7	verb	list	1	8	match	nouveau	5	1	p	0.89067
58.245599999999996	0.0	+	7	verb	list	1	9	match	nouveau	5	1	p	0.89067
58.6456	0.2	nouveau	7	verb	list	1	10	match	nouveau	5	1	p	0.89067
58.84549999999999	0.0	+	7	verb	list	1	11	match	nouveau	5	1	p	0.89067
59.24549999999999	0.0	+	7	verb	list	1	12	match	nouveau	5	1	p	0.89067
61.24539999999999	0.0	NOUVEAU	7	verb	list	1	13	match	nouveau	5	1	p	0.89067
62.1953	0.0	+	7	verb	list	1	14	match	nouveau	5	1	p	0.89067
62.135999999999996	0.0	[response]	7	verb	list	1	15	match	nouveau	5	1	p	0.89067
63.64519999999999	0.0	+	8	noun	list	1	1	nomatch	trop	-1	1	y	0.713
64.1951	0.2	nspqrd	8	noun	list	1	2	nomatch	trop	-1	1	y	0.713
64.39509999999999	0.0	+	8	noun	list	1	3	nomatch	trop	-1	1	y	0.713
64.79509999999999	0.2	swgv	8	noun	list	1	4	nomatch	trop	-1	1	y	0.713
64.99509999999998	0.0	+	8	noun	list	1	5	nomatch	trop	-1	1	y	0.713
65.39499999999998	0.2	zfj	8	noun	list	1	6	nomatch	trop	-1	1	y	0.713
65.595	0.0	+	8	noun	list	1	7	nomatch	trop	-1	1	y	0.713
65.995	0.2	gnlzmd	8	noun	list	1	8	nomatch	trop	-1	1	y	0.713
66.195	0.0	+	8	noun	list	1	9	nomatch	trop	-1	1	y	0.713
66.5949	0.2	beaucoup	8	noun	list	1	10	nomatch	trop	-1	1	y	0.713
66.79489999999998	0.0	+	8	noun	list	1	11	nomatch	trop	-1	1	y	0.713
67.19489999999999	0.0	+	8	noun	list	1	12	nomatch	trop	-1	1	y	0.713
69.19469999999998	0.0	TROP	8	noun	list	1	13	nomatch	trop	-1	1	y	0.713
69.97799999999998	0.0	+	8	noun	list	1	14	nomatch	trop	-1	1	y	0.713
69.9077	0.0	[response]	8	noun	list	1	15	nomatch	trop	-1	1	y	0.713
71.59459999999999	0.0	+	9	verb	phrase	1	1	match	loin	5	1	p	0.83784
72.1445	0.2	ngq	9	verb	phrase	1	2	match	loin	5	1	p	0.83784
72.34449999999998	0.0	+	9	verb	phrase	1	3	match	loin	5	1	p	0.83784
72.74449999999999	0.2	vzfj	9	verb	phrase	1	4	match	loin	5	1	p	0.83784
72.9445	0.0	+	9	verb	phrase	1	5	match	loin	5	1	p	0.83784
73.34440000000001	0.2	tw	9	verb	phrase	1	6	match	loin	5	1	p	0.83784
73.5444	0.0	+	9	verb	phrase	1	7	match	loin	5	1	p	0.83784
73.9444	0.2	tcvmrdq	9	verb	phrase	1	8	match	loin	5	1	p	0.83784
74.14439999999999	0.0	+	9	verb	phrase	1	9	match	loin	5	1	p	0.83784
74.54429999999999	0.2	loin	9	verb	phrase	1	10	match	loin	5	1	p	0.83784
74.74429999999998	0.0	+	9	verb	phrase	1	11	match	loin	5	1	p	0.83784
75.14429999999999	0.0	+	9	verb	phrase	1	12	match	loin	5	1	p	0.83784
77.14409999999998	0.0	LOIN	9	verb	phrase	1	13	match	loin	5	1	p	0.83784
78.04409999999999	0.0	+	9	verb	phrase	1	14	match	loin	5	1	p	0.83784
77.98200000000003	0.0	[response]	9	verb	phrase	1	15	match	loin	5	1	p	0.83784
79.54389999999998	0.0	+	10	noun	list	3	1	match	va	3	1	p	1.119
80.09389999999999	0.2	htplx	10	noun	list	3	2	match	va	3	1	p	1.119
80.29389999999998	0.0	+	10	noun	list	3	3	match	va	3	1	p	1.119
80.69389999999999	0.2	cfwl	10	noun	list	3	4	match	va	3	1	p	1.119
80.8938	0.0	+	10	noun	list	3	5	match	va	3	1	p	1.119
81.2938	0.2	va	10	noun	list	3	6	match	va	3	1	p	1.119
81.4938	0.0	+	10	noun	list	3	7	match	va	3	1	p	1.119
81.8938	0.2	sablier	10	noun	list	3	8	match	va	3	1	p	1.119
82.09379999999999	0.0	+	10	noun	list	3	9	match	va	3	1	p	1.119
82.49369999999999	0.2	vite	10	noun	list	3	10	match	va	3	1	p	1.119
82.6937	0.0	+	10	noun	list	3	11	match	va	3	1	p	1.119
83.09369999999998	0.0	+	10	noun	list	3	12	match	va	3	1	p	1.119
85.0935	0.0	VA	10	noun	list	3	13	match	va	3	1	p	1.119
86.27679999999998	0.0	+	10	noun	list	3	14	match	va	3	1	p	1.119
86.2125	0.0	[response]	10	noun	list	3	15	match	va	3	1	p	1.119
87.4933	0.0	+	11	noun	list	1	1	nomatch	plus	-1	1	y	1.487
88.04329999999999	0.2	ltwm	11	noun	list	1	2	nomatch	plus	-1	1	y	1.487
88.2433	0.0	+	11	noun	list	1	3	nomatch	plus	-1	1	y	1.487
88.64320000000001	0.2	bjlw	11	noun	list	1	4	nomatch	plus	-1	1	y	1.487
88.8432	0.0	+	11	noun	list	1	5	nomatch	plus	-1	1	y	1.487
89.2432	0.2	nlfk	11	noun	list	1	6	nomatch	plus	-1	1	y	1.487
89.44319999999999	0.0	+	11	noun	list	1	7	nomatch	plus	-1	1	y	1.487
89.8432	0.2	zcmdkht	11	noun	list	1	8	nomatch	plus	-1	1	y	1.487
90.04309999999998	0.0	+	11	noun	list	1	9	nomatch	plus	-1	1	y	1.487
90.44309999999999	0.2	trop	11	noun	list	1	10	nomatch	plus	-1	1	y	1.487
90.6431	0.0	+	11	noun	list	1	11	nomatch	plus	-1	1	y	1.487
91.04309999999998	0.0	+	11	noun	list	1	12	nomatch	plus	-1	1	y	1.487
93.0429	0.0	PLUS	11	noun	list	1	13	nomatch	plus	-1	1	y	1.487
94.59279999999998	0.0	+	11	noun	list	1	14	nomatch	plus	-1	1	y	1.487
94.5299	0.0	[response]	11	noun	list	1	15	nomatch	plus	-1	1	y	1.487
95.4427	0.0	+	12	noun	phrase	4	1	nomatch	sous	-1	1	y	0.7508000000000001
95.99269999999999	0.2	svbrfdc	12	noun	phrase	4	2	nomatch	sous	-1	1	y	0.7508000000000001
96.1927	0.0	+	12	noun	phrase	4	3	nomatch	sous	-1	1	y	0.7508000000000001
96.5926	0.2	sur	12	noun	phrase	4	4	nomatch	sous	-1	1	y	0.7508000000000001
96.7926	0.0	+	12	noun	phrase	4	5	nomatch	sous	-1	1	y	0.7508000000000001
97.1926	0.2	son	12	noun	phrase	4	6	nomatch	sous	-1	1	y	0.7508000000000001
97.39259999999999	0.0	+	12	noun	phrase	4	7	nomatch	sous	-1	1	y	0.7508000000000001
97.79249999999999	0.2	tablier	12	noun	phrase	4	8	nomatch	sous	-1	1	y	0.7508000000000001
97.9925	0.0	+	12	noun	phrase	4	9	nomatch	sous	-1	1	y	0.7508000000000001
98.39249999999998	0.2	vert	12	noun	phrase	4	10	nomatch	sous	-1	1	y	0.7508000000000001
98.5925	0.0	+	12	noun	phrase	4	11	nomatch	sous	-1	1	y	0.7508000000000001
98.9925	0.0	+	12	noun	phrase	4	12	nomatch	sous	-1	1	y	0.7508000000000001
100.9923	0.0	SOUS	12	noun	phrase	4	13	nomatch	sous	-1	1	y	0.7508000000000001
101.8089	0.0	+	12	noun	phrase	4	14	nomatch	sous	-1	1	y	0.7508000000000001
101.7431	0.0	[response]	12	noun	phrase	4	15	nomatch	sous	-1	1	y	0.7508000000000001
103.3921	0.0	+	13	noun	phrase	1	1	nomatch	dans	-1	1	y	0.58402
103.94209999999998	0.2	czn	13	noun	phrase	1	2	nomatch	dans	-1	1	y	0.58402
104.1421	0.0	+	13	noun	phrase	1	3	nomatch	dans	-1	1	y	0.58402
104.542	0.2	qrgw	13	noun	phrase	1	4	nomatch	dans	-1	1	y	0.58402
104.74199999999999	0.0	+	13	noun	phrase	1	5	nomatch	dans	-1	1	y	0.58402
105.142	0.2	nlfk	13	noun	phrase	1	6	nomatch	dans	-1	1	y	0.58402
105.34199999999998	0.0	+	13	noun	phrase	1	7	nomatch	dans	-1	1	y	0.58402
105.74189999999999	0.2	qpmnkfg	13	noun	phrase	1	8	nomatch	dans	-1	1	y	0.58402
105.9419	0.0	+	13	noun	phrase	1	9	nomatch	dans	-1	1	y	0.58402
106.34189999999998	0.2	grenier	13	noun	phrase	1	10	nomatch	dans	-1	1	y	0.58402
106.5419	0.0	+	13	noun	phrase	1	11	nomatch	dans	-1	1	y	0.58402
106.9418	0.0	+	13	noun	phrase	1	12	nomatch	dans	-1	1	y	0.58402
108.9417	0.0	DANS	13	noun	phrase	1	13	nomatch	dans	-1	1	y	0.58402
109.5916	0.0	+	13	noun	phrase	1	14	nomatch	dans	-1	1	y	0.58402
109.5257	0.0	[response]	13	noun	phrase	1	15	nomatch	dans	-1	1	y	0.58402
111.3415	0.0	+	14	noun	phrase	1	1	nomatch	clavier	-1	0	p	1.3343
111.89149999999998	0.2	fzjgnl	14	noun	phrase	1	2	nomatch	clavier	-1	0	p	1.3343
112.0914	0.0	+	14	noun	phrase	1	3	nomatch	clavier	-1	0	p	1.3343
112.4914	0.2	cfwl	14	noun	phrase	1	4	nomatch	clavier	-1	0	p	1.3343
112.69139999999999	0.0	+	14	noun	phrase	1	5	nomatch	clavier	-1	0	p	1.3343
113.0914	0.2	zfj	14	noun	phrase	1	6	nomatch	clavier	-1	0	p	1.3343
113.29139999999998	0.0	+	14	noun	phrase	1	7	nomatch	clavier	-1	0	p	1.3343
113.69129999999998	0.2	rbcf	14	noun	phrase	1	8	nomatch	clavier	-1	0	p	1.3343
113.8913	0.0	+	14	noun	phrase	1	9	nomatch	clavier	-1	0	p	1.3343
114.2913	0.2	rocher	14	noun	phrase	1	10	nomatch	clavier	-1	0	p	1.3343
114.4913	0.0	+	14	noun	phrase	1	11	nomatch	clavier	-1	0	p	1.3343
114.8912	0.0	+	14	noun	phrase	1	12	nomatch	clavier	-1	0	p	1.3343
116.8911	0.0	CLAVIER	14	noun	phrase	1	13	nomatch	clavier	-1	0	p	1.3343
118.291	0.0	+	14	noun	phrase	1	14	nomatch	clavier	-1	0	p	1.3343
118.2253	0.0	[response]	14	noun	phrase	1	15	nomatch	clavier	-1	0	p	1.3343
119.2909	0.0	+	15	verb	phrase	1	1	nomatch	moins	-1	1	y	0.63584
119.8408	0.2	rtjsgmf	15	verb	phrase	1	2	nomatch	moins	-1	1	y	0.63584
120.04079999999999	0.0	+	15	verb	phrase	1	3	nomatch	moins	-1	1	y	0.63584
120.4408	0.2	lnjw	15	verb	phrase	1	4	nomatch	moins	-1	1	y	0.63584
120.64079999999998	0.0	+	15	verb	phrase	1	5	nomatch	moins	-1	1	y	0.63584
121.04079999999999	0.2	tw	15	verb	phrase	1	6	nomatch	moins	-1	1	y	0.63584
121.2407	0.0	+	15	verb	phrase	1	7	nomatch	moins	-1	1	y	0.63584
121.64069999999998	0.2	pbnvrm	15	verb	phrase	1	8	nomatch	moins	-1	1	y	0.63584
121.8407	0.0	+	15	verb	phrase	1	9	nomatch	moins	-1	1	y	0.63584
122.2407	0.2	trop	15	verb	phrase	1	10	nomatch	moins	-1	1	y	0.63584
122.44059999999999	0.0	+	15	verb	phrase	1	11	nomatch	moins	-1	1	y	0.63584
122.8406	0.0	+	15	verb	phrase	1	12	nomatch	moins	-1	1	y	0.63584
124.84049999999999	0.0	MOINS	15	verb	phrase	1	13	nomatch	moins	-1	1	y	0.63584
125.5404	0.0	+	15	verb	phrase	1	14	nomatch	moins	-1	1	y	0.63584
125.47629999999998	0.0	[response]	15	verb	phrase	1	15	nomatch	moins	-1	1	y	0.63584
127.24029999999999	0.0	+	16	noun	list	3	1	match	beaucoup	4	1	p	0.99618
127.7902	0.2	jbwlmp	16	noun	list	3	2	match	beaucoup	4	1	p	0.99618
127.99019999999999	0.0	+	16	noun	list	3	3	match	beaucoup	4	1	p	0.99618
128.3902	0.2	ftb	16	noun	list	3	4	match	beaucoup	4	1	p	0.99618
128.59019999999998	0.0	+	16	noun	list	3	5	match	beaucoup	4	1	p	0.99618
128.99009999999998	0.2	mon	16	noun	list	3	6	match	beaucoup	4	1	p	0.99618
129.1901	0.0	+	16	noun	list	3	7	match	beaucoup	4	1	p	0.99618
129.5901	0.2	beaucoup	16	noun	list	3	8	match	beaucoup	4	1	p	0.99618
129.7901	0.0	+	16	noun	list	3	9	match	beaucoup	4	1	p	0.99618
130.1901	0.2	tablier	16	noun	list	3	10	match	beaucoup	4	1	p	0.99618
130.39	0.0	+	16	noun	list	3	11	match	beaucoup	4	1	p	0.99618
130.79	0.0	+	16	noun	list	3	12	match	beaucoup	4	1	p	0.99618
132.7899	0.0	BEAUCOUP	16	noun	list	3	13	match	beaucoup	4	1	p	0.99618
133.85639999999998	0.0	+	16	noun	list	3	14	match	beaucoup	4	1	p	0.99618
133.786	0.0	[response]	16	noun	list	3	15	match	beaucoup	4	1	p	0.99618
135.1897	0.0	+	17	noun	phrase	1	1	nomatch	vieux	-1	1	y	0.86864
135.7396	0.2	bdmc	17	noun	phrase	1	2	nomatch	vieux	-1	1	y	0.86864
135.93959999999998	0.0	+	17	noun	phrase	1	3	nomatch	vieux	-1	1	y	0.86864
136.3396	0.2	jcvb	17	noun	phrase	1	4	nomatch	vieux	-1	1	y	0.86864
136.5396	0.0	+	17	noun	phrase	1	5	nomatch	vieux	-1	1	y	0.86864
136.93949999999998	0.2	zfj	17	noun	phrase	1	6	nomatch	vieux	-1	1	y	0.86864
137.1395	0.0	+	17	noun	phrase	1	7	nomatch	vieux	-1	1	y	0.86864
137.5395	0.2	xqtrdhs	17	noun	phrase	1	8	nomatch	vieux	-1	1	y	0.86864
137.7395	0.0	+	17	noun	phrase	1	9	nomatch	vieux	-1	1	y	0.86864
138.1394	0.2	petit	17	noun	phrase	1	10	nomatch	vieux	-1	1	y	0.86864
138.33939999999998	0.0	+	17	noun	phrase	1	11	nomatch	vieux	-1	1	y	0.86864
138.7394	0.0	+	17	noun	phrase	1	12	nomatch	vieux	-1	1	y	0.86864
140.73919999999998	0.0	VIEUX	17	noun	phrase	1	13	nomatch	vieux	-1	1	y	0.86864
141.67249999999999	0.0	+	17	noun	phrase	1	14	nomatch	vieux	-1	1	y	0.86864
141.6079	0.0	[response]	17	noun	phrase	1	15	nomatch	vieux	-1	1	y	0.86864
143.13899999999998	0.0	+	18	noun	list	1	1	match	tablier	5	0	y	0.86591
143.689	0.2	bqw	18	noun	list	1	2	match	tablier	5	0	y	0.86591
143.88899999999998	0.0	+	18	noun	list	1	3	match	tablier	5	0	y	0.86591
144.289	0.2	qlk	18	noun	list	1	4	match	tablier	5	0	y	0.86591
144.4889	0.0	+	18	noun	list	1	5	match	tablier	5	0	y	0.86591
144.8889	0.2	clzr	18	noun	list	1	6	match	tablier	5	0	y	0.86591
145.0889	0.0	+	18	noun	list	1	7	match	tablier	5	0	y	0.86591
145.4889	0.2	rbn	18	noun	list	1	8	match	tablier	5	0	y	0.86591
145.6889	0.0	+	18	noun	list	1	9	match	tablier	5	0	y	0.86591
146.0888	0.2	tablier	18	noun	list	1	10	match	tablier	5	0	y	0.86591
146.28879999999998	0.0	+	18	noun	list	1	11	match	tablier	5	0	y	0.86591
146.6888	0.0	+	18	noun	list	1	12	match	tablier	5	0	y	0.86591
148.68859999999998	0.0	TABLIER	18	noun	list	1	13	match	tablier	5	0	y	0.86591
149.62189999999998	0.0	+	18	noun	list	1	14	match	tablier	5	0	y	0.86591
149.5545	0.0	[response]	18	noun	list	1	15	match	tablier	5	0	y	0.86591
151.0884	0.0	+	19	noun	list	4	1	nomatch	sans	-1	0	TIMEOUT	-1.0
151.6384	0.2	xctd	19	noun	list	4	2	nomatch	sans	-1	0	TIMEOUT	-1.0
151.8384	0.0	+	19	noun	list	4	3	nomatch	sans	-1	0	TIMEOUT	-1.0
152.23839999999998	0.2	sur	19	noun	list	4	4	nomatch	sans	-1	0	TIMEOUT	-1.0
152.4383	0.0	+	19	noun	list	4	5	nomatch	sans	-1	0	TIMEOUT	-1.0
152.8383	0.2	doit	19	noun	list	4	6	nomatch	sans	-1	0	TIMEOUT	-1.0
153.0383	0.0	+	19	noun	list	4	7	nomatch	sans	-1	0	TIMEOUT	-1.0
153.4383	0.2	grenier	19	noun	list	4	8	nomatch	sans	-1	0	TIMEOUT	-1.0
153.63819999999998	0.0	+	19	noun	list	4	9	nomatch	sans	-1	0	TIMEOUT	-1.0
154.0382	0.2	tôt	19	noun	list	4	10	nomatch	sans	-1	0	TIMEOUT	-1.0
154.2382	0.0	+	19	noun	list	4	11	nomatch	sans	-1	0	TIMEOUT	-1.0
154.63819999999998	0.0	+	19	noun	list	4	12	nomatch	sans	-1	0	TIMEOUT	-1.0
156.638	0.0	SANS	19	noun	list	4	13	nomatch	sans	-1	0	TIMEOUT	-1.0
159.0545	0.0	+	20	noun	phrase	2	1	match	rouge	5	1	p	2.3546
159.6378	0.2	pltdk	20	noun	phrase	2	2	match	rouge	5	1	p	2.3546
159.8378	0.0	+	20	noun	phrase	2	3	match	rouge	5	1	p	2.3546
160.2377	0.2	qlk	20	noun	phrase	2	4	match	rouge	5	1	p	2.3546
160.4377	0.0	+	20	noun	phrase	2	5	match	rouge	5	1	p	2.3546
160.83769999999998	0.2	zfj	20	noun	phrase	2	6	match	rouge	5	1	p	2.3546
161.0377	0.0	+	20	noun	phrase	2	7	match	rouge	5	1	p	2.3546
161.4376	0.2	clavier	20	noun	phrase	2	8	match	rouge	5	1	p	2.3546
161.6376	0.0	+	20	noun	phrase	2	9	match	rouge	5	1	p	2.3546
162.0376	0.2	rouge	20	noun	phrase	2	10	match	rouge	5	1	p	2.3546
162.2376	0.0	+	20	noun	phrase	2	11	match	rouge	5	1	p	2.3546
162.6375	0.0	+	20	noun	phrase	2	12	match	rouge	5	1	p	2.3546
164.63739999999999	0.0	ROUGE	20	noun	phrase	2	13	match	rouge	5	1	p	2.3546
167.0539	0.0	+	20	noun	phrase	2	14	match	rouge	5	1	p	2.3546
166.992	0.0	[response]	20	noun	phrase	2	15	match	rouge	5	1	p	2.3546
175.0366	0.0	+	21	verb	list	1	1	nomatch	beau	-1	0	TIMEOUT	-1.0
175.5866	0.2	gbchzln	21	verb	list	1	2	nomatch	beau	-1	0	TIMEOUT	-1.0
175.78650000000002	0.0	+	21	verb	list	1	3	nomatch	beau	-1	0	TIMEOUT	-1.0
176.1865	0.2	mbnk	21	verb	list	1	4	nomatch	beau	-1	0	TIMEOUT	-1.0
176.38649999999998	0.0	+	21	verb	list	1	5	nomatch	beau	-1	0	TIMEOUT	-1.0
176.78650000000002	0.2	kbcr	21	verb	list	1	6	nomatch	beau	-1	0	TIMEOUT	-1.0
176.98639999999997	0.0	+	21	verb	list	1	7	nomatch	beau	-1	0	TIMEOUT	-1.0
177.3864	0.2	dvktf	21	verb	list	1	8	nomatch	beau	-1	0	TIMEOUT	-1.0
177.5864	0.0	+	21	verb	list	1	9	nomatch	beau	-1	0	TIMEOUT	-1.0
177.98639999999997	0.2	grand	21	verb	list	1	10	nomatch	beau	-1	0	TIMEOUT	-1.0
178.18640000000002	0.0	+	21	verb	list	1	11	nomatch	beau	-1	0	TIMEOUT	-1.0
178.58629999999997	0.0	+	21	verb	list	1	12	nomatch	beau	-1	0	TIMEOUT	-1.0
180.5862	0.0	BEAU	21	verb	list	1	13	nomatch	beau	-1	0	TIMEOUT	-1.0
183.0026	0.0	+	22	verb	phrase	1	1	nomatch	jongler	-1	1	y	0.68308
183.5859	0.2	rphw	22	verb	phrase	1	2	nomatch	jongler	-1	1	y	0.68308
183.7859	0.0	+	22	verb	phrase	1	3	nomatch	jongler	-1	1	y	0.68308
184.18589999999998	0.2	vzfj	22	verb	phrase	1	4	nomatch	jongler	-1	1	y	0.68308
184.38590000000002	0.0	+	22	verb	phrase	1	5	nomatch	jongler	-1	1	y	0.68308
184.78579999999997	0.2	clzr	22	verb	phrase	1	6	nomatch	jongler	-1	1	y	0.68308
184.9858	0.0	+	22	verb	phrase	1	7	nomatch	jongler	-1	1	y	0.68308
185.3858	0.2	cbsr	22	verb	phrase	1	8	nomatch	jongler	-1	1	y	0.68308
185.58579999999998	0.0	+	22	verb	phrase	1	9	nomatch	jongler	-1	1	y	0.68308
185.9858	0.2	chasser	22	verb	phrase	1	10	nomatch	jongler	-1	1	y	0.68308
186.18569999999997	0.0	+	22	verb	phrase	1	11	nomatch	jongler	-1	1	y	0.68308
186.5857	0.0	+	22	verb	phrase	1	12	nomatch	jongler	-1	1	y	0.68308
188.58559999999997	0.0	JONGLER	22	verb	phrase	1	13	nomatch	jongler	-1	1	y	0.68308
189.3355	0.0	+	22	verb	phrase	1	14	nomatch	jongler	-1	1	y	0.68308
189.26860000000002	0.0	[response]	22	verb	phrase	1	15	nomatch	jongler	-1	1	y	0.68308
190.9854	0.0	+	23	noun	phrase	2	1	match	panier	5	1	p	0.93538
191.53529999999998	0.2	gljmpv	23	noun	phrase	2	2	match	panier	5	1	p	0.93538
191.73529999999997	0.0	+	23	noun	phrase	2	3	match	panier	5	1	p	0.93538
192.1353	0.2	jcvb	23	noun	phrase	2	4	match	panier	5	1	p	0.93538
192.3353	0.0	+	23	noun	phrase	2	5	match	panier	5	1	p	0.93538
192.7352	0.2	zfj	23	noun	phrase	2	6	match	panier	5	1	p	0.93538
192.93519999999998	0.0	+	23	noun	phrase	2	7	match	panier	5	1	p	0.93538
193.33520000000001	0.2	vieux	23	noun	phrase	2	8	match	panier	5	1	p	0.93538
193.53529999999998	0.0	+	23	noun	phrase	2	9	match	panier	5	1	p	0.93538
193.9351	0.2	panier	23	noun	phrase	2	10	match	panier	5	1	p	0.93538
194.1351	0.0	+	23	noun	phrase	2	11	match	panier	5	1	p	0.93538
194.53509999999997	0.0	+	23	noun	phrase	2	12	match	panier	5	1	p	0.93538
196.53489999999996	0.0	PANIER	23	noun	phrase	2	13	match	panier	5	1	p	0.93538
197.53489999999996	0.0	+	23	noun	phrase	2	14	match	panier	5	1	p	0.93538
197.47029999999998	0.0	[response]	23	noun	phrase	2	15	match	panier	5	1	p	0.93538
206.9508	0.0	+	24	verb	list	2	1	match	blanc	5	0	y	1.0481000000000003
207.5008	0.2	cgpmw	24	verb	list	2	2	match	blanc	5	0	y	1.0481000000000003
207.7007	0.0	+	24	verb	list	2	3	match	blanc	5	0	y	1.0481000000000003
208.1007	0.2	swgv	24	verb	list	2	4	match	blanc	5	0	y	1.0481000000000003
208.30069999999998	0.0	+	24	verb	list	2	5	match	blanc	5	0	y	1.0481000000000003
208.7007	0.2	stm	24	verb	list	2	6	match	blanc	5	0	y	1.0481000000000003
208.9007	0.0	+	24	verb	list	2	7	match	blanc	5	0	y	1.0481000000000003
209.3006	0.2	danser	24	verb	list	2	8	match	blanc	5	0	y	1.0481000000000003
209.5006	0.0	+	24	verb	list	2	9	match	blanc	5	0	y	1.0481000000000003
209.90059999999997	0.2	blanc	24	verb	list	2	10	match	blanc	5	0	y	1.0481000000000003
210.10060000000001	0.0	+	24	verb	list	2	11	match	blanc	5	0	y	1.0481000000000003
210.50050000000002	0.0	+	24	verb	list	2	12	match	blanc	5	0	y	1.0481000000000003
212.50039999999998	0.0	BLANC	24	verb	list	2	13	match	blanc	5	0	y	1.0481000000000003
213.61690000000002	0.0	+	24	verb	list	2	14	match	blanc	5	0	y	1.0481000000000003
213.54850000000002	0.0	[response]	24	verb	list	2	15	match	blanc	5	0	y	1.0481000000000003
214.9002	0.0	+	25	noun	phrase	3	1	match	mon	3	0	y	0.64537
215.4501	0.2	cpgmfq	25	noun	phrase	3	2	match	mon	3	0	y	0.64537
215.65009999999998	0.0	+	25	noun	phrase	3	3	match	mon	3	0	y	0.64537
216.05010000000001	0.2	qlk	25	noun	phrase	3	4	match	mon	3	0	y	0.64537
216.2501	0.0	+	25	noun	phrase	3	5	match	mon	3	0	y	0.64537
216.65009999999998	0.2	mon	25	noun	phrase	3	6	match	mon	3	0	y	0.64537
216.85	0.0	+	25	noun	phrase	3	7	match	mon	3	0	y	0.64537
217.24999999999997	0.2	panier	25	noun	phrase	3	8	match	mon	3	0	y	0.64537
217.45000000000002	0.0	+	25	noun	phrase	3	9	match	mon	3	0	y	0.64537
217.85	0.2	rouge	25	noun	phrase	3	10	match	mon	3	0	y	0.64537
218.0499	0.0	+	25	noun	phrase	3	11	match	mon	3	0	y	0.64537
218.44989999999999	0.0	+	25	noun	phrase	3	12	match	mon	3	0	y	0.64537
220.4498	0.0	MON	25	noun	phrase	3	13	match	mon	3	0	y	0.64537
221.14969999999997	0.0	+	25	noun	phrase	3	14	match	mon	3	0	y	0.64537
221.09509999999997	0.0	[response]	25	noun	phrase	3	15	match	mon	3	0	y	0.64537
222.84959999999998	0.0	+	26	noun	phrase	1	1	nomatch	trop	-1	1	y	0.61741
223.39950000000002	0.2	mfbcx	26	noun	phrase	1	2	nomatch	trop	-1	1	y	0.61741
223.5995	0.0	+	26	noun	phrase	1	3	nomatch	trop	-1	1	y	0.61741
223.99949999999998	0.2	jztp	26	noun	phrase	1	4	nomatch	trop	-1	1	y	0.61741
224.19949999999997	0.0	+	26	noun	phrase	1	5	nomatch	trop	-1	1	y	0.61741
224.59939999999997	0.2	nlfk	26	noun	phrase	1	6	nomatch	trop	-1	1	y	0.61741
224.79940000000002	0.0	+	26	noun	phrase	1	7	nomatch	trop	-1	1	y	0.61741
225.1994	0.2	svbjp	26	noun	phrase	1	8	nomatch	trop	-1	1	y	0.61741
225.39939999999999	0.0	+	26	noun	phrase	1	9	nomatch	trop	-1	1	y	0.61741
225.79940000000002	0.2	clavier	26	noun	phrase	1	10	nomatch	trop	-1	1	y	0.61741
225.99929999999998	0.0	+	26	noun	phrase	1	11	nomatch	trop	-1	1	y	0.61741
226.3993	0.0	+	26	noun	phrase	1	12	nomatch	trop	-1	1	y	0.61741
228.39919999999998	0.0	TROP	26	noun	phrase	1	13	nomatch	trop	-1	1	y	0.61741
229.08239999999998	0.0	+	26	noun	phrase	1	14	nomatch	trop	-1	1	y	0.61741
229.0166	0.0	[response]	26	noun	phrase	1	15	nomatch	trop	-1	1	y	0.61741
230.799	0.0	+	27	verb	phrase	3	1	match	tard	5	0	TIMEOUT	-1.0
231.3489	0.2	sfqzlh	27	verb	phrase	3	2	match	tard	5	0	TIMEOUT	-1.0
231.54889999999997	0.0	+	27	verb	phrase	3	3	match	tard	5	0	TIMEOUT	-1.0
231.9489	0.2	ftb	27	verb	phrase	3	4	match	tard	5	0	TIMEOUT	-1.0
232.1489	0.0	+	27	verb	phrase	3	5	match	tard	5	0	TIMEOUT	-1.0
232.5488	0.2	va	27	verb	phrase	3	6	match	tard	5	0	TIMEOUT	-1.0
232.7488	0.0	+	27	verb	phrase	3	7	match	tard	5	0	TIMEOUT	-1.0
233.14879999999997	0.2	plonger	27	verb	phrase	3	8	match	tard	5	0	TIMEOUT	-1.0
233.3488	0.0	+	27	verb	phrase	3	9	match	tard	5	0	TIMEOUT	-1.0
233.7487	0.2	tard	27	verb	phrase	3	10	match	tard	5	0	TIMEOUT	-1.0
233.9487	0.0	+	27	verb	phrase	3	11	match	tard	5	0	TIMEOUT	-1.0
234.34869999999998	0.0	+	27	verb	phrase	3	12	match	tard	5	0	TIMEOUT	-1.0
236.34849999999997	0.0	TARD	27	verb	phrase	3	13	match	tard	5	0	TIMEOUT	-1.0
238.7483	0.0	+	28	noun	phrase	3	1	nomatch	leur	-1	1	y	0.55895
239.34829999999997	0.2	vmnxh	28	noun	phrase	3	2	nomatch	leur	-1	1	y	0.55895
239.5483	0.0	+	28	noun	phrase	3	3	nomatch	leur	-1	1	y	0.55895
239.9483	0.2	qlk	28	noun	phrase	3	4	nomatch	leur	-1	1	y	0.55895
240.1482	0.0	+	28	noun	phrase	3	5	nomatch	leur	-1	1	y	0.55895
240.54819999999998	0.2	son	28	noun	phrase	3	6	nomatch	leur	-1	1	y	0.55895
240.74819999999997	0.0	+	28	noun	phrase	3	7	nomatch	leur	-1	1	y	0.55895
241.1482	0.2	grenier	28	noun	phrase	3	8	nomatch	leur	-1	1	y	0.55895
241.3482	0.0	+	28	noun	phrase	3	9	nomatch	leur	-1	1	y	0.55895
241.7481	0.2	rouge	28	noun	phrase	3	10	nomatch	leur	-1	1	y	0.55895
241.94809999999998	0.0	+	28	noun	phrase	3	11	nomatch	leur	-1	1	y	0.55895
242.34810000000002	0.0	+	28	noun	phrase	3	12	nomatch	leur	-1	1	y	0.55895
244.3479	0.0	LEUR	28	noun	phrase	3	13	nomatch	leur	-1	1	y	0.55895
244.96450000000002	0.0	+	28	noun	phrase	3	14	nomatch	leur	-1	1	y	0.55895
244.90690000000004	0.0	[response]	28	noun	phrase	3	15	nomatch	leur	-1	1	y	0.55895
246.74769999999998	0.0	+	29	noun	phrase	4	1	nomatch	tôt	-1	1	y	0.64283
247.2977	0.2	pgrw	29	noun	phrase	4	2	nomatch	tôt	-1	1	y	0.64283
247.49769999999998	0.0	+	29	noun	phrase	4	3	nomatch	tôt	-1	1	y	0.64283
247.89759999999998	0.2	sous	29	noun	phrase	4	4	nomatch	tôt	-1	1	y	0.64283
248.09759999999997	0.0	+	29	noun	phrase	4	5	nomatch	tôt	-1	1	y	0.64283
248.4976	0.2	mon	29	noun	phrase	4	6	nomatch	tôt	-1	1	y	0.64283
248.6976	0.0	+	29	noun	phrase	4	7	nomatch	tôt	-1	1	y	0.64283
249.09759999999997	0.2	petit	29	noun	phrase	4	8	nomatch	tôt	-1	1	y	0.64283
249.29749999999999	0.0	+	29	noun	phrase	4	9	nomatch	tôt	-1	1	y	0.64283
249.69750000000002	0.2	casier	29	noun	phrase	4	10	nomatch	tôt	-1	1	y	0.64283
249.8975	0.0	+	29	noun	phrase	4	11	nomatch	tôt	-1	1	y	0.64283
250.29749999999999	0.0	+	29	noun	phrase	4	12	nomatch	tôt	-1	1	y	0.64283
252.29729999999998	0.0	TÔT	29	noun	phrase	4	13	nomatch	tôt	-1	1	y	0.64283
252.99729999999997	0.0	+	29	noun	phrase	4	14	nomatch	tôt	-1	1	y	0.64283
252.9401	0.0	[response]	29	noun	phrase	4	15	nomatch	tôt	-1	1	y	0.64283
254.6971	0.0	+	30	verb	list	1	1	match	plonger	5	1	p	0.93972
255.24710000000002	0.2	qfbsx	30	verb	list	1	2	match	plonger	5	1	p	0.93972
255.4471	0.0	+	30	verb	list	1	3	match	plonger	5	1	p	0.93972
255.847	0.2	swgv	30	verb	list	1	4	match	plonger	5	1	p	0.93972
256.047	0.0	+	30	verb	list	1	5	match	plonger	5	1	p	0.93972
256.447	0.2	zfj	30	verb	list	1	6	match	plonger	5	1	p	0.93972
256.64700000000005	0.0	+	30	verb	list	1	7	match	plonger	5	1	p	0.93972
257.04689999999994	0.2	gpjs	30	verb	list	1	8	match	plonger	5	1	p	0.93972
257.2469	0.0	+	30	verb	list	1	9	match	plonger	5	1	p	0.93972
257.64689999999996	0.2	plonger	30	verb	list	1	10	match	plonger	5	1	p	0.93972
257.8469	0.0	+	30	verb	list	1	11	match	plonger	5	1	p	0.93972
258.2469	0.0	+	30	verb	list	1	12	match	plonger	5	1	p	0.93972
260.24670000000003	0.0	PLONGER	30	verb	list	1	13	match	plonger	5	1	p	0.93972
261.24659999999994	0.0	+	30	verb	list	1	14	match	plonger	5	1	p	0.93972
261.18640000000005	0.0	[response]	30	verb	list	1	15	match	plonger	5	1	p	0.93972
262.64649999999995	0.0	+	31	noun	list	3	1	match	leur	3	1	p	0.97818
263.1965	0.2	fhdrbml	31	noun	list	3	2	match	leur	3	1	p	0.97818
263.39649999999995	0.0	+	31	noun	list	3	3	match	leur	3	1	p	0.97818
263.79639999999995	0.2	vzfj	31	noun	list	3	4	match	leur	3	1	p	0.97818
263.9964	0.0	+	31	noun	list	3	5	match	leur	3	1	p	0.97818
264.39639999999997	0.2	leur	31	noun	list	3	6	match	leur	3	1	p	0.97818
264.5964	0.0	+	31	noun	list	3	7	match	leur	3	1	p	0.97818
264.9963	0.2	plus	31	noun	list	3	8	match	leur	3	1	p	0.97818
265.19629999999995	0.0	+	31	noun	list	3	9	match	leur	3	1	p	0.97818
265.59630000000004	0.2	casier	31	noun	list	3	10	match	leur	3	1	p	0.97818
265.7963	0.0	+	31	noun	list	3	11	match	leur	3	1	p	0.97818
266.1962	0.0	+	31	noun	list	3	12	match	leur	3	1	p	0.97818
268.1961	0.0	LEUR	31	noun	list	3	13	match	leur	3	1	p	0.97818
269.22929999999997	0.0	+	31	noun	list	3	14	match	leur	3	1	p	0.97818
269.1743	0.0	[response]	31	noun	list	3	15	match	leur	3	1	p	0.97818
270.59590000000003	0.0	+	32	noun	list	4	1	nomatch	ainsi	-1	1	y	0.62237
271.14599999999996	0.2	cgzsjv	32	noun	list	4	2	nomatch	ainsi	-1	1	y	0.62237
271.34579999999994	0.0	+	32	noun	list	4	3	nomatch	ainsi	-1	1	y	0.62237
271.74580000000003	0.2	sur	32	noun	list	4	4	nomatch	ainsi	-1	1	y	0.62237
271.94579999999996	0.0	+	32	noun	list	4	5	nomatch	ainsi	-1	1	y	0.62237
272.34579999999994	0.2	doit	32	noun	list	4	6	nomatch	ainsi	-1	1	y	0.62237
272.5458	0.0	+	32	noun	list	4	7	nomatch	ainsi	-1	1	y	0.62237
272.9457	0.2	clavier	32	noun	list	4	8	nomatch	ainsi	-1	1	y	0.62237
273.14570000000003	0.0	+	32	noun	list	4	9	nomatch	ainsi	-1	1	y	0.62237
273.5457	0.2	loin	32	noun	list	4	10	nomatch	ainsi	-1	1	y	0.62237
273.74569999999994	0.0	+	32	noun	list	4	11	nomatch	ainsi	-1	1	y	0.62237
274.14559999999994	0.0	+	32	noun	list	4	12	nomatch	ainsi	-1	1	y	0.62237
276.14549999999997	0.0	AINSI	32	noun	list	4	13	nomatch	ainsi	-1	1	y	0.62237
276.8287	0.0	+	32	noun	list	4	14	nomatch	ainsi	-1	1	y	0.62237
276.76779999999997	0.0	[response]	32	noun	list	4	15	nomatch	ainsi	-1	1	y	0.62237
278.5453	0.0	+	33	noun	list	2	1	match	plus	4	1	p	1.0737
279.0952	0.2	tpf	33	noun	list	2	2	match	plus	4	1	p	1.0737
279.2952	0.0	+	33	noun	list	2	3	match	plus	4	1	p	1.0737
279.6952	0.2	lnjw	33	noun	list	2	4	match	plus	4	1	p	1.0737
279.89520000000005	0.0	+	33	noun	list	2	5	match	plus	4	1	p	1.0737
280.2952	0.2	zfj	33	noun	list	2	6	match	plus	4	1	p	1.0737
280.4951	0.0	+	33	noun	list	2	7	match	plus	4	1	p	1.0737
280.89509999999996	0.2	plus	33	noun	list	2	8	match	plus	4	1	p	1.0737
281.0951	0.0	+	33	noun	list	2	9	match	plus	4	1	p	1.0737
281.4951	0.2	tablier	33	noun	list	2	10	match	plus	4	1	p	1.0737
281.69500000000005	0.0	+	33	noun	list	2	11	match	plus	4	1	p	1.0737
282.095	0.0	+	33	noun	list	2	12	match	plus	4	1	p	1.0737
284.09489999999994	0.0	PLUS	33	noun	list	2	13	match	plus	4	1	p	1.0737
285.22810000000004	0.0	+	33	noun	list	2	14	match	plus	4	1	p	1.0737
285.16859999999997	0.0	[response]	33	noun	list	2	15	match	plus	4	1	p	1.0737
286.49479999999994	0.0	+	34	noun	phrase	2	1	match	grenier	4	0	TIMEOUT	-1.0
287.04459999999995	0.2	xzjwsr	34	noun	phrase	2	2	match	grenier	4	0	TIMEOUT	-1.0
287.2446	0.0	+	34	noun	phrase	2	3	match	grenier	4	0	TIMEOUT	-1.0
287.64459999999997	0.2	bqsx	34	noun	phrase	2	4	match	grenier	4	0	TIMEOUT	-1.0
287.8446	0.0	+	34	noun	phrase	2	5	match	grenier	4	0	TIMEOUT	-1.0
288.2445	0.2	nlfk	34	noun	phrase	2	6	match	grenier	4	0	TIMEOUT	-1.0
288.44449999999995	0.0	+	34	noun	phrase	2	7	match	grenier	4	0	TIMEOUT	-1.0
288.84450000000004	0.2	grenier	34	noun	phrase	2	8	match	grenier	4	0	TIMEOUT	-1.0
289.04449999999997	0.0	+	34	noun	phrase	2	9	match	grenier	4	0	TIMEOUT	-1.0
289.4444	0.2	noir	34	noun	phrase	2	10	match	grenier	4	0	TIMEOUT	-1.0
289.6444	0.0	+	34	noun	phrase	2	11	match	grenier	4	0	TIMEOUT	-1.0
290.0444	0.0	+	34	noun	phrase	2	12	match	grenier	4	0	TIMEOUT	-1.0
292.04420000000005	0.0	GRENIER	34	noun	phrase	2	13	match	grenier	4	0	TIMEOUT	-1.0
294.44410000000005	0.0	+	35	noun	phrase	3	1	match	sablier	5	1	p	0.82813
295.044	0.2	pmshdbk	35	noun	phrase	3	2	match	sablier	5	1	p	0.82813
295.244	0.0	+	35	noun	phrase	3	3	match	sablier	5	1	p	0.82813
295.644	0.2	cfwl	35	noun	phrase	3	4	match	sablier	5	1	p	0.82813
295.84399999999994	0.0	+	35	noun	phrase	3	5	match	sablier	5	1	p	0.82813
296.24389999999994	0.2	son	35	noun	phrase	3	6	match	sablier	5	1	p	0.82813
296.4439	0.0	+	35	noun	phrase	3	7	match	sablier	5	1	p	0.82813
296.84389999999996	0.2	petit	35	noun	phrase	3	8	match	sablier	5	1	p	0.82813
297.0439	0.0	+	35	noun	phrase	3	9	match	sablier	5	1	p	0.82813
297.4438	0.2	sablier	35	noun	phrase	3	10	match	sablier	5	1	p	0.82813
297.64379999999994	0.0	+	35	noun	phrase	3	11	match	sablier	5	1	p	0.82813
298.04380000000003	0.0	+	35	noun	phrase	3	12	match	sablier	5	1	p	0.82813
300.04359999999997	0.0	SABLIER	35	noun	phrase	3	13	match	sablier	5	1	p	0.82813
300.92690000000005	0.0	+	35	noun	phrase	3	14	match	sablier	5	1	p	0.82813
300.8718	0.0	[response]	35	noun	phrase	3	15	match	sablier	5	1	p	0.82813
302.4434	0.0	+	36	noun	phrase	1	1	nomatch	rouge	-1	1	y	1.8755
302.99339999999995	0.2	rzqfbc	36	noun	phrase	1	2	nomatch	rouge	-1	1	y	1.8755
303.1934	0.0	+	36	noun	phrase	1	3	nomatch	rouge	-1	1	y	1.8755
303.5934	0.2	qlk	36	noun	phrase	1	4	nomatch	rouge	-1	1	y	1.8755
303.79330000000004	0.0	+	36	noun	phrase	1	5	nomatch	rouge	-1	1	y	1.8755
304.1933	0.2	stm	36	noun	phrase	1	6	nomatch	rouge	-1	1	y	1.8755
304.39329999999995	0.0	+	36	noun	phrase	1	7	nomatch	rouge	-1	1	y	1.8755
304.79330000000004	0.2	prtk	36	noun	phrase	1	8	nomatch	rouge	-1	1	y	1.8755
304.9933	0.0	+	36	noun	phrase	1	9	nomatch	rouge	-1	1	y	1.8755
305.3932	0.2	rocher	36	noun	phrase	1	10	nomatch	rouge	-1	1	y	1.8755
305.5932	0.0	+	36	noun	phrase	1	11	nomatch	rouge	-1	1	y	1.8755
305.9932	0.0	+	36	noun	phrase	1	12	nomatch	rouge	-1	1	y	1.8755
307.99299999999994	0.0	ROUGE	36	noun	phrase	1	13	nomatch	rouge	-1	1	y	1.8755
309.9262	0.0	+	36	noun	phrase	1	14	nomatch	rouge	-1	1	y	1.8755
309.86850000000004	0.0	[response]	36	noun	phrase	1	15	nomatch	rouge	-1	1	y	1.8755
318.3922	0.0	+	37	noun	list	2	1	match	casier	4	0	y	1.6624
318.94219999999996	0.2	wtjh	37	noun	list	2	2	match	casier	4	0	y	1.6624
319.1422	0.0	+	37	noun	list	2	3	match	casier	4	0	y	1.6624
319.5421	0.2	cfwl	37	noun	list	2	4	match	casier	4	0	y	1.6624
319.74209999999994	0.0	+	37	noun	list	2	5	match	casier	4	0	y	1.6624
320.1421	0.2	tw	37	noun	list	2	6	match	casier	4	0	y	1.6624
320.34209999999996	0.0	+	37	noun	list	2	7	match	casier	4	0	y	1.6624
320.74199999999996	0.2	casier	37	noun	list	2	8	match	casier	4	0	y	1.6624
320.942	0.0	+	37	noun	list	2	9	match	casier	4	0	y	1.6624
321.342	0.2	vite	37	noun	list	2	10	match	casier	4	0	y	1.6624
321.54200000000003	0.0	+	37	noun	list	2	11	match	casier	4	0	y	1.6624
321.94190000000003	0.0	+	37	noun	list	2	12	match	casier	4	0	y	1.6624
323.94179999999994	0.0	CASIER	37	noun	list	2	13	match	casier	4	0	y	1.6624
325.65829999999994	0.0	+	37	noun	list	2	14	match	casier	4	0	y	1.6624
325.6042	0.0	[response]	37	noun	list	2	15	match	casier	4	0	y	1.6624
326.34159999999997	0.0	+	38	verb	phrase	1	1	nomatch	chasser	-1	1	y	0.74947
326.89160000000004	0.2	rpmxw	38	verb	phrase	1	2	nomatch	chasser	-1	1	y	0.74947
327.0915	0.0	+	38	verb	phrase	1	3	nomatch	chasser	-1	1	y	0.74947
327.4915	0.2	vzfj	38	verb	phrase	1	4	nomatch	chasser	-1	1	y	0.74947
327.6915	0.0	+	38	verb	phrase	1	5	nomatch	chasser	-1	1	y	0.74947
328.0915	0.2	kbcr	38	verb	phrase	1	6	nomatch	chasser	-1	1	y	0.74947
328.29150000000004	0.0	+	38	verb	phrase	1	7	nomatch	chasser	-1	1	y	0.74947
328.69140000000004	0.2	bhzcqjpv	38	verb	phrase	1	8	nomatch	chasser	-1	1	y	0.74947
328.8914	0.0	+	38	verb	phrase	1	9	nomatch	chasser	-1	1	y	0.74947
329.29139999999995	0.2	nager	38	verb	phrase	1	10	nomatch	chasser	-1	1	y	0.74947
329.4914	0.0	+	38	verb	phrase	1	11	nomatch	chasser	-1	1	y	0.74947
329.8913	0.0	+	38	verb	phrase	1	12	nomatch	chasser	-1	1	y	0.74947
331.8912	0.0	CHASSER	38	verb	phrase	1	13	nomatch	chasser	-1	1	y	0.74947
332.7078	0.0	+	38	verb	phrase	1	14	nomatch	chasser	-1	1	y	0.74947
332.64059999999995	0.0	[response]	38	verb	phrase	1	15	nomatch	chasser	-1	1	y	0.74947
334.29099999999994	0.0	+	39	noun	list	2	1	nomatch	doit	-1	1	y	0.79944
334.84090000000003	0.2	kvxjldp	39	noun	list	2	2	nomatch	doit	-1	1	y	0.79944
335.04089999999997	0.0	+	39	noun	list	2	3	nomatch	doit	-1	1	y	0.79944
335.44089999999994	0.2	ftb	39	noun	list	2	4	nomatch	doit	-1	1	y	0.79944
335.6409	0.0	+	39	noun	list	2	5	nomatch	doit	-1	1	y	0.79944
336.04089999999997	0.2	stm	39	noun	list	2	6	nomatch	doit	-1	1	y	0.79944
336.24080000000004	0.0	+	39	noun	list	2	7	nomatch	doit	-1	1	y	0.79944
336.6408	0.2	mieux	39	noun	list	2	8	nomatch	doit	-1	1	y	0.79944
336.84079999999994	0.0	+	39	noun	list	2	9	nomatch	doit	-1	1	y	0.79944
337.24080000000004	0.2	clavier	39	noun	list	2	10	nomatch	doit	-1	1	y	0.79944
337.4407	0.0	+	39	noun	list	2	11	nomatch	doit	-1	1	y	0.79944
337.84069999999997	0.0	+	39	noun	list	2	12	nomatch	doit	-1	1	y	0.79944
339.8406	0.0	DOIT	39	noun	list	2	13	nomatch	doit	-1	1	y	0.79944
340.70719999999994	0.0	+	39	noun	list	2	14	nomatch	doit	-1	1	y	0.79944
340.6400000000001	0.0	[response]	39	noun	list	2	15	nomatch	doit	-1	1	y	0.79944
342.2404	0.0	+	40	verb	list	2	1	match	vieux	4	0	y	1.1555
342.7903	0.2	bphwz	40	verb	list	2	2	match	vieux	4	0	y	1.1555
342.99030000000005	0.0	+	40	verb	list	2	3	match	vieux	4	0	y	1.1555
343.3903	0.2	jcvb	40	verb	list	2	4	match	vieux	4	0	y	1.1555
343.59029999999996	0.0	+	40	verb	list	2	5	match	vieux	4	0	y	1.1555
343.99019999999996	0.2	clzr	40	verb	list	2	6	match	vieux	4	0	y	1.1555
344.1902	0.0	+	40	verb	list	2	7	match	vieux	4	0	y	1.1555
344.5902	0.2	vieux	40	verb	list	2	8	match	vieux	4	0	y	1.1555
344.7902	0.0	+	40	verb	list	2	9	match	vieux	4	0	y	1.1555
345.1902	0.2	plonger	40	verb	list	2	10	match	vieux	4	0	y	1.1555
345.39009999999996	0.0	+	40	verb	list	2	11	match	vieux	4	0	y	1.1555
345.79009999999994	0.0	+	40	verb	list	2	12	match	vieux	4	0	y	1.1555
347.78999999999996	0.0	VIEUX	40	verb	list	2	13	match	vieux	4	0	y	1.1555
349.00649999999996	0.0	+	40	verb	list	2	14	match	vieux	4	0	y	1.1555
348.94540000000006	0.0	[response]	40	verb	list	2	15	match	vieux	4	0	y	1.1555
350.1898	0.0	+	41	verb	list	3	1	nomatch	nouveau	-1	1	y	0.67928
350.73969999999997	0.2	gbvrs	41	verb	list	3	2	nomatch	nouveau	-1	1	y	0.67928
350.9397	0.0	+	41	verb	list	3	3	nomatch	nouveau	-1	1	y	0.67928
351.3397	0.2	jztp	41	verb	list	3	4	nomatch	nouveau	-1	1	y	0.67928
351.53970000000004	0.0	+	41	verb	list	3	5	nomatch	nouveau	-1	1	y	0.67928
351.93960000000004	0.2	va	41	verb	list	3	6	nomatch	nouveau	-1	1	y	0.67928
352.1396	0.0	+	41	verb	list	3	7	nomatch	nouveau	-1	1	y	0.67928
352.53959999999995	0.2	grand	41	verb	list	3	8	nomatch	nouveau	-1	1	y	0.67928
352.7396	0.0	+	41	verb	list	3	9	nomatch	nouveau	-1	1	y	0.67928
353.1395	0.2	parader	41	verb	list	3	10	nomatch	nouveau	-1	1	y	0.67928
353.33950000000004	0.0	+	41	verb	list	3	11	nomatch	nouveau	-1	1	y	0.67928
353.7395	0.0	+	41	verb	list	3	12	nomatch	nouveau	-1	1	y	0.67928
355.73929999999996	0.0	NOUVEAU	41	verb	list	3	13	nomatch	nouveau	-1	1	y	0.67928
356.47259999999994	0.0	+	41	verb	list	3	14	nomatch	nouveau	-1	1	y	0.67928
356.41859999999997	0.0	[response]	41	verb	list	3	15	nomatch	nouveau	-1	1	y	0.67928
358.13919999999996	0.0	+	42	noun	phrase	4	1	match	rouge	5	1	p	0.64216
358.68909999999994	0.2	tfjq	42	noun	phrase	4	2	match	rouge	5	1	p	0.64216
358.8891	0.0	+	42	noun	phrase	4	3	match	rouge	5	1	p	0.64216
359.28909999999996	0.2	pour	42	noun	phrase	4	4	match	rouge	5	1	p	0.64216
359.48900000000003	0.0	+	42	noun	phrase	4	5	match	rouge	5	1	p	0.64216
359.889	0.2	son	42	noun	phrase	4	6	match	rouge	5	1	p	0.64216
360.08899999999994	0.0	+	42	noun	phrase	4	7	match	rouge	5	1	p	0.64216
360.48900000000003	0.2	casier	42	noun	phrase	4	8	match	rouge	5	1	p	0.64216
360.68899999999996	0.0	+	42	noun	phrase	4	9	match	rouge	5	1	p	0.64216
361.08889999999997	0.2	rouge	42	noun	phrase	4	10	match	rouge	5	1	p	0.64216
361.2889	0.0	+	42	noun	phrase	4	11	match	rouge	5	1	p	0.64216
361.6889	0.0	+	42	noun	phrase	4	12	match	rouge	5	1	p	0.64216
363.68870000000004	0.0	ROUGE	42	noun	phrase	4	13	match	rouge	5	1	p	0.64216
364.3887	0.0	+	42	noun	phrase	4	14	match	rouge	5	1	p	0.64216
364.33090000000004	0.0	[response]	42	noun	phrase	4	15	match	rouge	5	1	p	0.64216
366.08849999999995	0.0	+	43	verb	phrase	3	1	nomatch	moins	-1	1	y	1.2369
366.6385	0.2	wlmgzrf	43	verb	phrase	3	2	nomatch	moins	-1	1	y	1.2369
366.83849999999995	0.0	+	43	verb	phrase	3	3	nomatch	moins	-1	1	y	1.2369
367.23850000000004	0.2	bjlw	43	verb	phrase	3	4	nomatch	moins	-1	1	y	1.2369
367.4384	0.0	+	43	verb	phrase	3	5	nomatch	moins	-1	1	y	1.2369
367.8384	0.2	peut	43	verb	phrase	3	6	nomatch	moins	-1	1	y	1.2369
368.0384	0.0	+	43	verb	phrase	3	7	nomatch	moins	-1	1	y	1.2369
368.4384	0.2	mieux	43	verb	phrase	3	8	nomatch	moins	-1	1	y	1.2369
368.63829999999996	0.0	+	43	verb	phrase	3	9	nomatch	moins	-1	1	y	1.2369
369.03830000000005	0.2	parader	43	verb	phrase	3	10	nomatch	moins	-1	1	y	1.2369
369.2383	0.0	+	43	verb	phrase	3	11	nomatch	moins	-1	1	y	1.2369
369.63829999999996	0.0	+	43	verb	phrase	3	12	nomatch	moins	-1	1	y	1.2369
371.6381	0.0	MOINS	43	verb	phrase	3	13	nomatch	moins	-1	1	y	1.2369
372.938	0.0	+	43	verb	phrase	3	14	nomatch	moins	-1	1	y	1.2369
372.875	0.0	[response]	43	verb	phrase	3	15	nomatch	moins	-1	1	y	1.2369
390.0367	0.0	+	44	verb	list	4	1	nomatch	panier	-1	1	y	0.66273
390.58669999999995	0.2	gvpw	44	verb	list	4	2	nomatch	panier	-1	1	y	0.66273
390.7866	0.0	+	44	verb	list	4	3	nomatch	panier	-1	1	y	0.66273
391.1866	0.2	marc	44	verb	list	4	4	nomatch	panier	-1	1	y	0.66273
391.38660000000004	0.0	+	44	verb	list	4	5	nomatch	panier	-1	1	y	0.66273
391.7866	0.2	son	44	verb	list	4	6	nomatch	panier	-1	1	y	0.66273
391.9865	0.0	+	44	verb	list	4	7	nomatch	panier	-1	1	y	0.66273
392.38649999999996	0.2	nager	44	verb	list	4	8	nomatch	panier	-1	1	y	0.66273
392.5865	0.0	+	44	verb	list	4	9	nomatch	panier	-1	1	y	0.66273
392.9865	0.2	vert	44	verb	list	4	10	nomatch	panier	-1	1	y	0.66273
393.1865	0.0	+	44	verb	list	4	11	nomatch	panier	-1	1	y	0.66273
393.5864	0.0	+	44	verb	list	4	12	nomatch	panier	-1	1	y	0.66273
395.58629999999994	0.0	PANIER	44	verb	list	4	13	nomatch	panier	-1	1	y	0.66273
396.31949999999995	0.0	+	44	verb	list	4	14	nomatch	panier	-1	1	y	0.66273
396.249	0.0	[response]	44	verb	list	4	15	nomatch	panier	-1	1	y	0.66273
397.98609999999996	0.0	+	45	verb	phrase	1	1	match	plonger	5	1	p	0.57549
398.53599999999994	0.2	whfc	45	verb	phrase	1	2	match	plonger	5	1	p	0.57549
398.736	0.0	+	45	verb	phrase	1	3	match	plonger	5	1	p	0.57549
399.13599999999997	0.2	swgv	45	verb	phrase	1	4	match	plonger	5	1	p	0.57549
399.336	0.0	+	45	verb	phrase	1	5	match	plonger	5	1	p	0.57549
399.7359	0.2	tw	45	verb	phrase	1	6	match	plonger	5	1	p	0.57549
399.93589999999995	0.0	+	45	verb	phrase	1	7	match	plonger	5	1	p	0.57549
400.33590000000004	0.2	wtbhj	45	verb	phrase	1	8	match	plonger	5	1	p	0.57549
400.53589999999997	0.0	+	45	verb	phrase	1	9	match	plonger	5	1	p	0.57549
400.93589999999995	0.2	plonger	45	verb	phrase	1	10	match	plonger	5	1	p	0.57549
401.1358	0.0	+	45	verb	phrase	1	11	match	plonger	5	1	p	0.57549
401.5358	0.0	+	45	verb	phrase	1	12	match	plonger	5	1	p	0.57549
403.5357	0.0	PLONGER	45	verb	phrase	1	13	match	plonger	5	1	p	0.57549
404.1689	0.0	+	45	verb	phrase	1	14	match	plonger	5	1	p	0.57549
404.1111000000001	0.0	[response]	45	verb	phrase	1	15	match	plonger	5	1	p	0.57549
405.93550000000005	0.0	+	46	noun	list	1	1	match	tôt	5	1	p	0.59014
406.4854	0.2	hplkxg	46	noun	list	1	2	match	tôt	5	1	p	0.59014
406.68539999999996	0.0	+	46	noun	list	1	3	match	tôt	5	1	p	0.59014
407.08540000000005	0.2	mbnk	46	noun	list	1	4	match	tôt	5	1	p	0.59014
407.2854	0.0	+	46	noun	list	1	5	match	tôt	5	1	p	0.59014
407.6853	0.2	kbcr	46	noun	list	1	6	match	tôt	5	1	p	0.59014
407.88530000000003	0.0	+	46	noun	list	1	7	match	tôt	5	1	p	0.59014
408.2853	0.2	mkxrfgz	46	noun	list	1	8	match	tôt	5	1	p	0.59014
408.48529999999994	0.0	+	46	noun	list	1	9	match	tôt	5	1	p	0.59014
408.88519999999994	0.2	tôt	46	noun	list	1	10	match	tôt	5	1	p	0.59014
409.0852	0.0	+	46	noun	list	1	11	match	tôt	5	1	p	0.59014
409.48519999999996	0.0	+	46	noun	list	1	12	match	tôt	5	1	p	0.59014
411.485	0.0	TÔT	46	noun	list	1	13	match	tôt	5	1	p	0.59014
412.135	0.0	+	46	noun	list	1	14	match	tôt	5	1	p	0.59014
412.0752	0.0	[response]	46	noun	list	1	15	match	tôt	5	1	p	0.59014
413.8849	0.0	+	47	verb	phrase	1	1	nomatch	loin	-1	1	y	0.66627
414.43489999999997	0.2	ktjf	47	verb	phrase	1	2	nomatch	loin	-1	1	y	0.66627
414.63480000000004	0.0	+	47	verb	phrase	1	3	nomatch	loin	-1	1	y	0.66627
415.05139999999994	0.2	ftb	47	verb	phrase	1	4	nomatch	loin	-1	1	y	0.66627
415.2514	0.0	+	47	verb	phrase	1	5	nomatch	loin	-1	1	y	0.66627
415.65139999999997	0.2	tw	47	verb	phrase	1	6	nomatch	loin	-1	1	y	0.66627
415.8514	0.0	+	47	verb	phrase	1	7	nomatch	loin	-1	1	y	0.66627
416.2513	0.2	wbrkncv	47	verb	phrase	1	8	nomatch	loin	-1	1	y	0.66627
416.45129999999995	0.0	+	47	verb	phrase	1	9	nomatch	loin	-1	1	y	0.66627
416.85130000000004	0.2	vite	47	verb	phrase	1	10	nomatch	loin	-1	1	y	0.66627
417.05129999999997	0.0	+	47	verb	phrase	1	11	nomatch	loin	-1	1	y	0.66627
417.4512	0.0	+	47	verb	phrase	1	12	nomatch	loin	-1	1	y	0.66627
419.4511	0.0	LOIN	47	verb	phrase	1	13	nomatch	loin	-1	1	y	0.66627
420.1844	0.0	+	47	verb	phrase	1	14	nomatch	loin	-1	1	y	0.66627
420.1174	0.0	[response]	47	verb	phrase	1	15	nomatch	loin	-1	1	y	0.66627
429.85030000000006	0.0	+	48	verb	list	1	1	match	chasser	5	1	p	1.1333
430.4003	0.2	drw	48	verb	list	1	2	match	chasser	5	1	p	1.1333
430.6002	0.0	+	48	verb	list	1	3	match	chasser	5	1	p	1.1333
431.00020000000006	0.2	mpnw	48	verb	list	1	4	match	chasser	5	1	p	1.1333
431.2002	0.0	+	48	verb	list	1	5	match	chasser	5	1	p	1.1333
431.6002	0.2	zfj	48	verb	list	1	6	match	chasser	5	1	p	1.1333
431.80010000000004	0.0	+	48	verb	list	1	7	match	chasser	5	1	p	1.1333
432.2001	0.2	prtk	48	verb	list	1	8	match	chasser	5	1	p	1.1333
432.40010000000007	0.0	+	48	verb	list	1	9	match	chasser	5	1	p	1.1333
432.80010000000004	0.2	chasser	48	verb	list	1	10	match	chasser	5	1	p	1.1333
433.0001	0.0	+	48	verb	list	1	11	match	chasser	5	1	p	1.1333
433.4	0.0	+	48	verb	list	1	12	match	chasser	5	1	p	1.1333
435.3999	0.0	CHASSER	48	verb	list	1	13	match	chasser	5	1	p	1.1333
436.5998000000001	0.0	+	48	verb	list	1	14	match	chasser	5	1	p	1.1333
436.53319999999997	0.0	[response]	48	verb	list	1	15	match	chasser	5	1	p	1.1333
437.79970000000003	0.0	+	49	verb	list	2	1	match	parader	4	1	p	0.47173
438.3496	0.2	phrbvdf	49	verb	list	2	2	match	parader	4	1	p	0.47173
438.54960000000005	0.0	+	49	verb	list	2	3	match	parader	4	1	p	0.47173
438.94960000000003	0.2	lnjw	49	verb	list	2	4	match	parader	4	1	p	0.47173
439.1496000000001	0.0	+	49	verb	list	2	5	match	parader	4	1	p	0.47173
439.54949999999997	0.2	nlfk	49	verb	list	2	6	match	parader	4	1	p	0.47173
439.7495	0.0	+	49	verb	list	2	7	match	parader	4	1	p	0.47173
440.1495	0.2	parader	49	verb	list	2	8	match	parader	4	1	p	0.47173
440.34950000000003	0.0	+	49	verb	list	2	9	match	parader	4	1	p	0.47173
440.7495	0.2	noir	49	verb	list	2	10	match	parader	4	1	p	0.47173
440.94939999999997	0.0	+	49	verb	list	2	11	match	parader	4	1	p	0.47173
441.34940000000006	0.0	+	49	verb	list	2	12	match	parader	4	1	p	0.47173
443.34929999999997	0.0	PARADER	49	verb	list	2	13	match	parader	4	1	p	0.47173
443.88250000000005	0.0	+	49	verb	list	2	14	match	parader	4	1	p	0.47173
443.821	0.0	[response]	49	verb	list	2	15	match	parader	4	1	p	0.47173
453.74840000000006	0.0	+	50	verb	phrase	4	1	nomatch	son	-1	1	y	0.8085
454.2984	0.2	wklcjh	50	verb	phrase	4	2	nomatch	son	-1	1	y	0.8085
454.49840000000006	0.0	+	50	verb	phrase	4	3	nomatch	son	-1	1	y	0.8085
454.89840000000004	0.2	marc	50	verb	phrase	4	4	nomatch	son	-1	1	y	0.8085
455.0983	0.0	+	50	verb	phrase	4	5	nomatch	son	-1	1	y	0.8085
455.4983	0.2	va	50	verb	phrase	4	6	nomatch	son	-1	1	y	0.8085
455.6983	0.0	+	50	verb	phrase	4	7	nomatch	son	-1	1	y	0.8085
456.0983	0.2	trop	50	verb	phrase	4	8	nomatch	son	-1	1	y	0.8085
456.29830000000004	0.0	+	50	verb	phrase	4	9	nomatch	son	-1	1	y	0.8085
456.69820000000004	0.2	nager	50	verb	phrase	4	10	nomatch	son	-1	1	y	0.8085
456.8982	0.0	+	50	verb	phrase	4	11	nomatch	son	-1	1	y	0.8085
457.29820000000007	0.0	+	50	verb	phrase	4	12	nomatch	son	-1	1	y	0.8085
459.298	0.0	SON	50	verb	phrase	4	13	nomatch	son	-1	1	y	0.8085
460.16460000000006	0.0	+	50	verb	phrase	4	14	nomatch	son	-1	1	y	0.8085
460.1065	0.0	[response]	50	verb	phrase	4	15	nomatch	son	-1	1	y	0.8085
461.69780000000003	0.0	+	51	verb	list	4	1	match	beau	4	0	y	1.8429000000000002
462.2478	0.2	jwv	51	verb	list	4	2	match	beau	4	0	y	1.8429000000000002
462.44780000000003	0.0	+	51	verb	list	4	3	match	beau	4	0	y	1.8429000000000002
462.8478	0.2	vers	51	verb	list	4	4	match	beau	4	0	y	1.8429000000000002
463.0477000000001	0.0	+	51	verb	list	4	5	match	beau	4	0	y	1.8429000000000002
463.44770000000005	0.2	peut	51	verb	list	4	6	match	beau	4	0	y	1.8429000000000002
463.6477	0.0	+	51	verb	list	4	7	match	beau	4	0	y	1.8429000000000002
464.0477000000001	0.2	beau	51	verb	list	4	8	match	beau	4	0	y	1.8429000000000002
464.24760000000003	0.0	+	51	verb	list	4	9	match	beau	4	0	y	1.8429000000000002
464.6476	0.2	jongler	51	verb	list	4	10	match	beau	4	0	y	1.8429000000000002
464.84760000000006	0.0	+	51	verb	list	4	11	match	beau	4	0	y	1.8429000000000002
465.24760000000003	0.0	+	51	verb	list	4	12	match	beau	4	0	y	1.8429000000000002
467.24739999999997	0.0	BEAU	51	verb	list	4	13	match	beau	4	0	y	1.8429000000000002
469.1473	0.0	+	51	verb	list	4	14	match	beau	4	0	y	1.8429000000000002
469.09030000000007	0.0	[response]	51	verb	list	4	15	match	beau	4	0	y	1.8429000000000002
469.6472	0.0	+	52	noun	phrase	1	1	nomatch	tablier	-1	0	TIMEOUT	-1.0
470.19720000000007	0.2	xgrwktz	52	noun	phrase	1	2	nomatch	tablier	-1	0	TIMEOUT	-1.0
470.3972	0.0	+	52	noun	phrase	1	3	nomatch	tablier	-1	0	TIMEOUT	-1.0
470.7971	0.2	jztp	52	noun	phrase	1	4	nomatch	tablier	-1	0	TIMEOUT	-1.0
470.99710000000005	0.0	+	52	noun	phrase	1	5	nomatch	tablier	-1	0	TIMEOUT	-1.0
471.3971	0.2	stm	52	noun	phrase	1	6	nomatch	tablier	-1	0	TIMEOUT	-1.0
471.59710000000007	0.0	+	52	noun	phrase	1	7	nomatch	tablier	-1	0	TIMEOUT	-1.0
471.99700000000007	0.2	svbjp	52	noun	phrase	1	8	nomatch	tablier	-1	0	TIMEOUT	-1.0
472.197	0.0	+	52	noun	phrase	1	9	nomatch	tablier	-1	0	TIMEOUT	-1.0
472.597	0.2	cendrier	52	noun	phrase	1	10	nomatch	tablier	-1	0	TIMEOUT	-1.0
472.797	0.0	+	52	noun	phrase	1	11	nomatch	tablier	-1	0	TIMEOUT	-1.0
473.197	0.0	+	52	noun	phrase	1	12	nomatch	tablier	-1	0	TIMEOUT	-1.0
475.19680000000005	0.0	TABLIER	52	noun	phrase	1	13	nomatch	tablier	-1	0	TIMEOUT	-1.0
477.59659999999997	0.0	+	53	noun	list	1	1	nomatch	clavier	-1	1	y	0.68372
478.1966	0.2	nxb	53	noun	list	1	2	nomatch	clavier	-1	1	y	0.68372
478.39660000000003	0.0	+	53	noun	list	1	3	nomatch	clavier	-1	1	y	0.68372
478.79650000000004	0.2	ftb	53	noun	list	1	4	nomatch	clavier	-1	1	y	0.68372
478.99649999999997	0.0	+	53	noun	list	1	5	nomatch	clavier	-1	1	y	0.68372
479.39650000000006	0.2	nlfk	53	noun	list	1	6	nomatch	clavier	-1	1	y	0.68372
479.5965	0.0	+	53	noun	list	1	7	nomatch	clavier	-1	1	y	0.68372
479.9964	0.2	hwfnd	53	noun	list	1	8	nomatch	clavier	-1	1	y	0.68372
480.19640000000004	0.0	+	53	noun	list	1	9	nomatch	clavier	-1	1	y	0.68372
480.5964	0.2	panier	53	noun	list	1	10	nomatch	clavier	-1	1	y	0.68372
480.79640000000006	0.0	+	53	noun	list	1	11	nomatch	clavier	-1	1	y	0.68372
481.19630000000006	0.0	+	53	noun	list	1	12	nomatch	clavier	-1	1	y	0.68372
483.1962	0.0	CLAVIER	53	noun	list	1	13	nomatch	clavier	-1	1	y	0.68372
483.9461	0.0	+	53	noun	list	1	14	nomatch	clavier	-1	1	y	0.68372
483.8799	0.0	[response]	53	noun	list	1	15	nomatch	clavier	-1	1	y	0.68372
485.596	0.0	+	54	verb	phrase	4	1	match	galoper	4	1	p	0.86308
486.1460000000001	0.2	lfz	54	verb	phrase	4	2	match	galoper	4	1	p	0.86308
486.34590000000003	0.0	+	54	verb	phrase	4	3	match	galoper	4	1	p	0.86308
486.7459	0.2	jean	54	verb	phrase	4	4	match	galoper	4	1	p	0.86308
486.94590000000005	0.0	+	54	verb	phrase	4	5	match	galoper	4	1	p	0.86308
487.34590000000003	0.2	va	54	verb	phrase	4	6	match	galoper	4	1	p	0.86308
487.5458	0.0	+	54	verb	phrase	4	7	match	galoper	4	1	p	0.86308
487.9458000000001	0.2	galoper	54	verb	phrase	4	8	match	galoper	4	1	p	0.86308
488.1458	0.0	+	54	verb	phrase	4	9	match	galoper	4	1	p	0.86308
488.5458	0.2	loin	54	verb	phrase	4	10	match	galoper	4	1	p	0.86308
488.74580000000003	0.0	+	54	verb	phrase	4	11	match	galoper	4	1	p	0.86308
489.14570000000003	0.0	+	54	verb	phrase	4	12	match	galoper	4	1	p	0.86308
491.14560000000006	0.0	GALOPER	54	verb	phrase	4	13	match	galoper	4	1	p	0.86308
492.0788	0.0	+	54	verb	phrase	4	14	match	galoper	4	1	p	0.86308
492.0086	0.0	[response]	54	verb	phrase	4	15	match	galoper	4	1	p	0.86308
493.5454	0.0	+	55	noun	list	1	1	match	grenier	5	0	TIMEOUT	-1.0
494.09530000000007	0.2	rnfdlg	55	noun	list	1	2	match	grenier	5	0	TIMEOUT	-1.0
494.2953	0.0	+	55	noun	list	1	3	match	grenier	5	0	TIMEOUT	-1.0
494.6953	0.2	swgv	55	noun	list	1	4	match	grenier	5	0	TIMEOUT	-1.0
494.8953	0.0	+	55	noun	list	1	5	match	grenier	5	0	TIMEOUT	-1.0
495.2952	0.2	stm	55	noun	list	1	6	match	grenier	5	0	TIMEOUT	-1.0
495.49520000000007	0.0	+	55	noun	list	1	7	match	grenier	5	0	TIMEOUT	-1.0
495.89520000000005	0.2	xnkl	55	noun	list	1	8	match	grenier	5	0	TIMEOUT	-1.0
496.0952	0.0	+	55	noun	list	1	9	match	grenier	5	0	TIMEOUT	-1.0
496.49520000000007	0.2	grenier	55	noun	list	1	10	match	grenier	5	0	TIMEOUT	-1.0
496.6951	0.0	+	55	noun	list	1	11	match	grenier	5	0	TIMEOUT	-1.0
497.0951	0.0	+	55	noun	list	1	12	match	grenier	5	0	TIMEOUT	-1.0
499.095	0.0	GRENIER	55	noun	list	1	13	match	grenier	5	0	TIMEOUT	-1.0
501.49480000000005	0.0	+	56	noun	list	2	1	nomatch	jade	-1	1	y	1.0352
502.0947	0.2	tgbfpn	56	noun	list	2	2	nomatch	jade	-1	1	y	1.0352
502.29470000000003	0.0	+	56	noun	list	2	3	nomatch	jade	-1	1	y	1.0352
502.6947	0.2	jztp	56	noun	list	2	4	nomatch	jade	-1	1	y	1.0352
502.89470000000006	0.0	+	56	noun	list	2	5	nomatch	jade	-1	1	y	1.0352
503.29460000000006	0.2	tw	56	noun	list	2	6	nomatch	jade	-1	1	y	1.0352
503.4946	0.0	+	56	noun	list	2	7	nomatch	jade	-1	1	y	1.0352
503.89459999999997	0.2	rocher	56	noun	list	2	8	nomatch	jade	-1	1	y	1.0352
504.0946	0.0	+	56	noun	list	2	9	nomatch	jade	-1	1	y	1.0352
504.4945	0.2	loin	56	noun	list	2	10	nomatch	jade	-1	1	y	1.0352
504.69450000000006	0.0	+	56	noun	list	2	11	nomatch	jade	-1	1	y	1.0352
505.09450000000004	0.0	+	56	noun	list	2	12	nomatch	jade	-1	1	y	1.0352
507.0943	0.0	JADE	56	noun	list	2	13	nomatch	jade	-1	1	y	1.0352
508.1942	0.0	+	56	noun	list	2	14	nomatch	jade	-1	1	y	1.0352
508.1295	0.0	[response]	56	noun	list	2	15	nomatch	jade	-1	1	y	1.0352
509.4941	0.0	+	57	verb	list	1	1	nomatch	rouge	-1	1	y	1.295
510.04410000000007	0.2	rlfhtp	57	verb	list	1	2	nomatch	rouge	-1	1	y	1.295
510.2441	0.0	+	57	verb	list	1	3	nomatch	rouge	-1	1	y	1.295
510.6441	0.2	rpcx	57	verb	list	1	4	nomatch	rouge	-1	1	y	1.295
510.84400000000005	0.0	+	57	verb	list	1	5	nomatch	rouge	-1	1	y	1.295
511.244	0.2	nlfk	57	verb	list	1	6	nomatch	rouge	-1	1	y	1.295
511.4440000000001	0.0	+	57	verb	list	1	7	nomatch	rouge	-1	1	y	1.295
511.84400000000005	0.2	pbnvrm	57	verb	list	1	8	nomatch	rouge	-1	1	y	1.295
512.044	0.0	+	57	verb	list	1	9	nomatch	rouge	-1	1	y	1.295
512.4439	0.2	noir	57	verb	list	1	10	nomatch	rouge	-1	1	y	1.295
512.6439	0.0	+	57	verb	list	1	11	nomatch	rouge	-1	1	y	1.295
513.0439	0.0	+	57	verb	list	1	12	nomatch	rouge	-1	1	y	1.295
515.0437000000001	0.0	ROUGE	57	verb	list	1	13	nomatch	rouge	-1	1	y	1.295
516.3936	0.0	+	57	verb	list	1	14	nomatch	rouge	-1	1	y	1.295
516.3387	0.0	[response]	57	verb	list	1	15	nomatch	rouge	-1	1	y	1.295
525.4429	0.0	+	58	verb	phrase	1	1	match	jongler	5	1	p	0.60301
525.9929000000001	0.2	wjrnsm	58	verb	phrase	1	2	match	jongler	5	1	p	0.60301
526.1929	0.0	+	58	verb	phrase	1	3	match	jongler	5	1	p	0.60301
526.5928	0.2	bjlw	58	verb	phrase	1	4	match	jongler	5	1	p	0.60301
526.7928	0.0	+	58	verb	phrase	1	5	match	jongler	5	1	p	0.60301
527.1928	0.2	clzr	58	verb	phrase	1	6	match	jongler	5	1	p	0.60301
527.3928	0.0	+	58	verb	phrase	1	7	match	jongler	5	1	p	0.60301
527.7927	0.2	trcz	58	verb	phrase	1	8	match	jongler	5	1	p	0.60301
527.9927	0.0	+	58	verb	phrase	1	9	match	jongler	5	1	p	0.60301
528.3927	0.2	jongler	58	verb	phrase	1	10	match	jongler	5	1	p	0.60301
528.5927	0.0	+	58	verb	phrase	1	11	match	jongler	5	1	p	0.60301
528.9927	0.0	+	58	verb	phrase	1	12	match	jongler	5	1	p	0.60301
530.9925000000001	0.0	JONGLER	58	verb	phrase	1	13	match	jongler	5	1	p	0.60301
531.6591	0.0	+	58	verb	phrase	1	14	match	jongler	5	1	p	0.60301
531.5955000000001	0.0	[response]	58	verb	phrase	1	15	match	jongler	5	1	p	0.60301
533.3923	0.0	+	59	verb	phrase	2	1	nomatch	tard	-1	1	y	0.6413200000000001
533.9423	0.2	brwmg	59	verb	phrase	2	2	nomatch	tard	-1	1	y	0.6413200000000001
534.1423	0.0	+	59	verb	phrase	2	3	nomatch	tard	-1	1	y	0.6413200000000001
534.5422	0.2	swgv	59	verb	phrase	2	4	nomatch	tard	-1	1	y	0.6413200000000001
534.7422	0.0	+	59	verb	phrase	2	5	nomatch	tard	-1	1	y	0.6413200000000001
535.1422	0.2	kbcr	59	verb	phrase	2	6	nomatch	tard	-1	1	y	0.6413200000000001
535.3422	0.0	+	59	verb	phrase	2	7	nomatch	tard	-1	1	y	0.6413200000000001
535.7421	0.2	chasser	59	verb	phrase	2	8	nomatch	tard	-1	1	y	0.6413200000000001
535.9421	0.0	+	59	verb	phrase	2	9	nomatch	tard	-1	1	y	0.6413200000000001
536.3421000000001	0.2	ainsi	59	verb	phrase	2	10	nomatch	tard	-1	1	y	0.6413200000000001
536.5421	0.0	+	59	verb	phrase	2	11	nomatch	tard	-1	1	y	0.6413200000000001
536.942	0.0	+	59	verb	phrase	2	12	nomatch	tard	-1	1	y	0.6413200000000001
538.9419	0.0	TARD	59	verb	phrase	2	13	nomatch	tard	-1	1	y	0.6413200000000001
539.6418	0.0	+	59	verb	phrase	2	14	nomatch	tard	-1	1	y	0.6413200000000001
539.5832	0.0	[response]	59	verb	phrase	2	15	nomatch	tard	-1	1	y	0.6413200000000001
541.3417000000001	0.0	+	60	verb	phrase	2	1	nomatch	paul	-1	1	y	1.397
541.8917	0.2	nrlqjfc	60	verb	phrase	2	2	nomatch	paul	-1	1	y	1.397
542.0916	0.0	+	60	verb	phrase	2	3	nomatch	paul	-1	1	y	1.397
542.4916000000001	0.2	bjlw	60	verb	phrase	2	4	nomatch	paul	-1	1	y	1.397
542.6916	0.0	+	60	verb	phrase	2	5	nomatch	paul	-1	1	y	1.397
543.0916	0.2	tw	60	verb	phrase	2	6	nomatch	paul	-1	1	y	1.397
543.2916	0.0	+	60	verb	phrase	2	7	nomatch	paul	-1	1	y	1.397
543.6915	0.2	mieux	60	verb	phrase	2	8	nomatch	paul	-1	1	y	1.397
543.8915000000001	0.0	+	60	verb	phrase	2	9	nomatch	paul	-1	1	y	1.397
544.2915	0.2	voyager	60	verb	phrase	2	10	nomatch	paul	-1	1	y	1.397
544.4915	0.0	+	60	verb	phrase	2	11	nomatch	paul	-1	1	y	1.397
544.8914	0.0	+	60	verb	phrase	2	12	nomatch	paul	-1	1	y	1.397
546.8913	0.0	PAUL	60	verb	phrase	2	13	nomatch	paul	-1	1	y	1.397
548.3578	0.0	+	60	verb	phrase	2	14	nomatch	paul	-1	1	y	1.397
548.2882000000001	0.0	[response]	60	verb	phrase	2	15	nomatch	paul	-1	1	y	1.397
549.2911	0.0	+	61	noun	phrase	1	1	match	beau	5	0	TIMEOUT	-1.0
549.841	0.2	hzmq	61	noun	phrase	1	2	match	beau	5	0	TIMEOUT	-1.0
550.041	0.0	+	61	noun	phrase	1	3	match	beau	5	0	TIMEOUT	-1.0
550.441	0.2	bqsx	61	noun	phrase	1	4	match	beau	5	0	TIMEOUT	-1.0
550.6410000000001	0.0	+	61	noun	phrase	1	5	match	beau	5	0	TIMEOUT	-1.0
551.041	0.2	stm	61	noun	phrase	1	6	match	beau	5	0	TIMEOUT	-1.0
551.2409	0.0	+	61	noun	phrase	1	7	match	beau	5	0	TIMEOUT	-1.0
551.6409	0.2	jmrgfh	61	noun	phrase	1	8	match	beau	5	0	TIMEOUT	-1.0
551.8409	0.0	+	61	noun	phrase	1	9	match	beau	5	0	TIMEOUT	-1.0
552.2409	0.2	beau	61	noun	phrase	1	10	match	beau	5	0	TIMEOUT	-1.0
552.4408	0.0	+	61	noun	phrase	1	11	match	beau	5	0	TIMEOUT	-1.0
552.8408000000001	0.0	+	61	noun	phrase	1	12	match	beau	5	0	TIMEOUT	-1.0
554.8407	0.0	BEAU	61	noun	phrase	1	13	match	beau	5	0	TIMEOUT	-1.0
557.2405	0.0	+	62	verb	list	2	1	nomatch	beaucoup	-1	1	y	0.75902
557.8404	0.2	rhdnkjg	62	verb	list	2	2	nomatch	beaucoup	-1	1	y	0.75902
558.0404	0.0	+	62	verb	list	2	3	nomatch	beaucoup	-1	1	y	0.75902
558.4404000000001	0.2	qrgw	62	verb	list	2	4	nomatch	beaucoup	-1	1	y	0.75902
558.6404	0.0	+	62	verb	list	2	5	nomatch	beaucoup	-1	1	y	0.75902
559.0403	0.2	kbcr	62	verb	list	2	6	nomatch	beaucoup	-1	1	y	0.75902
559.2403	0.0	+	62	verb	list	2	7	nomatch	beaucoup	-1	1	y	0.75902
559.6403	0.2	petit	62	verb	list	2	8	nomatch	beaucoup	-1	1	y	0.75902
559.8403000000001	0.0	+	62	verb	list	2	9	nomatch	beaucoup	-1	1	y	0.75902
560.2402000000001	0.2	parader	62	verb	list	2	10	nomatch	beaucoup	-1	1	y	0.75902
560.4402	0.0	+	62	verb	list	2	11	nomatch	beaucoup	-1	1	y	0.75902
560.8402	0.0	+	62	verb	list	2	12	nomatch	beaucoup	-1	1	y	0.75902
562.84	0.0	BEAUCOUP	62	verb	list	2	13	nomatch	beaucoup	-1	1	y	0.75902
563.6566	0.0	+	62	verb	list	2	14	nomatch	beaucoup	-1	1	y	0.75902
563.5991	0.0	[response]	62	verb	list	2	15	nomatch	beaucoup	-1	1	y	0.75902
565.2398000000001	0.0	+	63	verb	phrase	4	1	nomatch	sans	-1	1	y	5.1369
565.7898	0.2	gdhkc	63	verb	phrase	4	2	nomatch	sans	-1	1	y	5.1369
565.9898000000001	0.0	+	63	verb	phrase	4	3	nomatch	sans	-1	1	y	5.1369
566.3898	0.2	jade	63	verb	phrase	4	4	nomatch	sans	-1	1	y	5.1369
566.5898	0.0	+	63	verb	phrase	4	5	nomatch	sans	-1	1	y	5.1369
566.9897	0.2	peut	63	verb	phrase	4	6	nomatch	sans	-1	1	y	5.1369
567.1897	0.0	+	63	verb	phrase	4	7	nomatch	sans	-1	1	y	5.1369
567.5897	0.2	moins	63	verb	phrase	4	8	nomatch	sans	-1	1	y	5.1369
567.7897	0.0	+	63	verb	phrase	4	9	nomatch	sans	-1	1	y	5.1369
568.1896	0.2	galoper	63	verb	phrase	4	10	nomatch	sans	-1	1	y	5.1369
568.3896	0.0	+	63	verb	phrase	4	11	nomatch	sans	-1	1	y	5.1369
568.7896000000001	0.0	+	63	verb	phrase	4	12	nomatch	sans	-1	1	y	5.1369
570.7894	0.0	SANS	63	verb	phrase	4	13	nomatch	sans	-1	1	y	5.1369
575.989	0.0	+	63	verb	phrase	4	14	nomatch	sans	-1	1	y	5.1369
575.9263	0.0	[response]	63	verb	phrase	4	15	nomatch	sans	-1	1	y	5.1369
581.1886000000001	0.0	+	64	noun	phrase	2	1	match	casier	5	0	TIMEOUT	-1.0
581.7386	0.2	kpvbnd	64	noun	phrase	2	2	match	casier	5	0	TIMEOUT	-1.0
581.9386000000001	0.0	+	64	noun	phrase	2	3	match	casier	5	0	TIMEOUT	-1.0
582.3385000000001	0.2	mbnk	64	noun	phrase	2	4	match	casier	5	0	TIMEOUT	-1.0
582.5385	0.0	+	64	noun	phrase	2	5	match	casier	5	0	TIMEOUT	-1.0
582.9385	0.2	nlfk	64	noun	phrase	2	6	match	casier	5	0	TIMEOUT	-1.0
583.1385	0.0	+	64	noun	phrase	2	7	match	casier	5	0	TIMEOUT	-1.0
583.5385	0.2	beau	64	noun	phrase	2	8	match	casier	5	0	TIMEOUT	-1.0
583.7384000000001	0.0	+	64	noun	phrase	2	9	match	casier	5	0	TIMEOUT	-1.0
584.1384	0.2	casier	64	noun	phrase	2	10	match	casier	5	0	TIMEOUT	-1.0
584.3384	0.0	+	64	noun	phrase	2	11	match	casier	5	0	TIMEOUT	-1.0
584.7384000000001	0.0	+	64	noun	phrase	2	12	match	casier	5	0	TIMEOUT	-1.0
586.7382	0.0	CASIER	64	noun	phrase	2	13	match	casier	5	0	TIMEOUT	-1.0
589.1547	0.0	+	65	verb	list	4	1	match	peut	3	1	p	0.97845
589.738	0.2	sdlfn	65	verb	list	4	2	match	peut	3	1	p	0.97845
589.938	0.0	+	65	verb	list	4	3	match	peut	3	1	p	0.97845
590.3379	0.2	pour	65	verb	list	4	4	match	peut	3	1	p	0.97845
590.5379	0.0	+	65	verb	list	4	5	match	peut	3	1	p	0.97845
590.9379	0.2	peut	65	verb	list	4	6	match	peut	3	1	p	0.97845
591.1379000000001	0.0	+	65	verb	list	4	7	match	peut	3	1	p	0.97845
591.5378000000001	0.2	vieux	65	verb	list	4	8	match	peut	3	1	p	0.97845
591.7378	0.0	+	65	verb	list	4	9	match	peut	3	1	p	0.97845
592.1378	0.2	nager	65	verb	list	4	10	match	peut	3	1	p	0.97845
592.3378	0.0	+	65	verb	list	4	11	match	peut	3	1	p	0.97845
592.7377	0.0	+	65	verb	list	4	12	match	peut	3	1	p	0.97845
594.7376	0.0	PEUT	65	verb	list	4	13	match	peut	3	1	p	0.97845
595.7708	0.0	+	65	verb	list	4	14	match	peut	3	1	p	0.97845
595.716	0.0	[response]	65	verb	list	4	15	match	peut	3	1	p	0.97845
605.1368	0.0	+	66	noun	phrase	4	1	nomatch	marc	-1	1	y	0.75419
605.6867	0.2	cmslp	66	noun	phrase	4	2	nomatch	marc	-1	1	y	0.75419
605.8867	0.0	+	66	noun	phrase	4	3	nomatch	marc	-1	1	y	0.75419
606.2867	0.2	sur	66	noun	phrase	4	4	nomatch	marc	-1	1	y	0.75419
606.4867	0.0	+	66	noun	phrase	4	5	nomatch	marc	-1	1	y	0.75419
606.8866	0.2	son	66	noun	phrase	4	6	nomatch	marc	-1	1	y	0.75419
607.0866	0.0	+	66	noun	phrase	4	7	nomatch	marc	-1	1	y	0.75419
607.4866000000001	0.2	petit	66	noun	phrase	4	8	nomatch	marc	-1	1	y	0.75419
607.6866	0.0	+	66	noun	phrase	4	9	nomatch	marc	-1	1	y	0.75419
608.0866	0.2	clavier	66	noun	phrase	4	10	nomatch	marc	-1	1	y	0.75419
608.2865	0.0	+	66	noun	phrase	4	11	nomatch	marc	-1	1	y	0.75419
608.6865	0.0	+	66	noun	phrase	4	12	nomatch	marc	-1	1	y	0.75419
610.6864	0.0	MARC	66	noun	phrase	4	13	nomatch	marc	-1	1	y	0.75419
611.5029000000001	0.0	+	66	noun	phrase	4	14	nomatch	marc	-1	1	y	0.75419
611.4405	0.0	[response]	66	noun	phrase	4	15	nomatch	marc	-1	1	y	0.75419
613.0862000000001	0.0	+	67	verb	phrase	1	1	nomatch	peut	-1	1	y	0.7225200000000002
613.6361	0.2	qkwhvj	67	verb	phrase	1	2	nomatch	peut	-1	1	y	0.7225200000000002
613.8361	0.0	+	67	verb	phrase	1	3	nomatch	peut	-1	1	y	0.7225200000000002
614.2361	0.2	rpcx	67	verb	phrase	1	4	nomatch	peut	-1	1	y	0.7225200000000002
614.4361	0.0	+	67	verb	phrase	1	5	nomatch	peut	-1	1	y	0.7225200000000002
614.836	0.2	clzr	67	verb	phrase	1	6	nomatch	peut	-1	1	y	0.7225200000000002
615.0360000000001	0.0	+	67	verb	phrase	1	7	nomatch	peut	-1	1	y	0.7225200000000002
615.436	0.2	wbrkncv	67	verb	phrase	1	8	nomatch	peut	-1	1	y	0.7225200000000002
615.636	0.0	+	67	verb	phrase	1	9	nomatch	peut	-1	1	y	0.7225200000000002
616.0359	0.2	moins	67	verb	phrase	1	10	nomatch	peut	-1	1	y	0.7225200000000002
616.2359	0.0	+	67	verb	phrase	1	11	nomatch	peut	-1	1	y	0.7225200000000002
616.6359	0.0	+	67	verb	phrase	1	12	nomatch	peut	-1	1	y	0.7225200000000002
618.6357	0.0	PEUT	67	verb	phrase	1	13	nomatch	peut	-1	1	y	0.7225200000000002
619.419	0.0	+	67	verb	phrase	1	14	nomatch	peut	-1	1	y	0.7225200000000002
619.3583	0.0	[response]	67	verb	phrase	1	15	nomatch	peut	-1	1	y	0.7225200000000002
621.0355000000001	0.0	+	68	noun	phrase	1	1	nomatch	sur	-1	0	TIMEOUT	-1.0
621.5855	0.2	svpxrf	68	noun	phrase	1	2	nomatch	sur	-1	0	TIMEOUT	-1.0
621.7855000000001	0.0	+	68	noun	phrase	1	3	nomatch	sur	-1	0	TIMEOUT	-1.0
622.1855	0.2	mbnk	68	noun	phrase	1	4	nomatch	sur	-1	0	TIMEOUT	-1.0
622.3855	0.0	+	68	noun	phrase	1	5	nomatch	sur	-1	0	TIMEOUT	-1.0
622.7854	0.2	zfj	68	noun	phrase	1	6	nomatch	sur	-1	0	TIMEOUT	-1.0
622.9854	0.0	+	68	noun	phrase	1	7	nomatch	sur	-1	0	TIMEOUT	-1.0
623.3854	0.2	qrdt	68	noun	phrase	1	8	nomatch	sur	-1	0	TIMEOUT	-1.0
623.5854	0.0	+	68	noun	phrase	1	9	nomatch	sur	-1	0	TIMEOUT	-1.0
623.9853	0.2	cendrier	68	noun	phrase	1	10	nomatch	sur	-1	0	TIMEOUT	-1.0
624.1853	0.0	+	68	noun	phrase	1	11	nomatch	sur	-1	0	TIMEOUT	-1.0
624.5853000000001	0.0	+	68	noun	phrase	1	12	nomatch	sur	-1	0	TIMEOUT	-1.0
626.5851	0.0	SUR	68	noun	phrase	1	13	nomatch	sur	-1	0	TIMEOUT	-1.0
629.0016	0.0	+	69	verb	phrase	4	1	nomatch	vert	-1	0	p	1.6966
629.5849000000001	0.2	ktgpfmr	69	verb	phrase	4	2	nomatch	vert	-1	0	p	1.6966
629.7849	0.0	+	69	verb	phrase	4	3	nomatch	vert	-1	0	p	1.6966
630.1849	0.2	jean	69	verb	phrase	4	4	nomatch	vert	-1	0	p	1.6966
630.3848	0.0	+	69	verb	phrase	4	5	nomatch	vert	-1	0	p	1.6966
630.7848	0.2	peut	69	verb	phrase	4	6	nomatch	vert	-1	0	p	1.6966
630.9848000000001	0.0	+	69	verb	phrase	4	7	nomatch	vert	-1	0	p	1.6966
631.4014	0.2	plonger	69	verb	phrase	4	8	nomatch	vert	-1	0	p	1.6966
631.6014	0.0	+	69	verb	phrase	4	9	nomatch	vert	-1	0	p	1.6966
632.0014	0.2	tôt	69	verb	phrase	4	10	nomatch	vert	-1	0	p	1.6966
632.2014	0.0	+	69	verb	phrase	4	11	nomatch	vert	-1	0	p	1.6966
632.6013	0.0	+	69	verb	phrase	4	12	nomatch	vert	-1	0	p	1.6966
634.6012000000001	0.0	VERT	69	verb	phrase	4	13	nomatch	vert	-1	0	p	1.6966
636.3677	0.0	+	69	verb	phrase	4	14	nomatch	vert	-1	0	p	1.6966
636.2978	0.0	[response]	69	verb	phrase	4	15	nomatch	vert	-1	0	p	1.6966
637.001	0.0	+	70	verb	phrase	2	1	match	vite	5	1	p	0.47472
637.5509000000001	0.2	xqscntf	70	verb	phrase	2	2	match	vite	5	1	p	0.47472
637.7509	0.0	+	70	verb	phrase	2	3	match	vite	5	1	p	0.47472
638.1509	0.2	ftb	70	verb	phrase	2	4	match	vite	5	1	p	0.47472
638.3509	0.0	+	70	verb	phrase	2	5	match	vite	5	1	p	0.47472
638.7509	0.2	tw	70	verb	phrase	2	6	match	vite	5	1	p	0.47472
638.9508000000001	0.0	+	70	verb	phrase	2	7	match	vite	5	1	p	0.47472
639.3508	0.2	voyager	70	verb	phrase	2	8	match	vite	5	1	p	0.47472
639.5508	0.0	+	70	verb	phrase	2	9	match	vite	5	1	p	0.47472
639.9508000000001	0.2	vite	70	verb	phrase	2	10	match	vite	5	1	p	0.47472
640.1507	0.0	+	70	verb	phrase	2	11	match	vite	5	1	p	0.47472
640.5507	0.0	+	70	verb	phrase	2	12	match	vite	5	1	p	0.47472
642.5506	0.0	VITE	70	verb	phrase	2	13	match	vite	5	1	p	0.47472
643.0839	0.0	+	70	verb	phrase	2	14	match	vite	5	1	p	0.47472
643.0253	0.0	[response]	70	verb	phrase	2	15	match	vite	5	1	p	0.47472
644.9504000000001	0.0	+	71	verb	list	3	1	match	son	3	0	y	4.0195
645.5003	0.2	xvjrgdf	71	verb	list	3	2	match	son	3	0	y	4.0195
645.7003	0.0	+	71	verb	list	3	3	match	son	3	0	y	4.0195
646.1003000000001	0.2	rpcx	71	verb	list	3	4	match	son	3	0	y	4.0195
646.3003	0.0	+	71	verb	list	3	5	match	son	3	0	y	4.0195
646.7002	0.2	son	71	verb	list	3	6	match	son	3	0	y	4.0195
646.9002	0.0	+	71	verb	list	3	7	match	son	3	0	y	4.0195
647.3002	0.2	plonger	71	verb	list	3	8	match	son	3	0	y	4.0195
647.5002000000001	0.0	+	71	verb	list	3	9	match	son	3	0	y	4.0195
647.9002	0.2	noir	71	verb	list	3	10	match	son	3	0	y	4.0195
648.1001	0.0	+	71	verb	list	3	11	match	son	3	0	y	4.0195
648.5001	0.0	+	71	verb	list	3	12	match	son	3	0	y	4.0195
650.4999	0.0	SON	71	verb	list	3	13	match	son	3	0	y	4.0195
654.583	0.0	+	71	verb	list	3	14	match	son	3	0	y	4.0195
654.5195	0.0	[response]	71	verb	list	3	15	match	son	3	0	y	4.0195
676.8979	0.0	+	72	verb	phrase	3	1	nomatch	peut	-1	1	y	2.3338
677.4479	0.2	pqmt	72	verb	phrase	3	2	nomatch	peut	-1	1	y	2.3338
677.6479	0.0	+	72	verb	phrase	3	3	nomatch	peut	-1	1	y	2.3338
678.0478	0.2	ftb	72	verb	phrase	3	4	nomatch	peut	-1	1	y	2.3338
678.2478	0.0	+	72	verb	phrase	3	5	nomatch	peut	-1	1	y	2.3338
678.6478000000001	0.2	va	72	verb	phrase	3	6	nomatch	peut	-1	1	y	2.3338
678.8478	0.0	+	72	verb	phrase	3	7	nomatch	peut	-1	1	y	2.3338
679.2477	0.2	nager	72	verb	phrase	3	8	nomatch	peut	-1	1	y	2.3338
679.4477	0.0	+	72	verb	phrase	3	9	nomatch	peut	-1	1	y	2.3338
679.8477	0.2	tôt	72	verb	phrase	3	10	nomatch	peut	-1	1	y	2.3338
680.0477000000001	0.0	+	72	verb	phrase	3	11	nomatch	peut	-1	1	y	2.3338
680.4476	0.0	+	72	verb	phrase	3	12	nomatch	peut	-1	1	y	2.3338
682.4475	0.0	PEUT	72	verb	phrase	3	13	nomatch	peut	-1	1	y	2.3338
684.8473	0.0	+	72	verb	phrase	3	14	nomatch	peut	-1	1	y	2.3338
684.7812	0.0	[response]	72	verb	phrase	3	15	nomatch	peut	-1	1	y	2.3338
684.914	0.0	+	73	noun	list	4	1	match	casier	5	1	p	0.85979
685.3973	0.2	flnphvw	73	noun	list	4	2	match	casier	5	1	p	0.85979
685.5972	0.0	+	73	noun	list	4	3	match	casier	5	1	p	0.85979
685.9972	0.2	jade	73	noun	list	4	4	match	casier	5	1	p	0.85979
686.1972000000001	0.0	+	73	noun	list	4	5	match	casier	5	1	p	0.85979
686.5972	0.2	mon	73	noun	list	4	6	match	casier	5	1	p	0.85979
686.7972	0.0	+	73	noun	list	4	7	match	casier	5	1	p	0.85979
687.1971	0.2	trop	73	noun	list	4	8	match	casier	5	1	p	0.85979
687.3971	0.0	+	73	noun	list	4	9	match	casier	5	1	p	0.85979
687.7971	0.2	casier	73	noun	list	4	10	match	casier	5	1	p	0.85979
687.9971	0.0	+	73	noun	list	4	11	match	casier	5	1	p	0.85979
688.397	0.0	+	73	noun	list	4	12	match	casier	5	1	p	0.85979
690.3969000000001	0.0	CASIER	73	noun	list	4	13	match	casier	5	1	p	0.85979
691.3135	0.0	+	73	noun	list	4	14	match	casier	5	1	p	0.85979
691.2567	0.0	[response]	73	noun	list	4	15	match	casier	5	1	p	0.85979
700.7961	0.0	+	74	verb	list	3	1	nomatch	sous	-1	0	TIMEOUT	-1.0
701.346	0.2	nhg	74	verb	list	3	2	nomatch	sous	-1	0	TIMEOUT	-1.0
701.546	0.0	+	74	verb	list	3	3	nomatch	sous	-1	0	TIMEOUT	-1.0
701.946	0.2	qlk	74	verb	list	3	4	nomatch	sous	-1	0	TIMEOUT	-1.0
702.1460000000001	0.0	+	74	verb	list	3	5	nomatch	sous	-1	0	TIMEOUT	-1.0
702.5459000000001	0.2	doit	74	verb	list	3	6	nomatch	sous	-1	0	TIMEOUT	-1.0
702.7459	0.0	+	74	verb	list	3	7	nomatch	sous	-1	0	TIMEOUT	-1.0
703.1459	0.2	grand	74	verb	list	3	8	nomatch	sous	-1	0	TIMEOUT	-1.0
703.3459	0.0	+	74	verb	list	3	9	nomatch	sous	-1	0	TIMEOUT	-1.0
703.7458	0.2	jongler	74	verb	list	3	10	nomatch	sous	-1	0	TIMEOUT	-1.0
703.9458000000001	0.0	+	74	verb	list	3	11	nomatch	sous	-1	0	TIMEOUT	-1.0
704.3458	0.0	+	74	verb	list	3	12	nomatch	sous	-1	0	TIMEOUT	-1.0
706.3456	0.0	SOUS	74	verb	list	3	13	nomatch	sous	-1	0	TIMEOUT	-1.0
708.7455	0.0	+	75	verb	list	3	1	nomatch	vieux	-1	0	TIMEOUT	-1.0
709.3454	0.2	pczvsh	75	verb	list	3	2	nomatch	vieux	-1	0	TIMEOUT	-1.0
709.5454	0.0	+	75	verb	list	3	3	nomatch	vieux	-1	0	TIMEOUT	-1.0
709.9454000000001	0.2	swgv	75	verb	list	3	4	nomatch	vieux	-1	0	TIMEOUT	-1.0
710.1454	0.0	+	75	verb	list	3	5	nomatch	vieux	-1	0	TIMEOUT	-1.0
710.5453	0.2	mon	75	verb	list	3	6	nomatch	vieux	-1	0	TIMEOUT	-1.0
710.7453	0.0	+	75	verb	list	3	7	nomatch	vieux	-1	0	TIMEOUT	-1.0
711.1453	0.2	nager	75	verb	list	3	8	nomatch	vieux	-1	0	TIMEOUT	-1.0
711.3453000000001	0.0	+	75	verb	list	3	9	nomatch	vieux	-1	0	TIMEOUT	-1.0
711.7452000000001	0.2	vert	75	verb	list	3	10	nomatch	vieux	-1	0	TIMEOUT	-1.0
711.9452	0.0	+	75	verb	list	3	11	nomatch	vieux	-1	0	TIMEOUT	-1.0
712.3452	0.0	+	75	verb	list	3	12	nomatch	vieux	-1	0	TIMEOUT	-1.0
714.345	0.0	VIEUX	75	verb	list	3	13	nomatch	vieux	-1	0	TIMEOUT	-1.0
716.7448	0.0	+	76	verb	list	1	1	nomatch	noir	-1	1	y	0.556
717.3448000000001	0.2	cbn	76	verb	list	1	2	nomatch	noir	-1	1	y	0.556
717.5448	0.0	+	76	verb	list	1	3	nomatch	noir	-1	1	y	0.556
717.9448	0.2	mpnw	76	verb	list	1	4	nomatch	noir	-1	1	y	0.556
718.1447000000001	0.0	+	76	verb	list	1	5	nomatch	noir	-1	1	y	0.556
718.5447	0.2	stm	76	verb	list	1	6	nomatch	noir	-1	1	y	0.556
718.7447	0.0	+	76	verb	list	1	7	nomatch	noir	-1	1	y	0.556
719.1447000000001	0.2	jfskqmr	76	verb	list	1	8	nomatch	noir	-1	1	y	0.556
719.3446	0.0	+	76	verb	list	1	9	nomatch	noir	-1	1	y	0.556
719.7446	0.2	rouge	76	verb	list	1	10	nomatch	noir	-1	1	y	0.556
719.9446	0.0	+	76	verb	list	1	11	nomatch	noir	-1	1	y	0.556
720.3446	0.0	+	76	verb	list	1	12	nomatch	noir	-1	1	y	0.556
722.3444000000001	0.0	NOIR	76	verb	list	1	13	nomatch	noir	-1	1	y	0.556
722.961	0.0	+	76	verb	list	1	14	nomatch	noir	-1	1	y	0.556
722.9004	0.0	[response]	76	verb	list	1	15	nomatch	noir	-1	1	y	0.556
724.7442	0.0	+	77	verb	phrase	3	1	nomatch	plonger	-1	1	y	1.3363
725.2942	0.2	jrmtdxw	77	verb	phrase	3	2	nomatch	plonger	-1	1	y	1.3363
725.4942	0.0	+	77	verb	phrase	3	3	nomatch	plonger	-1	1	y	1.3363
725.8978000000001	0.2	vzfj	77	verb	phrase	3	4	nomatch	plonger	-1	1	y	1.3363
726.0941	0.0	+	77	verb	phrase	3	5	nomatch	plonger	-1	1	y	1.3363
726.4941	0.2	peut	77	verb	phrase	3	6	nomatch	plonger	-1	1	y	1.3363
726.6941	0.0	+	77	verb	phrase	3	7	nomatch	plonger	-1	1	y	1.3363
727.094	0.2	plus	77	verb	phrase	3	8	nomatch	plonger	-1	1	y	1.3363
727.294	0.0	+	77	verb	phrase	3	9	nomatch	plonger	-1	1	y	1.3363
727.6940000000001	0.2	jongler	77	verb	phrase	3	10	nomatch	plonger	-1	1	y	1.3363
727.894	0.0	+	77	verb	phrase	3	11	nomatch	plonger	-1	1	y	1.3363
728.294	0.0	+	77	verb	phrase	3	12	nomatch	plonger	-1	1	y	1.3363
730.2938	0.0	PLONGER	77	verb	phrase	3	13	nomatch	plonger	-1	1	y	1.3363
731.6937	0.0	+	77	verb	phrase	3	14	nomatch	plonger	-1	1	y	1.3363
731.6301	0.0	[response]	77	verb	phrase	3	15	nomatch	plonger	-1	1	y	1.3363
740.693	0.0	+	78	verb	list	1	1	nomatch	rouge	-1	1	y	0.76654
741.243	0.2	hcdg	78	verb	list	1	2	nomatch	rouge	-1	1	y	0.76654
741.4429	0.0	+	78	verb	list	1	3	nomatch	rouge	-1	1	y	0.76654
741.8429	0.2	ftb	78	verb	list	1	4	nomatch	rouge	-1	1	y	0.76654
742.0429	0.0	+	78	verb	list	1	5	nomatch	rouge	-1	1	y	0.76654
742.4429	0.2	zfj	78	verb	list	1	6	nomatch	rouge	-1	1	y	0.76654
742.6428	0.0	+	78	verb	list	1	7	nomatch	rouge	-1	1	y	0.76654
743.0428	0.2	jwxmfhp	78	verb	list	1	8	nomatch	rouge	-1	1	y	0.76654
743.2428	0.0	+	78	verb	list	1	9	nomatch	rouge	-1	1	y	0.76654
743.6428	0.2	blanc	78	verb	list	1	10	nomatch	rouge	-1	1	y	0.76654
743.8428	0.0	+	78	verb	list	1	11	nomatch	rouge	-1	1	y	0.76654
744.2427	0.0	+	78	verb	list	1	12	nomatch	rouge	-1	1	y	0.76654
746.2426	0.0	ROUGE	78	verb	list	1	13	nomatch	rouge	-1	1	y	0.76654
747.0758000000001	0.0	+	78	verb	list	1	14	nomatch	rouge	-1	1	y	0.76654
747.0091000000001	0.0	[response]	78	verb	list	1	15	nomatch	rouge	-1	1	y	0.76654
748.6424000000001	0.0	+	79	verb	list	1	1	nomatch	yves	-1	1	y	0.6667
749.1923	0.2	rhmstjg	79	verb	list	1	2	nomatch	yves	-1	1	y	0.6667
749.3923	0.0	+	79	verb	list	1	3	nomatch	yves	-1	1	y	0.6667
749.7923000000001	0.2	bqsx	79	verb	list	1	4	nomatch	yves	-1	1	y	0.6667
749.9923	0.0	+	79	verb	list	1	5	nomatch	yves	-1	1	y	0.6667
750.3923	0.2	kbcr	79	verb	list	1	6	nomatch	yves	-1	1	y	0.6667
750.5922	0.0	+	79	verb	list	1	7	nomatch	yves	-1	1	y	0.6667
750.9922	0.2	qpmnkfg	79	verb	list	1	8	nomatch	yves	-1	1	y	0.6667
751.1922000000001	0.0	+	79	verb	list	1	9	nomatch	yves	-1	1	y	0.6667
751.5922	0.2	voyager	79	verb	list	1	10	nomatch	yves	-1	1	y	0.6667
751.7921	0.0	+	79	verb	list	1	11	nomatch	yves	-1	1	y	0.6667
752.1921	0.0	+	79	verb	list	1	12	nomatch	yves	-1	1	y	0.6667
754.192	0.0	YVES	79	verb	list	1	13	nomatch	yves	-1	1	y	0.6667
754.9252	0.0	+	79	verb	list	1	14	nomatch	yves	-1	1	y	0.6667
754.8587	0.0	[response]	79	verb	list	1	15	nomatch	yves	-1	1	y	0.6667
756.5918	0.0	+	80	verb	phrase	2	1	nomatch	plus	-1	1	y	1.5472
757.1417	0.2	cnflzk	80	verb	phrase	2	2	nomatch	plus	-1	1	y	1.5472
757.3417000000001	0.0	+	80	verb	phrase	2	3	nomatch	plus	-1	1	y	1.5472
757.7417	0.2	vzfj	80	verb	phrase	2	4	nomatch	plus	-1	1	y	1.5472
757.9417	0.0	+	80	verb	phrase	2	5	nomatch	plus	-1	1	y	1.5472
758.3416	0.2	tw	80	verb	phrase	2	6	nomatch	plus	-1	1	y	1.5472
758.5416	0.0	+	80	verb	phrase	2	7	nomatch	plus	-1	1	y	1.5472
758.9416	0.2	moins	80	verb	phrase	2	8	nomatch	plus	-1	1	y	1.5472
759.1416	0.0	+	80	verb	phrase	2	9	nomatch	plus	-1	1	y	1.5472
759.5415	0.2	danser	80	verb	phrase	2	10	nomatch	plus	-1	1	y	1.5472
759.7415	0.0	+	80	verb	phrase	2	11	nomatch	plus	-1	1	y	1.5472
760.1415000000001	0.0	+	80	verb	phrase	2	12	nomatch	plus	-1	1	y	1.5472
762.1413	0.0	PLUS	80	verb	phrase	2	13	nomatch	plus	-1	1	y	1.5472
763.7579000000001	0.0	+	80	verb	phrase	2	14	nomatch	plus	-1	1	y	1.5472
764.5423000000001	0.0	+	80	verb	phrase	2	15	nomatch	plus	-1	1	y	1.5472
764.9911000000001	0.0	+	80	verb	phrase	2	16	nomatch	plus	-1	1	y	1.5472
765.0911	0.0	+	80	verb	phrase	2	17	nomatch	plus	-1	1	y	1.5472
766.5243	0.0	+	80	verb	phrase	2	18	nomatch	plus	-1	1	y	1.5472
766.6243000000001	0.0	+	80	verb	phrase	2	19	nomatch	plus	-1	1	y	1.5472
768.0076	0.0	+	80	verb	phrase	2	20	nomatch	plus	-1	1	y	1.5472
768.1076	0.0	+	80	verb	phrase	2	21	nomatch	plus	-1	1	y	1.5472
769.5241	0.0	+	80	verb	phrase	2	22	nomatch	plus	-1	1	y	1.5472
769.6241	0.0	+	80	verb	phrase	2	23	nomatch	plus	-1	1	y	1.5472
771.0073	0.0	+	80	verb	phrase	2	24	nomatch	plus	-1	1	y	1.5472
771.1073	0.0	+	80	verb	phrase	2	25	nomatch	plus	-1	1	y	1.5472
772.5239	0.0	+	80	verb	phrase	2	26	nomatch	plus	-1	1	y	1.5472
772.6239	0.0	+	80	verb	phrase	2	27	nomatch	plus	-1	1	y	1.5472
774.0071	0.0	+	80	verb	phrase	2	28	nomatch	plus	-1	1	y	1.5472
774.1071000000001	0.0	+	80	verb	phrase	2	29	nomatch	plus	-1	1	y	1.5472
775.5236	0.0	+	80	verb	phrase	2	30	nomatch	plus	-1	1	y	1.5472
775.6236	0.0	+	80	verb	phrase	2	31	nomatch	plus	-1	1	y	1.5472
776.9902000000001	0.0	+	80	verb	phrase	2	32	nomatch	plus	-1	1	y	1.5472
777.0902	0.0	+	80	verb	phrase	2	33	nomatch	plus	-1	1	y	1.5472
778.5234	0.0	+	80	verb	phrase	2	34	nomatch	plus	-1	1	y	1.5472
778.6234000000001	0.0	+	80	verb	phrase	2	35	nomatch	plus	-1	1	y	1.5472
782.6231	0.0	+	80	verb	phrase	2	36	nomatch	plus	-1	1	y	1.5472
763.6885	0.0	[response]	80	verb	phrase	2	37	nomatch	plus	-1	1	y	1.5472
