onset	duration	stim	trial_number	trial_type	trial_structure	trial_length	sequential_position	probe_type	probe	probe_position	response_correct	response_key	response_time
0.059799999999995634	0.0	+	1	verb	phrase	3	1	nomatch	peut	-1	1	y	0.8240600000000001
0.5428999999999888	0.2	kztpbn	1	verb	phrase	3	2	nomatch	peut	-1	1	y	0.8240600000000001
0.7427999999999884	0.0	+	1	verb	phrase	3	3	nomatch	peut	-1	1	y	0.8240600000000001
1.1425999999999874	0.2	glv	1	verb	phrase	3	4	nomatch	peut	-1	1	y	0.8240600000000001
1.3425999999999902	0.0	+	1	verb	phrase	3	5	nomatch	peut	-1	1	y	0.8240600000000001
1.7423999999999893	0.2	doit	1	verb	phrase	3	6	nomatch	peut	-1	1	y	0.8240600000000001
1.9422999999999888	0.0	+	1	verb	phrase	3	7	nomatch	peut	-1	1	y	0.8240600000000001
2.342099999999988	0.2	nager	1	verb	phrase	3	8	nomatch	peut	-1	1	y	0.8240600000000001
2.5419999999999874	0.0	+	1	verb	phrase	3	9	nomatch	peut	-1	1	y	0.8240600000000001
2.9418000000000006	0.2	tôt	1	verb	phrase	3	10	nomatch	peut	-1	1	y	0.8240600000000001
3.1417	0.0	+	1	verb	phrase	3	11	nomatch	peut	-1	1	y	0.8240600000000001
3.5415999999999883	0.0	+	1	verb	phrase	3	12	nomatch	peut	-1	1	y	0.8240600000000001
5.540700000000001	0.0	PEUT	1	verb	phrase	3	13	nomatch	peut	-1	1	y	0.8240600000000001
6.423599999999993	0.0	+	1	verb	phrase	3	14	nomatch	peut	-1	1	y	0.8240600000000001
6.364699999999999	0.0	[response]	1	verb	phrase	3	15	nomatch	peut	-1	1	y	0.8240600000000001
7.939599999999999	0.0	+	2	noun	list	2	1	nomatch	voilier	-1	1	y	0.82292
8.4893	0.2	wpjts	2	noun	list	2	2	nomatch	voilier	-1	1	y	0.82292
8.6892	0.0	+	2	noun	list	2	3	nomatch	voilier	-1	1	y	0.82292
9.088999999999999	0.2	gjml	2	noun	list	2	4	nomatch	voilier	-1	1	y	0.82292
9.289199999999994	0.0	+	2	noun	list	2	5	nomatch	voilier	-1	1	y	0.82292
9.689099999999996	0.2	tk	2	noun	list	2	6	nomatch	voilier	-1	1	y	0.82292
9.889299999999992	0.0	+	2	noun	list	2	7	nomatch	voilier	-1	1	y	0.82292
10.288999999999987	0.2	clavier	2	noun	list	2	8	nomatch	voilier	-1	1	y	0.82292
10.488599999999991	0.0	+	2	noun	list	2	9	nomatch	voilier	-1	1	y	0.82292
10.888199999999998	0.2	ainsi	2	noun	list	2	10	nomatch	voilier	-1	1	y	0.82292
11.088099999999997	0.0	+	2	noun	list	2	11	nomatch	voilier	-1	1	y	0.82292
11.488	0.0	+	2	noun	list	2	12	nomatch	voilier	-1	1	y	0.82292
13.486999999999995	0.0	VOILIER	2	noun	list	2	13	nomatch	voilier	-1	1	y	0.82292
14.419999999999987	0.0	+	2	noun	list	2	14	nomatch	voilier	-1	1	y	0.82292
14.309999999999988	0.0	[response]	2	noun	list	2	15	nomatch	voilier	-1	1	y	0.82292
15.885999999999996	0.0	+	3	verb	list	1	1	nomatch	patiner	-1	1	y	0.75666
16.435699999999997	0.2	rjq	3	verb	list	1	2	nomatch	patiner	-1	1	y	0.75666
16.635599999999997	0.0	+	3	verb	list	1	3	nomatch	patiner	-1	1	y	0.75666
17.035599999999988	0.2	tfbq	3	verb	list	1	4	nomatch	patiner	-1	1	y	0.75666
17.2359	0.0	+	3	verb	list	1	5	nomatch	patiner	-1	1	y	0.75666
17.635599999999997	0.2	fhgp	3	verb	list	1	6	nomatch	patiner	-1	1	y	0.75666
17.83529999999999	0.0	+	3	verb	list	1	7	nomatch	patiner	-1	1	y	0.75666
18.23559999999999	0.2	svcqdlg	3	verb	list	1	8	nomatch	patiner	-1	1	y	0.75666
18.434799999999996	0.0	+	3	verb	list	1	9	nomatch	patiner	-1	1	y	0.75666
18.834599999999995	0.2	plonger	3	verb	list	1	10	nomatch	patiner	-1	1	y	0.75666
19.034499999999994	0.0	+	3	verb	list	1	11	nomatch	patiner	-1	1	y	0.75666
19.434399999999997	0.0	+	3	verb	list	1	12	nomatch	patiner	-1	1	y	0.75666
21.450699999999998	0.0	PATINER	3	verb	list	1	13	nomatch	patiner	-1	1	y	0.75666
22.26639999999999	0.0	+	3	verb	list	1	14	nomatch	patiner	-1	1	y	0.75666
22.20729999999999	0.0	[response]	3	verb	list	1	15	nomatch	patiner	-1	1	y	0.75666
23.84899999999999	0.0	+	4	noun	phrase	4	1	match	tablier	5	1	p	0.75484
24.39909999999999	0.2	mgqrk	4	noun	phrase	4	2	match	tablier	5	1	p	0.75484
24.5989	0.0	+	4	noun	phrase	4	3	match	tablier	5	1	p	0.75484
24.9991	0.2	vers	4	noun	phrase	4	4	match	tablier	5	1	p	0.75484
25.198899999999995	0.0	+	4	noun	phrase	4	5	match	tablier	5	1	p	0.75484
25.59819999999999	0.2	mon	4	noun	phrase	4	6	match	tablier	5	1	p	0.75484
25.79809999999999	0.0	+	4	noun	phrase	4	7	match	tablier	5	1	p	0.75484
26.197999999999993	0.2	grand	4	noun	phrase	4	8	match	tablier	5	1	p	0.75484
26.397899999999993	0.0	+	4	noun	phrase	4	9	match	tablier	5	1	p	0.75484
26.797699999999992	0.2	tablier	4	noun	phrase	4	10	match	tablier	5	1	p	0.75484
26.99759999999999	0.0	+	4	noun	phrase	4	11	match	tablier	5	1	p	0.75484
27.39739999999999	0.0	+	4	noun	phrase	4	12	match	tablier	5	1	p	0.75484
29.39649999999999	0.0	TABLIER	4	noun	phrase	4	13	match	tablier	5	1	p	0.75484
30.212799999999987	0.0	+	4	noun	phrase	4	14	match	tablier	5	1	p	0.75484
30.151399999999995	0.0	[response]	4	noun	phrase	4	15	match	tablier	5	1	p	0.75484
31.7954	0.0	+	5	noun	list	1	1	nomatch	avec	-1	1	y	0.62831
32.34519999999999	0.2	hcsdpv	5	noun	list	1	2	nomatch	avec	-1	1	y	0.62831
32.54509999999999	0.0	+	5	noun	list	1	3	nomatch	avec	-1	1	y	0.62831
32.94489999999999	0.2	glv	5	noun	list	1	4	nomatch	avec	-1	1	y	0.62831
33.14479999999999	0.0	+	5	noun	list	1	5	nomatch	avec	-1	1	y	0.62831
33.561899999999994	0.2	smx	5	noun	list	1	6	nomatch	avec	-1	1	y	0.62831
33.74499999999999	0.0	+	5	noun	list	1	7	nomatch	avec	-1	1	y	0.62831
34.14439999999999	0.2	dtbqws	5	noun	list	1	8	nomatch	avec	-1	1	y	0.62831
34.345	0.0	+	5	noun	list	1	9	nomatch	avec	-1	1	y	0.62831
34.74409999999999	0.2	plus	5	noun	list	1	10	nomatch	avec	-1	1	y	0.62831
34.94399999999999	0.0	+	5	noun	list	1	11	nomatch	avec	-1	1	y	0.62831
35.3445	0.0	+	5	noun	list	1	12	nomatch	avec	-1	1	y	0.62831
37.3429	0.0	AVEC	5	noun	list	1	13	nomatch	avec	-1	1	y	0.62831
38.02669999999999	0.0	+	5	noun	list	1	14	nomatch	avec	-1	1	y	0.62831
37.97120000000001	0.0	[response]	5	noun	list	1	15	nomatch	avec	-1	1	y	0.62831
39.7418	0.0	+	6	noun	phrase	3	1	nomatch	blanc	-1	1	y	1.0313
40.29159999999999	0.2	bpkc	6	noun	phrase	3	2	nomatch	blanc	-1	1	y	1.0313
40.49149999999999	0.0	+	6	noun	phrase	3	3	nomatch	blanc	-1	1	y	1.0313
40.8913	0.2	gbpz	6	noun	phrase	3	4	nomatch	blanc	-1	1	y	1.0313
41.0912	0.0	+	6	noun	phrase	3	5	nomatch	blanc	-1	1	y	1.0313
41.491	0.2	mon	6	noun	phrase	3	6	nomatch	blanc	-1	1	y	1.0313
41.70819999999999	0.0	+	6	noun	phrase	3	7	nomatch	blanc	-1	1	y	1.0313
42.0912	0.2	petit	6	noun	phrase	3	8	nomatch	blanc	-1	1	y	1.0313
42.291399999999996	0.0	+	6	noun	phrase	3	9	nomatch	blanc	-1	1	y	1.0313
42.6905	0.2	casier	6	noun	phrase	3	10	nomatch	blanc	-1	1	y	1.0313
42.8904	0.0	+	6	noun	phrase	3	11	nomatch	blanc	-1	1	y	1.0313
43.2902	0.0	+	6	noun	phrase	3	12	nomatch	blanc	-1	1	y	1.0313
45.28959999999999	0.0	BLANC	6	noun	phrase	3	13	nomatch	blanc	-1	1	y	1.0313
46.37209999999999	0.0	+	6	noun	phrase	3	14	nomatch	blanc	-1	1	y	1.0313
46.32090000000001	0.0	[response]	6	noun	phrase	3	15	nomatch	blanc	-1	1	y	1.0313
47.688199999999995	0.0	+	7	verb	list	3	1	nomatch	va	-1	1	y	1.2599
48.238	0.2	vlft	7	verb	list	3	2	nomatch	va	-1	1	y	1.2599
48.4379	0.0	+	7	verb	list	3	3	nomatch	va	-1	1	y	1.2599
48.8377	0.2	mrlw	7	verb	list	3	4	nomatch	va	-1	1	y	1.2599
49.0376	0.0	+	7	verb	list	3	5	nomatch	va	-1	1	y	1.2599
49.437799999999996	0.2	doit	7	verb	list	3	6	nomatch	va	-1	1	y	1.2599
49.65459999999999	0.0	+	7	verb	list	3	7	nomatch	va	-1	1	y	1.2599
50.03779999999999	0.2	beau	7	verb	list	3	8	nomatch	va	-1	1	y	1.2599
50.2376	0.0	+	7	verb	list	3	9	nomatch	va	-1	1	y	1.2599
50.63719999999999	0.2	galoper	7	verb	list	3	10	nomatch	va	-1	1	y	1.2599
50.8368	0.0	+	7	verb	list	3	11	nomatch	va	-1	1	y	1.2599
51.236599999999996	0.0	+	7	verb	list	3	12	nomatch	va	-1	1	y	1.2599
53.235699999999994	0.0	VA	7	verb	list	3	13	nomatch	va	-1	1	y	1.2599
54.5518	0.0	+	7	verb	list	3	14	nomatch	va	-1	1	y	1.2599
54.495599999999996	0.0	[response]	7	verb	list	3	15	nomatch	va	-1	1	y	1.2599
55.63459999999999	0.0	+	8	noun	list	4	1	match	moins	4	1	p	0.83917
56.1844	0.2	thqgj	8	noun	list	4	2	match	moins	4	1	p	0.83917
56.384299999999996	0.0	+	8	noun	list	4	3	match	moins	4	1	p	0.83917
56.784099999999995	0.2	luc	8	noun	list	4	4	match	moins	4	1	p	0.83917
56.983999999999995	0.0	+	8	noun	list	4	5	match	moins	4	1	p	0.83917
57.38419999999999	0.2	son	8	noun	list	4	6	match	moins	4	1	p	0.83917
57.58369999999999	0.0	+	8	noun	list	4	7	match	moins	4	1	p	0.83917
58.00099999999999	0.2	moins	8	noun	list	4	8	match	moins	4	1	p	0.83917
58.2174	0.0	+	8	noun	list	4	9	match	moins	4	1	p	0.83917
58.59989999999999	0.2	sablier	8	noun	list	4	10	match	moins	4	1	p	0.83917
58.799899999999994	0.0	+	8	noun	list	4	11	match	moins	4	1	p	0.83917
59.19969999999999	0.0	+	8	noun	list	4	12	match	moins	4	1	p	0.83917
61.1995	0.0	MOINS	8	noun	list	4	13	match	moins	4	1	p	0.83917
62.0984	0.0	+	8	noun	list	4	14	match	moins	4	1	p	0.83917
62.03869999999999	0.0	[response]	8	noun	list	4	15	match	moins	4	1	p	0.83917
63.59769999999999	0.0	+	9	noun	list	4	1	nomatch	vite	-1	1	y	0.76605
64.14739999999999	0.2	mjt	9	noun	list	4	2	nomatch	vite	-1	1	y	0.76605
64.3473	0.0	+	9	noun	list	4	3	nomatch	vite	-1	1	y	0.76605
64.7472	0.2	jean	9	noun	list	4	4	nomatch	vite	-1	1	y	0.76605
64.9472	0.0	+	9	noun	list	4	5	nomatch	vite	-1	1	y	0.76605
65.347	0.2	mon	9	noun	list	4	6	nomatch	vite	-1	1	y	0.76605
65.5468	0.0	+	9	noun	list	4	7	nomatch	vite	-1	1	y	0.76605
65.9466	0.2	plus	9	noun	list	4	8	nomatch	vite	-1	1	y	0.76605
66.14649999999999	0.0	+	9	noun	list	4	9	nomatch	vite	-1	1	y	0.76605
66.54629999999999	0.2	rocher	9	noun	list	4	10	nomatch	vite	-1	1	y	0.76605
66.7462	0.0	+	9	noun	list	4	11	nomatch	vite	-1	1	y	0.76605
67.1461	0.0	+	9	noun	list	4	12	nomatch	vite	-1	1	y	0.76605
69.1452	0.0	VITE	9	noun	list	4	13	nomatch	vite	-1	1	y	0.76605
70.0287	0.0	+	9	noun	list	4	14	nomatch	vite	-1	1	y	0.76605
69.9112	0.0	[response]	9	noun	list	4	15	nomatch	vite	-1	1	y	0.76605
71.5441	0.0	+	10	verb	list	2	1	nomatch	voyager	-1	1	y	0.85948
72.0938	0.2	krplnmg	10	verb	list	2	2	nomatch	voyager	-1	1	y	0.85948
72.29369999999999	0.0	+	10	verb	list	2	3	nomatch	voyager	-1	1	y	0.85948
72.6938	0.2	bzsw	10	verb	list	2	4	nomatch	voyager	-1	1	y	0.85948
72.8936	0.0	+	10	verb	list	2	5	nomatch	voyager	-1	1	y	0.85948
73.2933	0.2	rgnb	10	verb	list	2	6	nomatch	voyager	-1	1	y	0.85948
73.49319999999999	0.0	+	10	verb	list	2	7	nomatch	voyager	-1	1	y	0.85948
73.89299999999999	0.2	nager	10	verb	list	2	8	nomatch	voyager	-1	1	y	0.85948
74.0929	0.0	+	10	verb	list	2	9	nomatch	voyager	-1	1	y	0.85948
74.4927	0.2	rouge	10	verb	list	2	10	nomatch	voyager	-1	1	y	0.85948
74.69269999999999	0.0	+	10	verb	list	2	11	nomatch	voyager	-1	1	y	0.85948
75.09249999999999	0.0	+	10	verb	list	2	12	nomatch	voyager	-1	1	y	0.85948
77.09159999999999	0.0	VOYAGER	10	verb	list	2	13	nomatch	voyager	-1	1	y	0.85948
78.00779999999999	0.0	+	10	verb	list	2	14	nomatch	voyager	-1	1	y	0.85948
77.95109999999998	0.0	[response]	10	verb	list	2	15	nomatch	voyager	-1	1	y	0.85948
79.49049999999998	0.0	+	11	noun	list	4	1	nomatch	vers	-1	1	y	0.84551
80.04019999999998	0.2	cfjq	11	noun	list	4	2	nomatch	vers	-1	1	y	0.84551
80.2401	0.0	+	11	noun	list	4	3	nomatch	vers	-1	1	y	0.84551
80.64	0.2	paul	11	noun	list	4	4	nomatch	vers	-1	1	y	0.84551
80.83989999999999	0.0	+	11	noun	list	4	5	nomatch	vers	-1	1	y	0.84551
81.23969999999998	0.2	leur	11	noun	list	4	6	nomatch	vers	-1	1	y	0.84551
81.4396	0.0	+	11	noun	list	4	7	nomatch	vers	-1	1	y	0.84551
81.83989999999999	0.2	mieux	11	noun	list	4	8	nomatch	vers	-1	1	y	0.84551
82.0398	0.0	+	11	noun	list	4	9	nomatch	vers	-1	1	y	0.84551
82.43909999999998	0.2	panier	11	noun	list	4	10	nomatch	vers	-1	1	y	0.84551
82.639	0.0	+	11	noun	list	4	11	nomatch	vers	-1	1	y	0.84551
83.0389	0.0	+	11	noun	list	4	12	nomatch	vers	-1	1	y	0.84551
85.0382	0.0	VERS	11	noun	list	4	13	nomatch	vers	-1	1	y	0.84551
85.97089999999999	0.0	+	11	noun	list	4	14	nomatch	vers	-1	1	y	0.84551
85.8838	0.0	[response]	11	noun	list	4	15	nomatch	vers	-1	1	y	0.84551
87.4369	0.0	+	12	noun	phrase	1	1	nomatch	doit	-1	1	y	1.3233
87.9866	0.2	tkj	12	noun	phrase	1	2	nomatch	doit	-1	1	y	1.3233
88.1872	0.0	+	12	noun	phrase	1	3	nomatch	doit	-1	1	y	1.3233
88.5867	0.2	dzq	12	noun	phrase	1	4	nomatch	doit	-1	1	y	1.3233
88.7865	0.0	+	12	noun	phrase	1	5	nomatch	doit	-1	1	y	1.3233
89.2035	0.2	pqk	12	noun	phrase	1	6	nomatch	doit	-1	1	y	1.3233
89.3866	0.0	+	12	noun	phrase	1	7	nomatch	doit	-1	1	y	1.3233
89.78579999999998	0.2	gvlmd	12	noun	phrase	1	8	nomatch	doit	-1	1	y	1.3233
89.9857	0.0	+	12	noun	phrase	1	9	nomatch	doit	-1	1	y	1.3233
90.3855	0.2	tablier	12	noun	phrase	1	10	nomatch	doit	-1	1	y	1.3233
90.58549999999998	0.0	+	12	noun	phrase	1	11	nomatch	doit	-1	1	y	1.3233
90.98529999999998	0.0	+	12	noun	phrase	1	12	nomatch	doit	-1	1	y	1.3233
92.98440000000001	0.0	DOIT	12	noun	phrase	1	13	nomatch	doit	-1	1	y	1.3233
94.36710000000001	0.0	+	12	noun	phrase	1	14	nomatch	doit	-1	1	y	1.3233
94.3077	0.0	[response]	12	noun	phrase	1	15	nomatch	doit	-1	1	y	1.3233
95.39989999999999	0.0	+	13	noun	list	4	1	match	tôt	5	1	p	0.75646
95.94969999999999	0.2	hvkpx	13	noun	list	4	2	match	tôt	5	1	p	0.75646
96.1496	0.0	+	13	noun	list	4	3	match	tôt	5	1	p	0.75646
96.5494	0.2	dans	13	noun	list	4	4	match	tôt	5	1	p	0.75646
96.74929999999999	0.0	+	13	noun	list	4	5	match	tôt	5	1	p	0.75646
97.14909999999999	0.2	peut	13	noun	list	4	6	match	tôt	5	1	p	0.75646
97.3491	0.0	+	13	noun	list	4	7	match	tôt	5	1	p	0.75646
97.7489	0.2	panier	13	noun	list	4	8	match	tôt	5	1	p	0.75646
97.966	0.0	+	13	noun	list	4	9	match	tôt	5	1	p	0.75646
98.34919999999998	0.2	tôt	13	noun	list	4	10	match	tôt	5	1	p	0.75646
98.5485	0.0	+	13	noun	list	4	11	match	tôt	5	1	p	0.75646
98.9483	0.0	+	13	noun	list	4	12	match	tôt	5	1	p	0.75646
100.9475	0.0	TÔT	13	noun	list	4	13	match	tôt	5	1	p	0.75646
101.76369999999999	0.0	+	13	noun	list	4	14	match	tôt	5	1	p	0.75646
101.70389999999999	0.0	[response]	13	noun	list	4	15	match	tôt	5	1	p	0.75646
103.3463	0.0	+	14	verb	phrase	1	1	nomatch	beaucoup	-1	1	y	0.86312
103.8961	0.2	qxnpf	14	verb	phrase	1	2	nomatch	beaucoup	-1	1	y	0.86312
104.09599999999999	0.0	+	14	verb	phrase	1	3	nomatch	beaucoup	-1	1	y	0.86312
104.49579999999999	0.2	vhfx	14	verb	phrase	1	4	nomatch	beaucoup	-1	1	y	0.86312
104.6957	0.0	+	14	verb	phrase	1	5	nomatch	beaucoup	-1	1	y	0.86312
105.0955	0.2	tk	14	verb	phrase	1	6	nomatch	beaucoup	-1	1	y	0.86312
105.29539999999999	0.0	+	14	verb	phrase	1	7	nomatch	beaucoup	-1	1	y	0.86312
105.71249999999999	0.2	ckfqvlm	14	verb	phrase	1	8	nomatch	beaucoup	-1	1	y	0.86312
105.89549999999998	0.0	+	14	verb	phrase	1	9	nomatch	beaucoup	-1	1	y	0.86312
106.2957	0.2	plus	14	verb	phrase	1	10	nomatch	beaucoup	-1	1	y	0.86312
106.49489999999999	0.0	+	14	verb	phrase	1	11	nomatch	beaucoup	-1	1	y	0.86312
106.89479999999999	0.0	+	14	verb	phrase	1	12	nomatch	beaucoup	-1	1	y	0.86312
108.89389999999999	0.0	BEAUCOUP	14	verb	phrase	1	13	nomatch	beaucoup	-1	1	y	0.86312
109.8267	0.0	+	14	verb	phrase	1	14	nomatch	beaucoup	-1	1	y	0.86312
109.75699999999999	0.0	[response]	14	verb	phrase	1	15	nomatch	beaucoup	-1	1	y	0.86312
111.29269999999998	0.0	+	15	noun	phrase	3	1	nomatch	bleu	-1	1	y	0.78407
111.84249999999999	0.2	nql	15	noun	phrase	3	2	nomatch	bleu	-1	1	y	0.78407
112.0424	0.0	+	15	noun	phrase	3	3	nomatch	bleu	-1	1	y	0.78407
112.4422	0.2	dsmq	15	noun	phrase	3	4	nomatch	bleu	-1	1	y	0.78407
112.64209999999999	0.0	+	15	noun	phrase	3	5	nomatch	bleu	-1	1	y	0.78407
113.04189999999998	0.2	son	15	noun	phrase	3	6	nomatch	bleu	-1	1	y	0.78407
113.2419	0.0	+	15	noun	phrase	3	7	nomatch	bleu	-1	1	y	0.78407
113.6418	0.2	casier	15	noun	phrase	3	8	nomatch	bleu	-1	1	y	0.78407
113.8422	0.0	+	15	noun	phrase	3	9	nomatch	bleu	-1	1	y	0.78407
114.2419	0.2	vert	15	noun	phrase	3	10	nomatch	bleu	-1	1	y	0.78407
114.4415	0.0	+	15	noun	phrase	3	11	nomatch	bleu	-1	1	y	0.78407
114.8411	0.0	+	15	noun	phrase	3	12	nomatch	bleu	-1	1	y	0.78407
116.8402	0.0	BLEU	15	noun	phrase	3	13	nomatch	bleu	-1	1	y	0.78407
117.6898	0.0	+	15	noun	phrase	3	14	nomatch	bleu	-1	1	y	0.78407
117.62429999999999	0.0	[response]	15	noun	phrase	3	15	nomatch	bleu	-1	1	y	0.78407
119.2393	0.0	+	16	verb	phrase	2	1	match	jongler	4	1	p	0.7936900000000001
119.7889	0.2	ltvj	16	verb	phrase	2	2	match	jongler	4	1	p	0.7936900000000001
119.98879999999998	0.0	+	16	verb	phrase	2	3	match	jongler	4	1	p	0.7936900000000001
120.38859999999998	0.2	zbkp	16	verb	phrase	2	4	match	jongler	4	1	p	0.7936900000000001
120.5885	0.0	+	16	verb	phrase	2	5	match	jongler	4	1	p	0.7936900000000001
120.9883	0.2	tk	16	verb	phrase	2	6	match	jongler	4	1	p	0.7936900000000001
121.18819999999998	0.0	+	16	verb	phrase	2	7	match	jongler	4	1	p	0.7936900000000001
121.58809999999998	0.2	jongler	16	verb	phrase	2	8	match	jongler	4	1	p	0.7936900000000001
121.7883	0.0	+	16	verb	phrase	2	9	match	jongler	4	1	p	0.7936900000000001
122.18849999999999	0.2	tôt	16	verb	phrase	2	10	match	jongler	4	1	p	0.7936900000000001
122.3883	0.0	+	16	verb	phrase	2	11	match	jongler	4	1	p	0.7936900000000001
122.78749999999998	0.0	+	16	verb	phrase	2	12	match	jongler	4	1	p	0.7936900000000001
124.7866	0.0	JONGLER	16	verb	phrase	2	13	match	jongler	4	1	p	0.7936900000000001
125.63619999999999	0.0	+	16	verb	phrase	2	14	match	jongler	4	1	p	0.7936900000000001
125.58030000000001	0.0	[response]	16	verb	phrase	2	15	match	jongler	4	1	p	0.7936900000000001
143.19490000000002	0.0	+	17	verb	phrase	1	1	nomatch	nouveau	-1	1	y	2.0739
143.74469999999997	0.2	zsr	17	verb	phrase	1	2	nomatch	nouveau	-1	1	y	2.0739
143.94459999999998	0.0	+	17	verb	phrase	1	3	nomatch	nouveau	-1	1	y	2.0739
144.34480000000002	0.2	dvjc	17	verb	phrase	1	4	nomatch	nouveau	-1	1	y	2.0739
144.5616	0.0	+	17	verb	phrase	1	5	nomatch	nouveau	-1	1	y	2.0739
144.94439999999997	0.2	fhgp	17	verb	phrase	1	6	nomatch	nouveau	-1	1	y	2.0739
145.1442	0.0	+	17	verb	phrase	1	7	nomatch	nouveau	-1	1	y	2.0739
145.5609	0.2	pntz	17	verb	phrase	1	8	nomatch	nouveau	-1	1	y	2.0739
145.74380000000002	0.0	+	17	verb	phrase	1	9	nomatch	nouveau	-1	1	y	2.0739
146.1436	0.2	voyager	17	verb	phrase	1	10	nomatch	nouveau	-1	1	y	2.0739
146.3435	0.0	+	17	verb	phrase	1	11	nomatch	nouveau	-1	1	y	2.0739
146.74329999999998	0.0	+	17	verb	phrase	1	12	nomatch	nouveau	-1	1	y	2.0739
148.74239999999998	0.0	NOUVEAU	17	verb	phrase	1	13	nomatch	nouveau	-1	1	y	2.0739
150.8748	0.0	+	17	verb	phrase	1	14	nomatch	nouveau	-1	1	y	2.0739
150.8163	0.0	[response]	17	verb	phrase	1	15	nomatch	nouveau	-1	1	y	2.0739
151.1413	0.0	+	18	verb	phrase	2	1	nomatch	galoper	-1	1	y	0.92327
151.6911	0.2	nlzsv	18	verb	phrase	2	2	nomatch	galoper	-1	1	y	0.92327
151.89100000000002	0.0	+	18	verb	phrase	2	3	nomatch	galoper	-1	1	y	0.92327
152.2908	0.2	dxcb	18	verb	phrase	2	4	nomatch	galoper	-1	1	y	0.92327
152.4907	0.0	+	18	verb	phrase	2	5	nomatch	galoper	-1	1	y	0.92327
152.89049999999997	0.2	tk	18	verb	phrase	2	6	nomatch	galoper	-1	1	y	0.92327
153.09050000000002	0.0	+	18	verb	phrase	2	7	nomatch	galoper	-1	1	y	0.92327
153.4903	0.2	trop	18	verb	phrase	2	8	nomatch	galoper	-1	1	y	0.92327
153.6902	0.0	+	18	verb	phrase	2	9	nomatch	galoper	-1	1	y	0.92327
154.08999999999997	0.2	plonger	18	verb	phrase	2	10	nomatch	galoper	-1	1	y	0.92327
154.2899	0.0	+	18	verb	phrase	2	11	nomatch	galoper	-1	1	y	0.92327
154.68970000000002	0.0	+	18	verb	phrase	2	12	nomatch	galoper	-1	1	y	0.92327
156.68880000000001	0.0	GALOPER	18	verb	phrase	2	13	nomatch	galoper	-1	1	y	0.92327
157.6717	0.0	+	18	verb	phrase	2	14	nomatch	galoper	-1	1	y	0.92327
157.6121	0.0	[response]	18	verb	phrase	2	15	nomatch	galoper	-1	1	y	0.92327
167.08409999999998	0.0	+	19	noun	list	1	1	nomatch	loin	-1	1	y	0.7348900000000002
167.63389999999998	0.2	pzghcb	19	noun	list	1	2	nomatch	loin	-1	1	y	0.7348900000000002
167.8338	0.0	+	19	noun	list	1	3	nomatch	loin	-1	1	y	0.7348900000000002
168.23359999999997	0.2	bzsw	19	noun	list	1	4	nomatch	loin	-1	1	y	0.7348900000000002
168.4502	0.0	+	19	noun	list	1	5	nomatch	loin	-1	1	y	0.7348900000000002
168.84999999999997	0.2	smx	19	noun	list	1	6	nomatch	loin	-1	1	y	0.7348900000000002
169.04989999999998	0.0	+	19	noun	list	1	7	nomatch	loin	-1	1	y	0.7348900000000002
169.4497	0.2	ztcm	19	noun	list	1	8	nomatch	loin	-1	1	y	0.7348900000000002
169.64960000000002	0.0	+	19	noun	list	1	9	nomatch	loin	-1	1	y	0.7348900000000002
170.0494	0.2	panier	19	noun	list	1	10	nomatch	loin	-1	1	y	0.7348900000000002
170.2493	0.0	+	19	noun	list	1	11	nomatch	loin	-1	1	y	0.7348900000000002
170.6495	0.0	+	19	noun	list	1	12	nomatch	loin	-1	1	y	0.7348900000000002
172.6483	0.0	LOIN	19	noun	list	1	13	nomatch	loin	-1	1	y	0.7348900000000002
173.4479	0.0	+	19	noun	list	1	14	nomatch	loin	-1	1	y	0.7348900000000002
173.3831	0.0	[response]	19	noun	list	1	15	nomatch	loin	-1	1	y	0.7348900000000002
175.04719999999998	0.0	+	20	noun	phrase	2	1	nomatch	vers	-1	1	y	0.66727
175.5969	0.2	zclvtw	20	noun	phrase	2	2	nomatch	vers	-1	1	y	0.66727
175.79680000000002	0.0	+	20	noun	phrase	2	3	nomatch	vers	-1	1	y	0.66727
176.1966	0.2	hrjc	20	noun	phrase	2	4	nomatch	vers	-1	1	y	0.66727
176.3965	0.0	+	20	noun	phrase	2	5	nomatch	vers	-1	1	y	0.66727
176.79680000000002	0.2	rgnb	20	noun	phrase	2	6	nomatch	vers	-1	1	y	0.66727
176.9968	0.0	+	20	noun	phrase	2	7	nomatch	vers	-1	1	y	0.66727
177.3961	0.2	grenier	20	noun	phrase	2	8	nomatch	vers	-1	1	y	0.66727
177.596	0.0	+	20	noun	phrase	2	9	nomatch	vers	-1	1	y	0.66727
177.99579999999997	0.2	bleu	20	noun	phrase	2	10	nomatch	vers	-1	1	y	0.66727
178.1957	0.0	+	20	noun	phrase	2	11	nomatch	vers	-1	1	y	0.66727
178.5956	0.0	+	20	noun	phrase	2	12	nomatch	vers	-1	1	y	0.66727
180.5947	0.0	VERS	20	noun	phrase	2	13	nomatch	vers	-1	1	y	0.66727
181.32760000000002	0.0	+	20	noun	phrase	2	14	nomatch	vers	-1	1	y	0.66727
181.26189999999997	0.0	[response]	20	noun	phrase	2	15	nomatch	vers	-1	1	y	0.66727
182.99360000000001	0.0	+	21	verb	phrase	2	1	nomatch	leur	-1	1	y	1.7778
183.5433	0.2	cjngdls	21	verb	phrase	2	2	nomatch	leur	-1	1	y	1.7778
183.7432	0.0	+	21	verb	phrase	2	3	nomatch	leur	-1	1	y	1.7778
184.14299999999997	0.2	dvjc	21	verb	phrase	2	4	nomatch	leur	-1	1	y	1.7778
184.34300000000002	0.0	+	21	verb	phrase	2	5	nomatch	leur	-1	1	y	1.7778
184.7432	0.2	kqfr	21	verb	phrase	2	6	nomatch	leur	-1	1	y	1.7778
184.9427	0.0	+	21	verb	phrase	2	7	nomatch	leur	-1	1	y	1.7778
185.34300000000002	0.2	plus	21	verb	phrase	2	8	nomatch	leur	-1	1	y	1.7778
185.54289999999997	0.0	+	21	verb	phrase	2	9	nomatch	leur	-1	1	y	1.7778
185.9422	0.2	galoper	21	verb	phrase	2	10	nomatch	leur	-1	1	y	1.7778
186.14209999999997	0.0	+	21	verb	phrase	2	11	nomatch	leur	-1	1	y	1.7778
186.54199999999997	0.0	+	21	verb	phrase	2	12	nomatch	leur	-1	1	y	1.7778
188.541	0.0	LEUR	21	verb	phrase	2	13	nomatch	leur	-1	1	y	1.7778
190.37349999999998	0.0	+	21	verb	phrase	2	14	nomatch	leur	-1	1	y	1.7778
190.31889999999999	0.0	[response]	21	verb	phrase	2	15	nomatch	leur	-1	1	y	1.7778
190.94	0.0	+	22	noun	list	3	1	match	sablier	5	1	p	1.5849
191.48970000000003	0.2	dpw	22	noun	list	3	2	match	sablier	5	1	p	1.5849
191.68959999999998	0.0	+	22	noun	list	3	3	match	sablier	5	1	p	1.5849
192.0894	0.2	bzsw	22	noun	list	3	4	match	sablier	5	1	p	1.5849
192.2894	0.0	+	22	noun	list	3	5	match	sablier	5	1	p	1.5849
192.68920000000003	0.2	mon	22	noun	list	3	6	match	sablier	5	1	p	1.5849
192.88909999999998	0.0	+	22	noun	list	3	7	match	sablier	5	1	p	1.5849
193.2889	0.2	mieux	22	noun	list	3	8	match	sablier	5	1	p	1.5849
193.48880000000003	0.0	+	22	noun	list	3	9	match	sablier	5	1	p	1.5849
193.8893	0.2	sablier	22	noun	list	3	10	match	sablier	5	1	p	1.5849
194.08929999999998	0.0	+	22	noun	list	3	11	match	sablier	5	1	p	1.5849
194.4885	0.0	+	22	noun	list	3	12	match	sablier	5	1	p	1.5849
196.4875	0.0	SABLIER	22	noun	list	3	13	match	sablier	5	1	p	1.5849
198.13670000000002	0.0	+	22	noun	list	3	14	match	sablier	5	1	p	1.5849
198.07230000000004	0.0	[response]	22	noun	list	3	15	match	sablier	5	1	p	1.5849
214.8958	0.0	+	23	verb	list	1	1	nomatch	nager	-1	1	y	1.4362
215.4626	0.2	hdcszjn	23	verb	list	1	2	nomatch	nager	-1	1	y	1.4362
215.64600000000002	0.0	+	23	verb	list	1	3	nomatch	nager	-1	1	y	1.4362
216.046	0.2	dvjc	23	verb	list	1	4	nomatch	nager	-1	1	y	1.4362
216.2624	0.0	+	23	verb	list	1	5	nomatch	nager	-1	1	y	1.4362
216.64499999999998	0.2	rgnb	23	verb	list	1	6	nomatch	nager	-1	1	y	1.4362
216.8449	0.0	+	23	verb	list	1	7	nomatch	nager	-1	1	y	1.4362
217.24470000000002	0.2	shvbl	23	verb	list	1	8	nomatch	nager	-1	1	y	1.4362
217.44460000000004	0.0	+	23	verb	list	1	9	nomatch	nager	-1	1	y	1.4362
217.8444	0.2	danser	23	verb	list	1	10	nomatch	nager	-1	1	y	1.4362
218.04430000000002	0.0	+	23	verb	list	1	11	nomatch	nager	-1	1	y	1.4362
218.44420000000002	0.0	+	23	verb	list	1	12	nomatch	nager	-1	1	y	1.4362
220.44389999999999	0.0	NAGER	23	verb	list	1	13	nomatch	nager	-1	1	y	1.4362
221.94260000000003	0.0	+	23	verb	list	1	14	nomatch	nager	-1	1	y	1.4362
221.88010000000008	0.0	[response]	23	verb	list	1	15	nomatch	nager	-1	1	y	1.4362
222.8422	0.0	+	24	noun	phrase	2	1	match	casier	4	1	p	0.56749
223.39190000000002	0.2	bkpm	24	noun	phrase	2	2	match	casier	4	1	p	0.56749
223.59180000000003	0.0	+	24	noun	phrase	2	3	match	casier	4	1	p	0.56749
223.9916	0.2	tfbq	24	noun	phrase	2	4	match	casier	4	1	p	0.56749
224.1916	0.0	+	24	noun	phrase	2	5	match	casier	4	1	p	0.56749
224.59140000000002	0.2	pqk	24	noun	phrase	2	6	match	casier	4	1	p	0.56749
224.79130000000004	0.0	+	24	noun	phrase	2	7	match	casier	4	1	p	0.56749
225.1913	0.2	casier	24	noun	phrase	2	8	match	casier	4	1	p	0.56749
225.39100000000002	0.0	+	24	noun	phrase	2	9	match	casier	4	1	p	0.56749
225.79130000000004	0.2	blanc	24	noun	phrase	2	10	match	casier	4	1	p	0.56749
225.9907	0.0	+	24	noun	phrase	2	11	match	casier	4	1	p	0.56749
226.39050000000003	0.0	+	24	noun	phrase	2	12	match	casier	4	1	p	0.56749
228.3897	0.0	CASIER	24	noun	phrase	2	13	match	casier	4	1	p	0.56749
229.09000000000003	0.0	+	24	noun	phrase	2	14	match	casier	4	1	p	0.56749
228.9572	0.0	[response]	24	noun	phrase	2	15	match	casier	4	1	p	0.56749
230.78860000000003	0.0	+	25	noun	phrase	3	1	match	noir	5	1	p	0.81037
231.3383	0.2	xgkjfl	25	noun	phrase	3	2	match	noir	5	1	p	0.81037
231.5385	0.0	+	25	noun	phrase	3	3	match	noir	5	1	p	0.81037
231.938	0.2	gjml	25	noun	phrase	3	4	match	noir	5	1	p	0.81037
232.1381	0.0	+	25	noun	phrase	3	5	match	noir	5	1	p	0.81037
232.5381	0.2	leur	25	noun	phrase	3	6	match	noir	5	1	p	0.81037
232.7547	0.0	+	25	noun	phrase	3	7	match	noir	5	1	p	0.81037
233.1375	0.2	tablier	25	noun	phrase	3	8	match	noir	5	1	p	0.81037
233.3374	0.0	+	25	noun	phrase	3	9	match	noir	5	1	p	0.81037
233.73720000000003	0.2	noir	25	noun	phrase	3	10	match	noir	5	1	p	0.81037
233.9371	0.0	+	25	noun	phrase	3	11	match	noir	5	1	p	0.81037
234.337	0.0	+	25	noun	phrase	3	12	match	noir	5	1	p	0.81037
236.33640000000003	0.0	NOIR	25	noun	phrase	3	13	match	noir	5	1	p	0.81037
237.20230000000004	0.0	+	25	noun	phrase	3	14	match	noir	5	1	p	0.81037
237.14680000000004	0.0	[response]	25	noun	phrase	3	15	match	noir	5	1	p	0.81037
238.735	0.0	+	26	verb	list	4	1	match	son	3	1	p	0.87688
239.2847	0.2	xdv	26	verb	list	4	2	match	son	3	1	p	0.87688
239.4846	0.0	+	26	verb	list	4	3	match	son	3	1	p	0.87688
239.88440000000003	0.2	jean	26	verb	list	4	4	match	son	3	1	p	0.87688
240.0845	0.0	+	26	verb	list	4	5	match	son	3	1	p	0.87688
240.48430000000002	0.2	son	26	verb	list	4	6	match	son	3	1	p	0.87688
240.68470000000002	0.0	+	26	verb	list	4	7	match	son	3	1	p	0.87688
241.08410000000003	0.2	jongler	26	verb	list	4	8	match	son	3	1	p	0.87688
241.28379999999999	0.0	+	26	verb	list	4	9	match	son	3	1	p	0.87688
241.6836	0.2	rouge	26	verb	list	4	10	match	son	3	1	p	0.87688
241.8836	0.0	+	26	verb	list	4	11	match	son	3	1	p	0.87688
242.3	0.0	+	26	verb	list	4	12	match	son	3	1	p	0.87688
244.2998	0.0	SON	26	verb	list	4	13	match	son	3	1	p	0.87688
245.23200000000003	0.0	+	26	verb	list	4	14	match	son	3	1	p	0.87688
245.17669999999998	0.0	[response]	26	verb	list	4	15	match	son	3	1	p	0.87688
246.69800000000004	0.0	+	27	noun	list	1	1	nomatch	voilier	-1	1	y	0.7744
247.24779999999998	0.2	mfhcstk	27	noun	list	1	2	nomatch	voilier	-1	1	y	0.7744
247.4477	0.0	+	27	noun	list	1	3	nomatch	voilier	-1	1	y	0.7744
247.84750000000003	0.2	dzq	27	noun	list	1	4	nomatch	voilier	-1	1	y	0.7744
248.04739999999998	0.0	+	27	noun	list	1	5	nomatch	voilier	-1	1	y	0.7744
248.4477	0.2	tk	27	noun	list	1	6	nomatch	voilier	-1	1	y	0.7744
248.64750000000004	0.0	+	27	noun	list	1	7	nomatch	voilier	-1	1	y	0.7744
249.0469	0.2	jbcx	27	noun	list	1	8	nomatch	voilier	-1	1	y	0.7744
249.2475	0.0	+	27	noun	list	1	9	nomatch	voilier	-1	1	y	0.7744
249.64679999999998	0.2	rocher	27	noun	list	1	10	nomatch	voilier	-1	1	y	0.7744
249.84660000000002	0.0	+	27	noun	list	1	11	nomatch	voilier	-1	1	y	0.7744
250.2464	0.0	+	27	noun	list	1	12	nomatch	voilier	-1	1	y	0.7744
252.2455	0.0	VOILIER	27	noun	list	1	13	nomatch	voilier	-1	1	y	0.7744
253.07850000000002	0.0	+	27	noun	list	1	14	nomatch	voilier	-1	1	y	0.7744
253.0199	0.0	[response]	27	noun	list	1	15	nomatch	voilier	-1	1	y	0.7744
262.6582	0.0	+	28	noun	phrase	4	1	match	dans	2	1	p	0.79135
263.1913	0.2	kzc	28	noun	phrase	4	2	match	dans	2	1	p	0.79135
263.3911	0.0	+	28	noun	phrase	4	3	match	dans	2	1	p	0.79135
263.7903	0.2	dans	28	noun	phrase	4	4	match	dans	2	1	p	0.79135
263.9902	0.0	+	28	noun	phrase	4	5	match	dans	2	1	p	0.79135
264.39	0.2	son	28	noun	phrase	4	6	match	dans	2	1	p	0.79135
264.5899	0.0	+	28	noun	phrase	4	7	match	dans	2	1	p	0.79135
264.9897	0.2	petit	28	noun	phrase	4	8	match	dans	2	1	p	0.79135
265.1896	0.0	+	28	noun	phrase	4	9	match	dans	2	1	p	0.79135
265.5895	0.2	clavier	28	noun	phrase	4	10	match	dans	2	1	p	0.79135
265.7894	0.0	+	28	noun	phrase	4	11	match	dans	2	1	p	0.79135
266.1892	0.0	+	28	noun	phrase	4	12	match	dans	2	1	p	0.79135
268.20550000000003	0.0	DANS	28	noun	phrase	4	13	match	dans	2	1	p	0.79135
269.0546	0.0	+	28	noun	phrase	4	14	match	dans	2	1	p	0.79135
268.9969	0.0	[response]	28	noun	phrase	4	15	match	dans	2	1	p	0.79135
270.5872	0.0	+	29	verb	list	4	1	nomatch	va	-1	1	y	1.201
271.1369	0.2	dhqn	29	verb	list	4	2	nomatch	va	-1	1	y	1.201
271.3369	0.0	+	29	verb	list	4	3	nomatch	va	-1	1	y	1.201
271.7367	0.2	jade	29	verb	list	4	4	nomatch	va	-1	1	y	1.201
271.9366	0.0	+	29	verb	list	4	5	nomatch	va	-1	1	y	1.201
272.3368	0.2	leur	29	verb	list	4	6	nomatch	va	-1	1	y	1.201
272.55330000000004	0.0	+	29	verb	list	4	7	nomatch	va	-1	1	y	1.201
272.9535	0.2	danser	29	verb	list	4	8	nomatch	va	-1	1	y	1.201
273.1367	0.0	+	29	verb	list	4	9	nomatch	va	-1	1	y	1.201
273.5529	0.2	noir	29	verb	list	4	10	nomatch	va	-1	1	y	1.201
273.7358	0.0	+	29	verb	list	4	11	nomatch	va	-1	1	y	1.201
274.1356	0.0	+	29	verb	list	4	12	nomatch	va	-1	1	y	1.201
276.1347	0.0	VA	29	verb	list	4	13	nomatch	va	-1	1	y	1.201
277.45140000000004	0.0	+	29	verb	list	4	14	nomatch	va	-1	1	y	1.201
277.3356	0.0	[response]	29	verb	list	4	15	nomatch	va	-1	1	y	1.201
286.5469	0.0	+	30	noun	phrase	1	1	nomatch	vieux	-1	1	y	0.71296
287.0966	0.2	dcn	30	noun	phrase	1	2	nomatch	vieux	-1	1	y	0.71296
287.29630000000003	0.0	+	30	noun	phrase	1	3	nomatch	vieux	-1	1	y	0.71296
287.6965	0.2	gbpz	30	noun	phrase	1	4	nomatch	vieux	-1	1	y	0.71296
287.8961	0.0	+	30	noun	phrase	1	5	nomatch	vieux	-1	1	y	0.71296
288.3128	0.2	smx	30	noun	phrase	1	6	nomatch	vieux	-1	1	y	0.71296
288.4957	0.0	+	30	noun	phrase	1	7	nomatch	vieux	-1	1	y	0.71296
288.8956	0.2	zndgvcp	30	noun	phrase	1	8	nomatch	vieux	-1	1	y	0.71296
289.0955	0.0	+	30	noun	phrase	1	9	nomatch	vieux	-1	1	y	0.71296
289.4953	0.2	petit	30	noun	phrase	1	10	nomatch	vieux	-1	1	y	0.71296
289.6952	0.0	+	30	noun	phrase	1	11	nomatch	vieux	-1	1	y	0.71296
290.095	0.0	+	30	noun	phrase	1	12	nomatch	vieux	-1	1	y	0.71296
292.0941	0.0	VIEUX	30	noun	phrase	1	13	nomatch	vieux	-1	1	y	0.71296
292.8604	0.0	+	30	noun	phrase	1	14	nomatch	vieux	-1	1	y	0.71296
292.8071	0.0	[response]	30	noun	phrase	1	15	nomatch	vieux	-1	1	y	0.71296
294.493	0.0	+	31	noun	list	2	1	match	ainsi	5	1	p	0.83907
295.0428	0.2	nmgxzwt	31	noun	list	2	2	match	ainsi	5	1	p	0.83907
295.2427	0.0	+	31	noun	list	2	3	match	ainsi	5	1	p	0.83907
295.6425	0.2	mrlw	31	noun	list	2	4	match	ainsi	5	1	p	0.83907
295.8424	0.0	+	31	noun	list	2	5	match	ainsi	5	1	p	0.83907
296.2422	0.2	tk	31	noun	list	2	6	match	ainsi	5	1	p	0.83907
296.4421	0.0	+	31	noun	list	2	7	match	ainsi	5	1	p	0.83907
296.842	0.2	sablier	31	noun	list	2	8	match	ainsi	5	1	p	0.83907
297.0424	0.0	+	31	noun	list	2	9	match	ainsi	5	1	p	0.83907
297.44190000000003	0.2	ainsi	31	noun	list	2	10	match	ainsi	5	1	p	0.83907
297.6416	0.0	+	31	noun	list	2	11	match	ainsi	5	1	p	0.83907
298.0414	0.0	+	31	noun	list	2	12	match	ainsi	5	1	p	0.83907
300.0405	0.0	AINSI	31	noun	list	2	13	match	ainsi	5	1	p	0.83907
300.94010000000003	0.0	+	31	noun	list	2	14	match	ainsi	5	1	p	0.83907
300.8796	0.0	[response]	31	noun	list	2	15	match	ainsi	5	1	p	0.83907
310.43580000000003	0.0	+	32	verb	phrase	3	1	match	danser	5	0	y	1.4766
310.9855	0.2	cdnjrtw	32	verb	phrase	3	2	match	danser	5	0	y	1.4766
311.1855	0.0	+	32	verb	phrase	3	3	match	danser	5	0	y	1.4766
311.5853	0.2	bzsw	32	verb	phrase	3	4	match	danser	5	0	y	1.4766
311.78520000000003	0.0	+	32	verb	phrase	3	5	match	danser	5	0	y	1.4766
312.185	0.2	doit	32	verb	phrase	3	6	match	danser	5	0	y	1.4766
312.3854	0.0	+	32	verb	phrase	3	7	match	danser	5	0	y	1.4766
312.8016	0.2	mieux	32	verb	phrase	3	8	match	danser	5	0	y	1.4766
313.0017	0.0	+	32	verb	phrase	3	9	match	danser	5	0	y	1.4766
313.3849	0.2	danser	32	verb	phrase	3	10	match	danser	5	0	y	1.4766
313.5847	0.0	+	32	verb	phrase	3	11	match	danser	5	0	y	1.4766
313.9842	0.0	+	32	verb	phrase	3	12	match	danser	5	0	y	1.4766
315.9999	0.0	DANSER	32	verb	phrase	3	13	match	danser	5	0	y	1.4766
317.5659	0.0	+	32	verb	phrase	3	14	match	danser	5	0	y	1.4766
317.4766	0.0	[response]	32	verb	phrase	3	15	match	danser	5	0	y	1.4766
318.3989	0.0	+	33	noun	phrase	3	1	match	rocher	5	1	p	0.74743
318.9486	0.2	mkdjzrp	33	noun	phrase	3	2	match	rocher	5	1	p	0.74743
319.1485	0.0	+	33	noun	phrase	3	3	match	rocher	5	1	p	0.74743
319.5483	0.2	dzq	33	noun	phrase	3	4	match	rocher	5	1	p	0.74743
319.7482	0.0	+	33	noun	phrase	3	5	match	rocher	5	1	p	0.74743
320.1484	0.2	leur	33	noun	phrase	3	6	match	rocher	5	1	p	0.74743
320.36490000000003	0.0	+	33	noun	phrase	3	7	match	rocher	5	1	p	0.74743
320.74850000000004	0.2	nouveau	33	noun	phrase	3	8	match	rocher	5	1	p	0.74743
320.9485	0.0	+	33	noun	phrase	3	9	match	rocher	5	1	p	0.74743
321.3647	0.2	rocher	33	noun	phrase	3	10	match	rocher	5	1	p	0.74743
321.5474	0.0	+	33	noun	phrase	3	11	match	rocher	5	1	p	0.74743
321.9473	0.0	+	33	noun	phrase	3	12	match	rocher	5	1	p	0.74743
323.9635	0.0	ROCHER	33	noun	phrase	3	13	match	rocher	5	1	p	0.74743
324.7626	0.0	+	33	noun	phrase	3	14	match	rocher	5	1	p	0.74743
324.711	0.0	[response]	33	noun	phrase	3	15	match	rocher	5	1	p	0.74743
334.3416	0.0	+	34	noun	list	1	1	match	trop	5	1	p	1.3152
334.89140000000003	0.2	cvqpjrl	34	noun	list	1	2	match	trop	5	1	p	1.3152
335.0913	0.0	+	34	noun	list	1	3	match	trop	5	1	p	1.3152
335.4911	0.2	glv	34	noun	list	1	4	match	trop	5	1	p	1.3152
335.6911	0.0	+	34	noun	list	1	5	match	trop	5	1	p	1.3152
336.0915	0.2	pqk	34	noun	list	1	6	match	trop	5	1	p	1.3152
336.2912	0.0	+	34	noun	list	1	7	match	trop	5	1	p	1.3152
336.6913	0.2	ftdsmc	34	noun	list	1	8	match	trop	5	1	p	1.3152
336.8907	0.0	+	34	noun	list	1	9	match	trop	5	1	p	1.3152
337.2903	0.2	trop	34	noun	list	1	10	match	trop	5	1	p	1.3152
337.4902	0.0	+	34	noun	list	1	11	match	trop	5	1	p	1.3152
337.89	0.0	+	34	noun	list	1	12	match	trop	5	1	p	1.3152
339.9063	0.0	TROP	34	noun	list	1	13	match	trop	5	1	p	1.3152
341.2885	0.0	+	34	noun	list	1	14	match	trop	5	1	p	1.3152
341.22150000000005	0.0	[response]	34	noun	list	1	15	match	trop	5	1	p	1.3152
342.288	0.0	+	35	noun	list	1	1	nomatch	clavier	-1	1	y	1.3155000000000001
342.8378	0.2	gvrnjd	35	noun	list	1	2	nomatch	clavier	-1	1	y	1.3155000000000001
343.03770000000003	0.0	+	35	noun	list	1	3	nomatch	clavier	-1	1	y	1.3155000000000001
343.4375	0.2	zbkp	35	noun	list	1	4	nomatch	clavier	-1	1	y	1.3155000000000001
343.6374	0.0	+	35	noun	list	1	5	nomatch	clavier	-1	1	y	1.3155000000000001
344.0375	0.2	rgnb	35	noun	list	1	6	nomatch	clavier	-1	1	y	1.3155000000000001
344.2378	0.0	+	35	noun	list	1	7	nomatch	clavier	-1	1	y	1.3155000000000001
344.6376	0.2	ztcm	35	noun	list	1	8	nomatch	clavier	-1	1	y	1.3155000000000001
344.83750000000003	0.0	+	35	noun	list	1	9	nomatch	clavier	-1	1	y	1.3155000000000001
345.2368	0.2	sablier	35	noun	list	1	10	nomatch	clavier	-1	1	y	1.3155000000000001
345.4366	0.0	+	35	noun	list	1	11	nomatch	clavier	-1	1	y	1.3155000000000001
345.8364	0.0	+	35	noun	list	1	12	nomatch	clavier	-1	1	y	1.3155000000000001
347.8358	0.0	CLAVIER	35	noun	list	1	13	nomatch	clavier	-1	1	y	1.3155000000000001
349.2182	0.0	+	35	noun	list	1	14	nomatch	clavier	-1	1	y	1.3155000000000001
349.1513	0.0	[response]	35	noun	list	1	15	nomatch	clavier	-1	1	y	1.3155000000000001
350.2344	0.0	+	36	noun	list	2	1	nomatch	mieux	-1	1	y	1.0796
350.7842	0.2	ndgfmt	36	noun	list	2	2	nomatch	mieux	-1	1	y	1.0796
350.9841	0.0	+	36	noun	list	2	3	nomatch	mieux	-1	1	y	1.0796
351.4011	0.2	dxcb	36	noun	list	2	4	nomatch	mieux	-1	1	y	1.0796
351.58410000000003	0.0	+	36	noun	list	2	5	nomatch	mieux	-1	1	y	1.0796
351.9843	0.2	pqk	36	noun	list	2	6	nomatch	mieux	-1	1	y	1.0796
352.2009	0.0	+	36	noun	list	2	7	nomatch	mieux	-1	1	y	1.0796
352.6	0.2	plus	36	noun	list	2	8	nomatch	mieux	-1	1	y	1.0796
352.79990000000004	0.0	+	36	noun	list	2	9	nomatch	mieux	-1	1	y	1.0796
353.1998	0.2	casier	36	noun	list	2	10	nomatch	mieux	-1	1	y	1.0796
353.3997	0.0	+	36	noun	list	2	11	nomatch	mieux	-1	1	y	1.0796
353.7995	0.0	+	36	noun	list	2	12	nomatch	mieux	-1	1	y	1.0796
355.7985	0.0	MIEUX	36	noun	list	2	13	nomatch	mieux	-1	1	y	1.0796
356.9314	0.0	+	36	noun	list	2	14	nomatch	mieux	-1	1	y	1.0796
356.8782	0.0	[response]	36	noun	list	2	15	nomatch	mieux	-1	1	y	1.0796
358.1975	0.0	+	37	verb	list	1	1	nomatch	luc	-1	1	y	0.78651
358.7472	0.2	pkgqt	37	verb	list	1	2	nomatch	luc	-1	1	y	0.78651
358.94710000000003	0.0	+	37	verb	list	1	3	nomatch	luc	-1	1	y	0.78651
359.347	0.2	mkxz	37	verb	list	1	4	nomatch	luc	-1	1	y	0.78651
359.5469	0.0	+	37	verb	list	1	5	nomatch	luc	-1	1	y	0.78651
359.9467	0.2	rgnb	37	verb	list	1	6	nomatch	luc	-1	1	y	0.78651
360.14660000000003	0.0	+	37	verb	list	1	7	nomatch	luc	-1	1	y	0.78651
360.5464	0.2	psjz	37	verb	list	1	8	nomatch	luc	-1	1	y	0.78651
360.7466	0.0	+	37	verb	list	1	9	nomatch	luc	-1	1	y	0.78651
361.1464	0.2	nager	37	verb	list	1	10	nomatch	luc	-1	1	y	0.78651
361.3466	0.0	+	37	verb	list	1	11	nomatch	luc	-1	1	y	0.78651
361.7459	0.0	+	37	verb	list	1	12	nomatch	luc	-1	1	y	0.78651
363.745	0.0	LUC	37	verb	list	1	13	nomatch	luc	-1	1	y	0.78651
364.5946	0.0	+	37	verb	list	1	14	nomatch	luc	-1	1	y	0.78651
364.53150000000005	0.0	[response]	37	verb	list	1	15	nomatch	luc	-1	1	y	0.78651
366.14390000000003	0.0	+	38	noun	phrase	1	1	match	grand	5	1	p	0.93649
366.6936	0.2	hxj	38	noun	phrase	1	2	match	grand	5	1	p	0.93649
366.8935	0.0	+	38	noun	phrase	1	3	match	grand	5	1	p	0.93649
367.2934	0.2	tfbq	38	noun	phrase	1	4	match	grand	5	1	p	0.93649
367.49330000000003	0.0	+	38	noun	phrase	1	5	match	grand	5	1	p	0.93649
367.89320000000004	0.2	pqk	38	noun	phrase	1	6	match	grand	5	1	p	0.93649
368.0936	0.0	+	38	noun	phrase	1	7	match	grand	5	1	p	0.93649
368.51	0.2	xstwlfq	38	noun	phrase	1	8	match	grand	5	1	p	0.93649
368.6927	0.0	+	38	noun	phrase	1	9	match	grand	5	1	p	0.93649
369.09250000000003	0.2	grand	38	noun	phrase	1	10	match	grand	5	1	p	0.93649
369.3098	0.0	+	38	noun	phrase	1	11	match	grand	5	1	p	0.93649
369.7092	0.0	+	38	noun	phrase	1	12	match	grand	5	1	p	0.93649
371.6914	0.0	GRAND	38	noun	phrase	1	13	match	grand	5	1	p	0.93649
372.6909	0.0	+	38	noun	phrase	1	14	match	grand	5	1	p	0.93649
372.6279	0.0	[response]	38	noun	phrase	1	15	match	grand	5	1	p	0.93649
374.0903	0.0	+	39	noun	list	3	1	match	mon	3	1	p	1.6008
374.64	0.2	tpksq	39	noun	list	3	2	match	mon	3	1	p	1.6008
374.8399	0.0	+	39	noun	list	3	3	match	mon	3	1	p	1.6008
375.2397	0.2	glv	39	noun	list	3	4	match	mon	3	1	p	1.6008
375.4397	0.0	+	39	noun	list	3	5	match	mon	3	1	p	1.6008
375.8395	0.2	mon	39	noun	list	3	6	match	mon	3	1	p	1.6008
376.0394	0.0	+	39	noun	list	3	7	match	mon	3	1	p	1.6008
376.4392	0.2	beaucoup	39	noun	list	3	8	match	mon	3	1	p	1.6008
376.6391	0.0	+	39	noun	list	3	9	match	mon	3	1	p	1.6008
377.0391	0.2	grenier	39	noun	list	3	10	match	mon	3	1	p	1.6008
377.2558	0.0	+	39	noun	list	3	11	match	mon	3	1	p	1.6008
377.6391	0.0	+	39	noun	list	3	12	match	mon	3	1	p	1.6008
379.6378	0.0	MON	39	noun	list	3	13	match	mon	3	1	p	1.6008
381.3037	0.0	+	39	noun	list	3	14	match	mon	3	1	p	1.6008
381.2386	0.0	[response]	39	noun	list	3	15	match	mon	3	1	p	1.6008
382.0367	0.0	+	40	noun	phrase	4	1	nomatch	sans	-1	1	y	1.2827000000000002
382.5864	0.2	ntdrl	40	noun	phrase	4	2	nomatch	sans	-1	1	y	1.2827000000000002
382.7863	0.0	+	40	noun	phrase	4	3	nomatch	sans	-1	1	y	1.2827000000000002
383.1861	0.2	vers	40	noun	phrase	4	4	nomatch	sans	-1	1	y	1.2827000000000002
383.3861	0.0	+	40	noun	phrase	4	5	nomatch	sans	-1	1	y	1.2827000000000002
383.7859	0.2	leur	40	noun	phrase	4	6	nomatch	sans	-1	1	y	1.2827000000000002
383.986	0.0	+	40	noun	phrase	4	7	nomatch	sans	-1	1	y	1.2827000000000002
384.3856	0.2	beau	40	noun	phrase	4	8	nomatch	sans	-1	1	y	1.2827000000000002
384.5855	0.0	+	40	noun	phrase	4	9	nomatch	sans	-1	1	y	1.2827000000000002
384.9854	0.2	sablier	40	noun	phrase	4	10	nomatch	sans	-1	1	y	1.2827000000000002
385.1859	0.0	+	40	noun	phrase	4	11	nomatch	sans	-1	1	y	1.2827000000000002
385.5851	0.0	+	40	noun	phrase	4	12	nomatch	sans	-1	1	y	1.2827000000000002
387.5845	0.0	SANS	40	noun	phrase	4	13	nomatch	sans	-1	1	y	1.2827000000000002
388.9335	0.0	+	40	noun	phrase	4	14	nomatch	sans	-1	1	y	1.2827000000000002
388.8672	0.0	[response]	40	noun	phrase	4	15	nomatch	sans	-1	1	y	1.2827000000000002
389.9997	0.0	+	41	noun	phrase	2	1	match	bleu	5	0	TIMEOUT	-1.0
390.5495	0.2	ngklfdw	41	noun	phrase	2	2	match	bleu	5	0	TIMEOUT	-1.0
390.7494	0.0	+	41	noun	phrase	2	3	match	bleu	5	0	TIMEOUT	-1.0
391.1492	0.2	mrlw	41	noun	phrase	2	4	match	bleu	5	0	TIMEOUT	-1.0
391.3491	0.0	+	41	noun	phrase	2	5	match	bleu	5	0	TIMEOUT	-1.0
391.7489	0.2	rgnb	41	noun	phrase	2	6	match	bleu	5	0	TIMEOUT	-1.0
391.9493	0.0	+	41	noun	phrase	2	7	match	bleu	5	0	TIMEOUT	-1.0
392.3489	0.2	panier	41	noun	phrase	2	8	match	bleu	5	0	TIMEOUT	-1.0
392.5486	0.0	+	41	noun	phrase	2	9	match	bleu	5	0	TIMEOUT	-1.0
392.9484	0.2	bleu	41	noun	phrase	2	10	match	bleu	5	0	TIMEOUT	-1.0
393.1483	0.0	+	41	noun	phrase	2	11	match	bleu	5	0	TIMEOUT	-1.0
393.54810000000003	0.0	+	41	noun	phrase	2	12	match	bleu	5	0	TIMEOUT	-1.0
395.54720000000003	0.0	BLEU	41	noun	phrase	2	13	match	bleu	5	0	TIMEOUT	-1.0
397.9461	0.0	+	42	verb	list	4	1	match	doit	3	1	p	1.4661
398.5458	0.2	xtnmwf	42	verb	list	4	2	match	doit	3	1	p	1.4661
398.74580000000003	0.0	+	42	verb	list	4	3	match	doit	3	1	p	1.4661
399.1456	0.2	vers	42	verb	list	4	4	match	doit	3	1	p	1.4661
399.3455	0.0	+	42	verb	list	4	5	match	doit	3	1	p	1.4661
399.7453	0.2	doit	42	verb	list	4	6	match	doit	3	1	p	1.4661
399.9452	0.0	+	42	verb	list	4	7	match	doit	3	1	p	1.4661
400.345	0.2	vieux	42	verb	list	4	8	match	doit	3	1	p	1.4661
400.5449	0.0	+	42	verb	list	4	9	match	doit	3	1	p	1.4661
400.9448	0.2	voyager	42	verb	list	4	10	match	doit	3	1	p	1.4661
401.1447	0.0	+	42	verb	list	4	11	match	doit	3	1	p	1.4661
401.5445	0.0	+	42	verb	list	4	12	match	doit	3	1	p	1.4661
403.5436	0.0	DOIT	42	verb	list	4	13	match	doit	3	1	p	1.4661
405.07620000000003	0.0	+	42	verb	list	4	14	match	doit	3	1	p	1.4661
405.00970000000007	0.0	[response]	42	verb	list	4	15	match	doit	3	1	p	1.4661
413.9389	0.0	+	43	noun	list	3	1	nomatch	loin	-1	1	y	1.0926
414.4886	0.2	mznd	43	noun	list	3	2	nomatch	loin	-1	1	y	1.0926
414.68850000000003	0.0	+	43	noun	list	3	3	nomatch	loin	-1	1	y	1.0926
415.0888	0.2	dzq	43	noun	list	3	4	nomatch	loin	-1	1	y	1.0926
415.28860000000003	0.0	+	43	noun	list	3	5	nomatch	loin	-1	1	y	1.0926
415.70480000000003	0.2	peut	43	noun	list	3	6	nomatch	loin	-1	1	y	1.0926
415.8886	0.0	+	43	noun	list	3	7	nomatch	loin	-1	1	y	1.0926
416.2882	0.2	voilier	43	noun	list	3	8	nomatch	loin	-1	1	y	1.0926
416.4877	0.0	+	43	noun	list	3	9	nomatch	loin	-1	1	y	1.0926
416.8875	0.2	ainsi	43	noun	list	3	10	nomatch	loin	-1	1	y	1.0926
417.08750000000003	0.0	+	43	noun	list	3	11	nomatch	loin	-1	1	y	1.0926
417.4873	0.0	+	43	noun	list	3	12	nomatch	loin	-1	1	y	1.0926
419.487	0.0	LOIN	43	noun	list	3	13	nomatch	loin	-1	1	y	1.0926
420.6358	0.0	+	43	noun	list	3	14	nomatch	loin	-1	1	y	1.0926
420.5796000000001	0.0	[response]	43	noun	list	3	15	nomatch	loin	-1	1	y	1.0926
421.88530000000003	0.0	+	44	verb	phrase	3	1	match	trop	4	0	TIMEOUT	-1.0
422.4357	0.2	qcm	44	verb	phrase	3	2	match	trop	4	0	TIMEOUT	-1.0
422.6521	0.0	+	44	verb	phrase	3	3	match	trop	4	0	TIMEOUT	-1.0
423.035	0.2	vhfx	44	verb	phrase	3	4	match	trop	4	0	TIMEOUT	-1.0
423.23470000000003	0.0	+	44	verb	phrase	3	5	match	trop	4	0	TIMEOUT	-1.0
423.6345	0.2	doit	44	verb	phrase	3	6	match	trop	4	0	TIMEOUT	-1.0
423.8344	0.0	+	44	verb	phrase	3	7	match	trop	4	0	TIMEOUT	-1.0
424.2343	0.2	trop	44	verb	phrase	3	8	match	trop	4	0	TIMEOUT	-1.0
424.4341	0.0	+	44	verb	phrase	3	9	match	trop	4	0	TIMEOUT	-1.0
424.8339	0.2	patiner	44	verb	phrase	3	10	match	trop	4	0	TIMEOUT	-1.0
425.0338	0.0	+	44	verb	phrase	3	11	match	trop	4	0	TIMEOUT	-1.0
425.4337	0.0	+	44	verb	phrase	3	12	match	trop	4	0	TIMEOUT	-1.0
427.4494	0.0	TROP	44	verb	phrase	3	13	match	trop	4	0	TIMEOUT	-1.0
429.8483	0.0	+	45	noun	list	1	1	match	tard	5	0	TIMEOUT	-1.0
430.4481	0.2	rgmxk	45	noun	list	1	2	match	tard	5	0	TIMEOUT	-1.0
430.648	0.0	+	45	noun	list	1	3	match	tard	5	0	TIMEOUT	-1.0
431.0478	0.2	mrlw	45	noun	list	1	4	match	tard	5	0	TIMEOUT	-1.0
431.2477	0.0	+	45	noun	list	1	5	match	tard	5	0	TIMEOUT	-1.0
431.64750000000004	0.2	tk	45	noun	list	1	6	match	tard	5	0	TIMEOUT	-1.0
431.8474	0.0	+	45	noun	list	1	7	match	tard	5	0	TIMEOUT	-1.0
432.2472	0.2	fpvtzcb	45	noun	list	1	8	match	tard	5	0	TIMEOUT	-1.0
432.4472	0.0	+	45	noun	list	1	9	match	tard	5	0	TIMEOUT	-1.0
432.847	0.2	tard	45	noun	list	1	10	match	tard	5	0	TIMEOUT	-1.0
433.0469	0.0	+	45	noun	list	1	11	match	tard	5	0	TIMEOUT	-1.0
433.4467	0.0	+	45	noun	list	1	12	match	tard	5	0	TIMEOUT	-1.0
435.4458	0.0	TARD	45	noun	list	1	13	match	tard	5	0	TIMEOUT	-1.0
437.8447	0.0	+	46	verb	list	4	1	match	pour	2	1	p	0.71401
438.44440000000003	0.2	hdnlmfr	46	verb	list	4	2	match	pour	2	1	p	0.71401
438.6444	0.0	+	46	verb	list	4	3	match	pour	2	1	p	0.71401
439.0442	0.2	pour	46	verb	list	4	4	match	pour	2	1	p	0.71401
439.2441	0.0	+	46	verb	list	4	5	match	pour	2	1	p	0.71401
439.64390000000003	0.2	peut	46	verb	list	4	6	match	pour	2	1	p	0.71401
439.8438	0.0	+	46	verb	list	4	7	match	pour	2	1	p	0.71401
440.2436	0.2	grand	46	verb	list	4	8	match	pour	2	1	p	0.71401
440.44350000000003	0.0	+	46	verb	list	4	9	match	pour	2	1	p	0.71401
440.8433	0.2	plonger	46	verb	list	4	10	match	pour	2	1	p	0.71401
441.0433	0.0	+	46	verb	list	4	11	match	pour	2	1	p	0.71401
441.4431	0.0	+	46	verb	list	4	12	match	pour	2	1	p	0.71401
443.4422	0.0	POUR	46	verb	list	4	13	match	pour	2	1	p	0.71401
444.2085	0.0	+	46	verb	list	4	14	match	pour	2	1	p	0.71401
444.15620000000007	0.0	[response]	46	verb	list	4	15	match	pour	2	1	p	0.71401
445.8411	0.0	+	47	noun	phrase	4	1	nomatch	panier	-1	0	TIMEOUT	-1.0
446.3908	0.2	swt	47	noun	phrase	4	2	nomatch	panier	-1	0	TIMEOUT	-1.0
446.5907	0.0	+	47	noun	phrase	4	3	nomatch	panier	-1	0	TIMEOUT	-1.0
446.9906	0.2	sur	47	noun	phrase	4	4	nomatch	panier	-1	0	TIMEOUT	-1.0
447.19050000000004	0.0	+	47	noun	phrase	4	5	nomatch	panier	-1	0	TIMEOUT	-1.0
447.59090000000003	0.2	mon	47	noun	phrase	4	6	nomatch	panier	-1	0	TIMEOUT	-1.0
447.7907	0.0	+	47	noun	phrase	4	7	nomatch	panier	-1	0	TIMEOUT	-1.0
448.1902	0.2	casier	47	noun	phrase	4	8	nomatch	panier	-1	0	TIMEOUT	-1.0
448.3899	0.0	+	47	noun	phrase	4	9	nomatch	panier	-1	0	TIMEOUT	-1.0
448.78970000000004	0.2	bleu	47	noun	phrase	4	10	nomatch	panier	-1	0	TIMEOUT	-1.0
448.98969999999997	0.0	+	47	noun	phrase	4	11	nomatch	panier	-1	0	TIMEOUT	-1.0
449.3895	0.0	+	47	noun	phrase	4	12	nomatch	panier	-1	0	TIMEOUT	-1.0
451.3886	0.0	PANIER	47	noun	phrase	4	13	nomatch	panier	-1	0	TIMEOUT	-1.0
453.7875	0.0	+	48	verb	phrase	4	1	match	va	3	1	p	7.5738
454.3872	0.2	wtzrbgh	48	verb	phrase	4	2	match	va	3	1	p	7.5738
454.58709999999996	0.0	+	48	verb	phrase	4	3	match	va	3	1	p	7.5738
454.9869	0.2	jade	48	verb	phrase	4	4	match	va	3	1	p	7.5738
455.18680000000006	0.0	+	48	verb	phrase	4	5	match	va	3	1	p	7.5738
455.58670000000006	0.2	va	48	verb	phrase	4	6	match	va	3	1	p	7.5738
455.7866	0.0	+	48	verb	phrase	4	7	match	va	3	1	p	7.5738
456.18640000000005	0.2	voyager	48	verb	phrase	4	8	match	va	3	1	p	7.5738
456.3863	0.0	+	48	verb	phrase	4	9	match	va	3	1	p	7.5738
456.78610000000003	0.2	ainsi	48	verb	phrase	4	10	match	va	3	1	p	7.5738
456.986	0.0	+	48	verb	phrase	4	11	match	va	3	1	p	7.5738
457.3859	0.0	+	48	verb	phrase	4	12	match	va	3	1	p	7.5738
459.3849	0.0	VA	48	verb	phrase	4	13	match	va	3	1	p	7.5738
467.01480000000004	0.0	+	48	verb	phrase	4	14	match	va	3	1	p	7.5738
466.9587	0.0	[response]	48	verb	phrase	4	15	match	va	3	1	p	7.5738
469.79690000000005	0.0	+	49	noun	list	2	1	match	trop	4	1	p	1.5373
470.34659999999997	0.2	rbthjl	49	noun	list	2	2	match	trop	4	1	p	1.5373
470.547	0.0	+	49	noun	list	2	3	match	trop	4	1	p	1.5373
470.96349999999995	0.2	bzsw	49	noun	list	2	4	match	trop	4	1	p	1.5373
471.14660000000003	0.0	+	49	noun	list	2	5	match	trop	4	1	p	1.5373
471.54679999999996	0.2	smx	49	noun	list	2	6	match	trop	4	1	p	1.5373
471.76329999999996	0.0	+	49	noun	list	2	7	match	trop	4	1	p	1.5373
472.1458	0.2	trop	49	noun	list	2	8	match	trop	4	1	p	1.5373
472.34569999999997	0.0	+	49	noun	list	2	9	match	trop	4	1	p	1.5373
472.7455	0.2	grenier	49	noun	list	2	10	match	trop	4	1	p	1.5373
472.94550000000004	0.0	+	49	noun	list	2	11	match	trop	4	1	p	1.5373
473.34529999999995	0.0	+	49	noun	list	2	12	match	trop	4	1	p	1.5373
475.34450000000004	0.0	TROP	49	noun	list	2	13	match	trop	4	1	p	1.5373
476.94360000000006	0.0	+	49	noun	list	2	14	match	trop	4	1	p	1.5373
476.8817	0.0	[response]	49	noun	list	2	15	match	trop	4	1	p	1.5373
477.7433	0.0	+	50	noun	phrase	1	1	nomatch	mon	-1	1	y	1.0906
478.293	0.2	wclkz	50	noun	phrase	1	2	nomatch	mon	-1	1	y	1.0906
478.49289999999996	0.0	+	50	noun	phrase	1	3	nomatch	mon	-1	1	y	1.0906
478.89279999999997	0.2	gjml	50	noun	phrase	1	4	nomatch	mon	-1	1	y	1.0906
479.09270000000004	0.0	+	50	noun	phrase	1	5	nomatch	mon	-1	1	y	1.0906
479.49250000000006	0.2	rgnb	50	noun	phrase	1	6	nomatch	mon	-1	1	y	1.0906
479.6924	0.0	+	50	noun	phrase	1	7	nomatch	mon	-1	1	y	1.0906
480.09220000000005	0.2	jctkwzl	50	noun	phrase	1	8	nomatch	mon	-1	1	y	1.0906
480.2921	0.0	+	50	noun	phrase	1	9	nomatch	mon	-1	1	y	1.0906
480.69230000000005	0.2	bleu	50	noun	phrase	1	10	nomatch	mon	-1	1	y	1.0906
480.8921	0.0	+	50	noun	phrase	1	11	nomatch	mon	-1	1	y	1.0906
481.29179999999997	0.0	+	50	noun	phrase	1	12	nomatch	mon	-1	1	y	1.0906
483.2908	0.0	MON	50	noun	phrase	1	13	nomatch	mon	-1	1	y	1.0906
484.4403	0.0	+	50	noun	phrase	1	14	nomatch	mon	-1	1	y	1.0906
484.3814	0.0	[response]	50	noun	phrase	1	15	nomatch	mon	-1	1	y	1.0906
485.6897	0.0	+	51	verb	phrase	3	1	nomatch	marc	-1	0	TIMEOUT	-1.0
486.23940000000005	0.2	nmd	51	verb	phrase	3	2	nomatch	marc	-1	0	TIMEOUT	-1.0
486.4393	0.0	+	51	verb	phrase	3	3	nomatch	marc	-1	0	TIMEOUT	-1.0
486.8397	0.2	vhfx	51	verb	phrase	3	4	nomatch	marc	-1	0	TIMEOUT	-1.0
487.0562	0.0	+	51	verb	phrase	3	5	nomatch	marc	-1	0	TIMEOUT	-1.0
487.4389	0.2	va	51	verb	phrase	3	6	nomatch	marc	-1	0	TIMEOUT	-1.0
487.63880000000006	0.0	+	51	verb	phrase	3	7	nomatch	marc	-1	0	TIMEOUT	-1.0
488.0386	0.2	danser	51	verb	phrase	3	8	nomatch	marc	-1	0	TIMEOUT	-1.0
488.23850000000004	0.0	+	51	verb	phrase	3	9	nomatch	marc	-1	0	TIMEOUT	-1.0
488.63829999999996	0.2	vite	51	verb	phrase	3	10	nomatch	marc	-1	0	TIMEOUT	-1.0
488.83820000000003	0.0	+	51	verb	phrase	3	11	nomatch	marc	-1	0	TIMEOUT	-1.0
489.23810000000003	0.0	+	51	verb	phrase	3	12	nomatch	marc	-1	0	TIMEOUT	-1.0
491.23720000000003	0.0	MARC	51	verb	phrase	3	13	nomatch	marc	-1	0	TIMEOUT	-1.0
493.63610000000006	0.0	+	52	noun	phrase	1	1	nomatch	grand	-1	1	y	1.8003
494.23580000000004	0.2	brsld	52	noun	phrase	1	2	nomatch	grand	-1	1	y	1.8003
494.4357	0.0	+	52	noun	phrase	1	3	nomatch	grand	-1	1	y	1.8003
494.8355	0.2	dsmq	52	noun	phrase	1	4	nomatch	grand	-1	1	y	1.8003
495.0354	0.0	+	52	noun	phrase	1	5	nomatch	grand	-1	1	y	1.8003
495.4353	0.2	rgnb	52	noun	phrase	1	6	nomatch	grand	-1	1	y	1.8003
495.63520000000005	0.0	+	52	noun	phrase	1	7	nomatch	grand	-1	1	y	1.8003
496.03499999999997	0.2	jctkwzl	52	noun	phrase	1	8	nomatch	grand	-1	1	y	1.8003
496.23490000000004	0.0	+	52	noun	phrase	1	9	nomatch	grand	-1	1	y	1.8003
496.63469999999995	0.2	nouveau	52	noun	phrase	1	10	nomatch	grand	-1	1	y	1.8003
496.8346	0.0	+	52	noun	phrase	1	11	nomatch	grand	-1	1	y	1.8003
497.23440000000005	0.0	+	52	noun	phrase	1	12	nomatch	grand	-1	1	y	1.8003
499.2342	0.0	GRAND	52	noun	phrase	1	13	nomatch	grand	-1	1	y	1.8003
501.09940000000006	0.0	+	52	noun	phrase	1	14	nomatch	grand	-1	1	y	1.8003
501.0345	0.0	[response]	52	noun	phrase	1	15	nomatch	grand	-1	1	y	1.8003
501.6491	0.0	+	53	noun	phrase	1	1	nomatch	tôt	-1	1	y	0.88805
502.1989	0.2	cvpdnrf	53	noun	phrase	1	2	nomatch	tôt	-1	1	y	0.88805
502.39880000000005	0.0	+	53	noun	phrase	1	3	nomatch	tôt	-1	1	y	0.88805
502.79859999999996	0.2	mrlw	53	noun	phrase	1	4	nomatch	tôt	-1	1	y	0.88805
502.99850000000004	0.0	+	53	noun	phrase	1	5	nomatch	tôt	-1	1	y	0.88805
503.39830000000006	0.2	pqk	53	noun	phrase	1	6	nomatch	tôt	-1	1	y	0.88805
503.5982	0.0	+	53	noun	phrase	1	7	nomatch	tôt	-1	1	y	0.88805
503.9981	0.2	nrtjf	53	noun	phrase	1	8	nomatch	tôt	-1	1	y	0.88805
504.198	0.0	+	53	noun	phrase	1	9	nomatch	tôt	-1	1	y	0.88805
504.5978	0.2	grenier	53	noun	phrase	1	10	nomatch	tôt	-1	1	y	0.88805
504.79769999999996	0.0	+	53	noun	phrase	1	11	nomatch	tôt	-1	1	y	0.88805
505.19809999999995	0.0	+	53	noun	phrase	1	12	nomatch	tôt	-1	1	y	0.88805
507.1966	0.0	TÔT	53	noun	phrase	1	13	nomatch	tôt	-1	1	y	0.88805
508.1462	0.0	+	53	noun	phrase	1	14	nomatch	tôt	-1	1	y	0.88805
508.0846	0.0	[response]	53	noun	phrase	1	15	nomatch	tôt	-1	1	y	0.88805
509.5955	0.0	+	54	verb	phrase	4	1	nomatch	sur	-1	0	TIMEOUT	-1.0
510.1453	0.2	xjlvmfn	54	verb	phrase	4	2	nomatch	sur	-1	0	TIMEOUT	-1.0
510.3452	0.0	+	54	verb	phrase	4	3	nomatch	sur	-1	0	TIMEOUT	-1.0
510.745	0.2	jade	54	verb	phrase	4	4	nomatch	sur	-1	0	TIMEOUT	-1.0
510.94489999999996	0.0	+	54	verb	phrase	4	5	nomatch	sur	-1	0	TIMEOUT	-1.0
511.3455	0.2	va	54	verb	phrase	4	6	nomatch	sur	-1	0	TIMEOUT	-1.0
511.5615	0.0	+	54	verb	phrase	4	7	nomatch	sur	-1	0	TIMEOUT	-1.0
511.94489999999996	0.2	moins	54	verb	phrase	4	8	nomatch	sur	-1	0	TIMEOUT	-1.0
512.1445	0.0	+	54	verb	phrase	4	9	nomatch	sur	-1	0	TIMEOUT	-1.0
512.5615	0.2	jongler	54	verb	phrase	4	10	nomatch	sur	-1	0	TIMEOUT	-1.0
512.7441	0.0	+	54	verb	phrase	4	11	nomatch	sur	-1	0	TIMEOUT	-1.0
513.1439	0.0	+	54	verb	phrase	4	12	nomatch	sur	-1	0	TIMEOUT	-1.0
515.143	0.0	SUR	54	verb	phrase	4	13	nomatch	sur	-1	0	TIMEOUT	-1.0
517.5422	0.0	+	55	verb	list	3	1	nomatch	vieux	-1	1	y	1.1679
518.1416	0.2	rtmk	55	verb	list	3	2	nomatch	vieux	-1	1	y	1.1679
518.3415	0.0	+	55	verb	list	3	3	nomatch	vieux	-1	1	y	1.1679
518.7414	0.2	tfbq	55	verb	list	3	4	nomatch	vieux	-1	1	y	1.1679
518.9413	0.0	+	55	verb	list	3	5	nomatch	vieux	-1	1	y	1.1679
519.3418	0.2	doit	55	verb	list	3	6	nomatch	vieux	-1	1	y	1.1679
519.5415	0.0	+	55	verb	list	3	7	nomatch	vieux	-1	1	y	1.1679
519.941	0.2	petit	55	verb	list	3	8	nomatch	vieux	-1	1	y	1.1679
520.1409	0.0	+	55	verb	list	3	9	nomatch	vieux	-1	1	y	1.1679
520.5405	0.2	rouler	55	verb	list	3	10	nomatch	vieux	-1	1	y	1.1679
520.7405	0.0	+	55	verb	list	3	11	nomatch	vieux	-1	1	y	1.1679
521.1403	0.0	+	55	verb	list	3	12	nomatch	vieux	-1	1	y	1.1679
523.1394	0.0	VIEUX	55	verb	list	3	13	nomatch	vieux	-1	1	y	1.1679
524.3721	0.0	+	55	verb	list	3	14	nomatch	vieux	-1	1	y	1.1679
524.3073	0.0	[response]	55	verb	list	3	15	nomatch	vieux	-1	1	y	1.1679
525.539	0.0	+	56	verb	phrase	2	1	match	jongler	5	1	p	0.6625
526.088	0.2	gcwdjv	56	verb	phrase	2	2	match	jongler	5	1	p	0.6625
526.2879	0.0	+	56	verb	phrase	2	3	match	jongler	5	1	p	0.6625
526.6878	0.2	bzsw	56	verb	phrase	2	4	match	jongler	5	1	p	0.6625
526.888	0.0	+	56	verb	phrase	2	5	match	jongler	5	1	p	0.6625
527.2879	0.2	kqfr	56	verb	phrase	2	6	match	jongler	5	1	p	0.6625
527.4874	0.0	+	56	verb	phrase	2	7	match	jongler	5	1	p	0.6625
527.8872	0.2	mieux	56	verb	phrase	2	8	match	jongler	5	1	p	0.6625
528.0871	0.0	+	56	verb	phrase	2	9	match	jongler	5	1	p	0.6625
528.4869	0.2	jongler	56	verb	phrase	2	10	match	jongler	5	1	p	0.6625
528.6869	0.0	+	56	verb	phrase	2	11	match	jongler	5	1	p	0.6625
529.0867000000001	0.0	+	56	verb	phrase	2	12	match	jongler	5	1	p	0.6625
531.0858000000001	0.0	JONGLER	56	verb	phrase	2	13	match	jongler	5	1	p	0.6625
531.8021	0.0	+	56	verb	phrase	2	14	match	jongler	5	1	p	0.6625
531.7483	0.0	[response]	56	verb	phrase	2	15	match	jongler	5	1	p	0.6625
533.4847	0.0	+	57	noun	list	1	1	nomatch	casier	-1	1	y	1.5762
534.0344	0.2	msqblg	57	noun	list	1	2	nomatch	casier	-1	1	y	1.5762
534.2345	0.0	+	57	noun	list	1	3	nomatch	casier	-1	1	y	1.5762
534.6341	0.2	vhfx	57	noun	list	1	4	nomatch	casier	-1	1	y	1.5762
534.8341	0.0	+	57	noun	list	1	5	nomatch	casier	-1	1	y	1.5762
535.2339000000001	0.2	rgnb	57	noun	list	1	6	nomatch	casier	-1	1	y	1.5762
535.4512	0.0	+	57	noun	list	1	7	nomatch	casier	-1	1	y	1.5762
535.8341	0.2	gtdpf	57	noun	list	1	8	nomatch	casier	-1	1	y	1.5762
536.0504	0.0	+	57	noun	list	1	9	nomatch	casier	-1	1	y	1.5762
536.4507	0.2	voilier	57	noun	list	1	10	nomatch	casier	-1	1	y	1.5762
536.6499	0.0	+	57	noun	list	1	11	nomatch	casier	-1	1	y	1.5762
537.0497	0.0	+	57	noun	list	1	12	nomatch	casier	-1	1	y	1.5762
539.0488	0.0	CASIER	57	noun	list	1	13	nomatch	casier	-1	1	y	1.5762
540.7152	0.0	+	57	noun	list	1	14	nomatch	casier	-1	1	y	1.5762
540.625	0.0	[response]	57	noun	list	1	15	nomatch	casier	-1	1	y	1.5762
541.4477	0.0	+	58	noun	phrase	1	1	nomatch	marc	-1	0	TIMEOUT	-1.0
541.9975000000001	0.2	shtbnrp	58	noun	phrase	1	2	nomatch	marc	-1	0	TIMEOUT	-1.0
542.1974	0.0	+	58	noun	phrase	1	3	nomatch	marc	-1	0	TIMEOUT	-1.0
542.5972	0.2	gbpz	58	noun	phrase	1	4	nomatch	marc	-1	0	TIMEOUT	-1.0
542.7971	0.0	+	58	noun	phrase	1	5	nomatch	marc	-1	0	TIMEOUT	-1.0
543.1969	0.2	smx	58	noun	phrase	1	6	nomatch	marc	-1	0	TIMEOUT	-1.0
543.3969	0.0	+	58	noun	phrase	1	7	nomatch	marc	-1	0	TIMEOUT	-1.0
543.7967	0.2	svcqdlg	58	noun	phrase	1	8	nomatch	marc	-1	0	TIMEOUT	-1.0
543.9966000000001	0.0	+	58	noun	phrase	1	9	nomatch	marc	-1	0	TIMEOUT	-1.0
544.3967	0.2	panier	58	noun	phrase	1	10	nomatch	marc	-1	0	TIMEOUT	-1.0
544.5965	0.0	+	58	noun	phrase	1	11	nomatch	marc	-1	0	TIMEOUT	-1.0
545.0135	0.0	+	58	noun	phrase	1	12	nomatch	marc	-1	0	TIMEOUT	-1.0
546.9952	0.0	MARC	58	noun	phrase	1	13	nomatch	marc	-1	0	TIMEOUT	-1.0
549.3941	0.0	+	59	verb	list	1	1	nomatch	voyager	-1	1	y	0.78218
549.9939	0.2	rtbh	59	verb	list	1	2	nomatch	voyager	-1	1	y	0.78218
550.1938	0.0	+	59	verb	list	1	3	nomatch	voyager	-1	1	y	0.78218
550.5936	0.2	vhfx	59	verb	list	1	4	nomatch	voyager	-1	1	y	0.78218
550.7935	0.0	+	59	verb	list	1	5	nomatch	voyager	-1	1	y	0.78218
551.1933	0.2	pqk	59	verb	list	1	6	nomatch	voyager	-1	1	y	0.78218
551.3932	0.0	+	59	verb	list	1	7	nomatch	voyager	-1	1	y	0.78218
551.793	0.2	shvbl	59	verb	list	1	8	nomatch	voyager	-1	1	y	0.78218
551.993	0.0	+	59	verb	list	1	9	nomatch	voyager	-1	1	y	0.78218
552.3928	0.2	galoper	59	verb	list	1	10	nomatch	voyager	-1	1	y	0.78218
552.5927	0.0	+	59	verb	list	1	11	nomatch	voyager	-1	1	y	0.78218
552.993	0.0	+	59	verb	list	1	12	nomatch	voyager	-1	1	y	0.78218
554.9916000000001	0.0	VOYAGER	59	verb	list	1	13	nomatch	voyager	-1	1	y	0.78218
555.8748	0.0	+	59	verb	list	1	14	nomatch	voyager	-1	1	y	0.78218
555.7738	0.0	[response]	59	verb	list	1	15	nomatch	voyager	-1	1	y	0.78218
557.3905	0.0	+	60	verb	phrase	1	1	match	tard	5	0	TIMEOUT	-1.0
557.9403	0.2	kbsmn	60	verb	phrase	1	2	match	tard	5	0	TIMEOUT	-1.0
558.1402	0.0	+	60	verb	phrase	1	3	match	tard	5	0	TIMEOUT	-1.0
558.5572	0.2	glv	60	verb	phrase	1	4	match	tard	5	0	TIMEOUT	-1.0
558.7402	0.0	+	60	verb	phrase	1	5	match	tard	5	0	TIMEOUT	-1.0
559.1571	0.2	kqfr	60	verb	phrase	1	6	match	tard	5	0	TIMEOUT	-1.0
559.3402	0.0	+	60	verb	phrase	1	7	match	tard	5	0	TIMEOUT	-1.0
559.7402	0.2	jqmbhvf	60	verb	phrase	1	8	match	tard	5	0	TIMEOUT	-1.0
559.9394	0.0	+	60	verb	phrase	1	9	match	tard	5	0	TIMEOUT	-1.0
560.3392	0.2	tard	60	verb	phrase	1	10	match	tard	5	0	TIMEOUT	-1.0
560.5391	0.0	+	60	verb	phrase	1	11	match	tard	5	0	TIMEOUT	-1.0
560.9389	0.0	+	60	verb	phrase	1	12	match	tard	5	0	TIMEOUT	-1.0
562.938	0.0	TARD	60	verb	phrase	1	13	match	tard	5	0	TIMEOUT	-1.0
565.3369	0.0	+	61	verb	phrase	1	1	match	plonger	5	1	p	0.66404
565.9366	0.2	bhsxkf	61	verb	phrase	1	2	match	plonger	5	1	p	0.66404
566.1365	0.0	+	61	verb	phrase	1	3	match	plonger	5	1	p	0.66404
566.5364	0.2	bzsw	61	verb	phrase	1	4	match	plonger	5	1	p	0.66404
566.7363	0.0	+	61	verb	phrase	1	5	match	plonger	5	1	p	0.66404
567.1361	0.2	fhgp	61	verb	phrase	1	6	match	plonger	5	1	p	0.66404
567.336	0.0	+	61	verb	phrase	1	7	match	plonger	5	1	p	0.66404
567.7358	0.2	fhmq	61	verb	phrase	1	8	match	plonger	5	1	p	0.66404
567.9357	0.0	+	61	verb	phrase	1	9	match	plonger	5	1	p	0.66404
568.3355	0.2	plonger	61	verb	phrase	1	10	match	plonger	5	1	p	0.66404
568.5355	0.0	+	61	verb	phrase	1	11	match	plonger	5	1	p	0.66404
568.9353	0.0	+	61	verb	phrase	1	12	match	plonger	5	1	p	0.66404
570.9344	0.0	PLONGER	61	verb	phrase	1	13	match	plonger	5	1	p	0.66404
571.6507	0.0	+	61	verb	phrase	1	14	match	plonger	5	1	p	0.66404
571.5984	0.0	[response]	61	verb	phrase	1	15	match	plonger	5	1	p	0.66404
573.3499	0.0	+	62	verb	phrase	4	1	match	rouler	4	1	p	0.94771
573.9002	0.2	shwjrn	62	verb	phrase	4	2	match	rouler	4	1	p	0.94771
574.0998	0.0	+	62	verb	phrase	4	3	match	rouler	4	1	p	0.94771
574.4995	0.2	luc	62	verb	phrase	4	4	match	rouler	4	1	p	0.94771
574.6993	0.0	+	62	verb	phrase	4	5	match	rouler	4	1	p	0.94771
575.0991	0.2	va	62	verb	phrase	4	6	match	rouler	4	1	p	0.94771
575.299	0.0	+	62	verb	phrase	4	7	match	rouler	4	1	p	0.94771
575.6989	0.2	rouler	62	verb	phrase	4	8	match	rouler	4	1	p	0.94771
575.8988	0.0	+	62	verb	phrase	4	9	match	rouler	4	1	p	0.94771
576.2986	0.2	tard	62	verb	phrase	4	10	match	rouler	4	1	p	0.94771
576.4985	0.0	+	62	verb	phrase	4	11	match	rouler	4	1	p	0.94771
576.8983000000001	0.0	+	62	verb	phrase	4	12	match	rouler	4	1	p	0.94771
578.8979	0.0	ROULER	62	verb	phrase	4	13	match	rouler	4	1	p	0.94771
579.897	0.0	+	62	verb	phrase	4	14	match	rouler	4	1	p	0.94771
579.8456	0.0	[response]	62	verb	phrase	4	15	match	rouler	4	1	p	0.94771
581.2963	0.0	+	63	verb	phrase	1	1	match	ainsi	5	1	p	0.74381
581.8461	0.2	dtjxwzb	63	verb	phrase	1	2	match	ainsi	5	1	p	0.74381
582.046	0.0	+	63	verb	phrase	1	3	match	ainsi	5	1	p	0.74381
582.4458	0.2	mkxz	63	verb	phrase	1	4	match	ainsi	5	1	p	0.74381
582.6457	0.0	+	63	verb	phrase	1	5	match	ainsi	5	1	p	0.74381
583.0462	0.2	kqfr	63	verb	phrase	1	6	match	ainsi	5	1	p	0.74381
583.2461	0.0	+	63	verb	phrase	1	7	match	ainsi	5	1	p	0.74381
583.6454	0.2	ckfqvlm	63	verb	phrase	1	8	match	ainsi	5	1	p	0.74381
583.8621	0.0	+	63	verb	phrase	1	9	match	ainsi	5	1	p	0.74381
584.2455	0.2	ainsi	63	verb	phrase	1	10	match	ainsi	5	1	p	0.74381
584.4449	0.0	+	63	verb	phrase	1	11	match	ainsi	5	1	p	0.74381
584.8447	0.0	+	63	verb	phrase	1	12	match	ainsi	5	1	p	0.74381
586.8444000000001	0.0	AINSI	63	verb	phrase	1	13	match	ainsi	5	1	p	0.74381
587.7104	0.0	+	63	verb	phrase	1	14	match	ainsi	5	1	p	0.74381
587.5882	0.0	[response]	63	verb	phrase	1	15	match	ainsi	5	1	p	0.74381
597.2561000000001	0.0	+	64	verb	list	2	1	match	grand	4	0	TIMEOUT	-1.0
597.7889	0.2	jgvkbzs	64	verb	list	2	2	match	grand	4	0	TIMEOUT	-1.0
597.9888	0.0	+	64	verb	list	2	3	match	grand	4	0	TIMEOUT	-1.0
598.3886	0.2	hrjc	64	verb	list	2	4	match	grand	4	0	TIMEOUT	-1.0
598.5885	0.0	+	64	verb	list	2	5	match	grand	4	0	TIMEOUT	-1.0
598.9883	0.2	tk	64	verb	list	2	6	match	grand	4	0	TIMEOUT	-1.0
599.1882	0.0	+	64	verb	list	2	7	match	grand	4	0	TIMEOUT	-1.0
599.588	0.2	grand	64	verb	list	2	8	match	grand	4	0	TIMEOUT	-1.0
599.7879	0.0	+	64	verb	list	2	9	match	grand	4	0	TIMEOUT	-1.0
600.1878	0.2	galoper	64	verb	list	2	10	match	grand	4	0	TIMEOUT	-1.0
600.3877	0.0	+	64	verb	list	2	11	match	grand	4	0	TIMEOUT	-1.0
600.7875	0.0	+	64	verb	list	2	12	match	grand	4	0	TIMEOUT	-1.0
602.7866	0.0	GRAND	64	verb	list	2	13	match	grand	4	0	TIMEOUT	-1.0
605.1855	0.0	+	65	verb	list	2	1	nomatch	mon	-1	1	y	0.84598
605.7852	0.2	pvwjnzr	65	verb	list	2	2	nomatch	mon	-1	1	y	0.84598
605.9859	0.0	+	65	verb	list	2	3	nomatch	mon	-1	1	y	0.84598
606.385	0.2	vhfx	65	verb	list	2	4	nomatch	mon	-1	1	y	0.84598
606.5849000000001	0.0	+	65	verb	list	2	5	nomatch	mon	-1	1	y	0.84598
606.9847	0.2	pqk	65	verb	list	2	6	nomatch	mon	-1	1	y	0.84598
607.1846	0.0	+	65	verb	list	2	7	nomatch	mon	-1	1	y	0.84598
607.5844	0.2	voyager	65	verb	list	2	8	nomatch	mon	-1	1	y	0.84598
607.7843	0.0	+	65	verb	list	2	9	nomatch	mon	-1	1	y	0.84598
608.1841000000001	0.2	bleu	65	verb	list	2	10	nomatch	mon	-1	1	y	0.84598
608.3841	0.0	+	65	verb	list	2	11	nomatch	mon	-1	1	y	0.84598
608.7839	0.0	+	65	verb	list	2	12	nomatch	mon	-1	1	y	0.84598
610.7996	0.0	MON	65	verb	list	2	13	nomatch	mon	-1	1	y	0.84598
611.6992	0.0	+	65	verb	list	2	14	nomatch	mon	-1	1	y	0.84598
611.6456000000001	0.0	[response]	65	verb	list	2	15	nomatch	mon	-1	1	y	0.84598
613.1985	0.0	+	66	noun	phrase	1	1	nomatch	panier	-1	1	y	0.85401
613.7483	0.2	vgtmh	66	noun	phrase	1	2	nomatch	panier	-1	1	y	0.85401
613.9482	0.0	+	66	noun	phrase	1	3	nomatch	panier	-1	1	y	0.85401
614.348	0.2	mrlw	66	noun	phrase	1	4	nomatch	panier	-1	1	y	0.85401
614.5479	0.0	+	66	noun	phrase	1	5	nomatch	panier	-1	1	y	0.85401
614.9477	0.2	rgnb	66	noun	phrase	1	6	nomatch	panier	-1	1	y	0.85401
615.1476	0.0	+	66	noun	phrase	1	7	nomatch	panier	-1	1	y	0.85401
615.5476	0.2	bwgs	66	noun	phrase	1	8	nomatch	panier	-1	1	y	0.85401
615.7481	0.0	+	66	noun	phrase	1	9	nomatch	panier	-1	1	y	0.85401
616.1476	0.2	clavier	66	noun	phrase	1	10	nomatch	panier	-1	1	y	0.85401
616.3474	0.0	+	66	noun	phrase	1	11	nomatch	panier	-1	1	y	0.85401
616.7476	0.0	+	66	noun	phrase	1	12	nomatch	panier	-1	1	y	0.85401
618.746	0.0	PANIER	66	noun	phrase	1	13	nomatch	panier	-1	1	y	0.85401
619.6623	0.0	+	66	noun	phrase	1	14	nomatch	panier	-1	1	y	0.85401
619.6000000000001	0.0	[response]	66	noun	phrase	1	15	nomatch	panier	-1	1	y	0.85401
621.1449	0.0	+	67	verb	phrase	1	1	match	rouler	5	0	y	2.4084000000000003
621.6947	0.2	xdfvmp	67	verb	phrase	1	2	match	rouler	5	0	y	2.4084000000000003
621.8946	0.0	+	67	verb	phrase	1	3	match	rouler	5	0	y	2.4084000000000003
622.2944	0.2	dxcb	67	verb	phrase	1	4	match	rouler	5	0	y	2.4084000000000003
622.4943	0.0	+	67	verb	phrase	1	5	match	rouler	5	0	y	2.4084000000000003
622.8941	0.2	kqfr	67	verb	phrase	1	6	match	rouler	5	0	y	2.4084000000000003
623.0941	0.0	+	67	verb	phrase	1	7	match	rouler	5	0	y	2.4084000000000003
623.4939	0.2	kprx	67	verb	phrase	1	8	match	rouler	5	0	y	2.4084000000000003
623.6938	0.0	+	67	verb	phrase	1	9	match	rouler	5	0	y	2.4084000000000003
624.0937	0.2	rouler	67	verb	phrase	1	10	match	rouler	5	0	y	2.4084000000000003
624.2942	0.0	+	67	verb	phrase	1	11	match	rouler	5	0	y	2.4084000000000003
624.6933	0.0	+	67	verb	phrase	1	12	match	rouler	5	0	y	2.4084000000000003
626.7095	0.0	ROULER	67	verb	phrase	1	13	match	rouler	5	0	y	2.4084000000000003
629.1746	0.0	+	67	verb	phrase	1	14	match	rouler	5	0	y	2.4084000000000003
629.1178	0.0	[response]	67	verb	phrase	1	15	match	rouler	5	0	y	2.4084000000000003
645.0841	0.0	+	68	verb	list	1	1	nomatch	bleu	-1	1	y	0.74808
645.6338000000001	0.2	jtxgphm	68	verb	list	1	2	nomatch	bleu	-1	1	y	0.74808
645.8337	0.0	+	68	verb	list	1	3	nomatch	bleu	-1	1	y	0.74808
646.2338	0.2	dvjc	68	verb	list	1	4	nomatch	bleu	-1	1	y	0.74808
646.4501	0.0	+	68	verb	list	1	5	nomatch	bleu	-1	1	y	0.74808
646.8499	0.2	pqk	68	verb	list	1	6	nomatch	bleu	-1	1	y	0.74808
647.0671	0.0	+	68	verb	list	1	7	nomatch	bleu	-1	1	y	0.74808
647.467	0.2	dvqjwc	68	verb	list	1	8	nomatch	bleu	-1	1	y	0.74808
647.65	0.0	+	68	verb	list	1	9	nomatch	bleu	-1	1	y	0.74808
648.0663	0.2	rouge	68	verb	list	1	10	nomatch	bleu	-1	1	y	0.74808
648.2494	0.0	+	68	verb	list	1	11	nomatch	bleu	-1	1	y	0.74808
648.6491	0.0	+	68	verb	list	1	12	nomatch	bleu	-1	1	y	0.74808
650.6486	0.0	BLEU	68	verb	list	1	13	nomatch	bleu	-1	1	y	0.74808
651.5145	0.0	+	68	verb	list	1	14	nomatch	bleu	-1	1	y	0.74808
651.3967	0.0	[response]	68	verb	list	1	15	nomatch	bleu	-1	1	y	0.74808
661.0602	0.0	+	69	noun	phrase	2	1	match	petit	4	1	p	0.73897
661.5938	0.2	hnxf	69	noun	phrase	2	2	match	petit	4	1	p	0.73897
661.7932	0.0	+	69	noun	phrase	2	3	match	petit	4	1	p	0.73897
662.193	0.2	gjml	69	noun	phrase	2	4	match	petit	4	1	p	0.73897
662.3929	0.0	+	69	noun	phrase	2	5	match	petit	4	1	p	0.73897
662.7927	0.2	smx	69	noun	phrase	2	6	match	petit	4	1	p	0.73897
662.9926	0.0	+	69	noun	phrase	2	7	match	petit	4	1	p	0.73897
663.3924	0.2	petit	69	noun	phrase	2	8	match	petit	4	1	p	0.73897
663.5924	0.0	+	69	noun	phrase	2	9	match	petit	4	1	p	0.73897
663.9922	0.2	grenier	69	noun	phrase	2	10	match	petit	4	1	p	0.73897
664.1921	0.0	+	69	noun	phrase	2	11	match	petit	4	1	p	0.73897
664.5919	0.0	+	69	noun	phrase	2	12	match	petit	4	1	p	0.73897
666.5917000000001	0.0	PETIT	69	noun	phrase	2	13	match	petit	4	1	p	0.73897
667.3906000000001	0.0	+	69	noun	phrase	2	14	match	petit	4	1	p	0.73897
667.3307000000001	0.0	[response]	69	noun	phrase	2	15	match	petit	4	1	p	0.73897
668.9899	0.0	+	70	verb	phrase	1	1	match	galoper	5	0	TIMEOUT	-1.0
669.5397	0.2	vgk	70	verb	phrase	1	2	match	galoper	5	0	TIMEOUT	-1.0
669.7396	0.0	+	70	verb	phrase	1	3	match	galoper	5	0	TIMEOUT	-1.0
670.1394	0.2	vhfx	70	verb	phrase	1	4	match	galoper	5	0	TIMEOUT	-1.0
670.34	0.0	+	70	verb	phrase	1	5	match	galoper	5	0	TIMEOUT	-1.0
670.7561000000001	0.2	kqfr	70	verb	phrase	1	6	match	galoper	5	0	TIMEOUT	-1.0
670.9397	0.0	+	70	verb	phrase	1	7	match	galoper	5	0	TIMEOUT	-1.0
671.3388	0.2	gtdpf	70	verb	phrase	1	8	match	galoper	5	0	TIMEOUT	-1.0
671.5392	0.0	+	70	verb	phrase	1	9	match	galoper	5	0	TIMEOUT	-1.0
671.9386000000001	0.2	galoper	70	verb	phrase	1	10	match	galoper	5	0	TIMEOUT	-1.0
672.1385	0.0	+	70	verb	phrase	1	11	match	galoper	5	0	TIMEOUT	-1.0
672.5383	0.0	+	70	verb	phrase	1	12	match	galoper	5	0	TIMEOUT	-1.0
674.5374	0.0	GALOPER	70	verb	phrase	1	13	match	galoper	5	0	TIMEOUT	-1.0
676.9363	0.0	+	71	verb	list	3	1	match	danser	5	1	p	0.6686000000000001
677.5360000000001	0.2	fzwqkxt	71	verb	list	3	2	match	danser	5	1	p	0.6686000000000001
677.7359	0.0	+	71	verb	list	3	3	match	danser	5	1	p	0.6686000000000001
678.1358	0.2	gbpz	71	verb	list	3	4	match	danser	5	1	p	0.6686000000000001
678.3357	0.0	+	71	verb	list	3	5	match	danser	5	1	p	0.6686000000000001
678.7355	0.2	va	71	verb	list	3	6	match	danser	5	1	p	0.6686000000000001
678.9354	0.0	+	71	verb	list	3	7	match	danser	5	1	p	0.6686000000000001
679.3352	0.2	nouveau	71	verb	list	3	8	match	danser	5	1	p	0.6686000000000001
679.5351	0.0	+	71	verb	list	3	9	match	danser	5	1	p	0.6686000000000001
679.9349	0.2	danser	71	verb	list	3	10	match	danser	5	1	p	0.6686000000000001
680.1348	0.0	+	71	verb	list	3	11	match	danser	5	1	p	0.6686000000000001
680.5347	0.0	+	71	verb	list	3	12	match	danser	5	1	p	0.6686000000000001
682.5338	0.0	DANSER	71	verb	list	3	13	match	danser	5	1	p	0.6686000000000001
683.2668	0.0	+	71	verb	list	3	14	match	danser	5	1	p	0.6686000000000001
683.2024	0.0	[response]	71	verb	list	3	15	match	danser	5	1	p	0.6686000000000001
684.9493	0.0	+	72	noun	list	1	1	match	voilier	5	0	TIMEOUT	-1.0
685.4991	0.2	zlgjhwc	72	noun	list	1	2	match	voilier	5	0	TIMEOUT	-1.0
685.6997	0.0	+	72	noun	list	1	3	match	voilier	5	0	TIMEOUT	-1.0
686.1159	0.2	mrlw	72	noun	list	1	4	match	voilier	5	0	TIMEOUT	-1.0
686.2989	0.0	+	72	noun	list	1	5	match	voilier	5	0	TIMEOUT	-1.0
686.6985	0.2	tk	72	noun	list	1	6	match	voilier	5	0	TIMEOUT	-1.0
686.8984	0.0	+	72	noun	list	1	7	match	voilier	5	0	TIMEOUT	-1.0
687.2983	0.2	lgqmd	72	noun	list	1	8	match	voilier	5	0	TIMEOUT	-1.0
687.4982	0.0	+	72	noun	list	1	9	match	voilier	5	0	TIMEOUT	-1.0
687.898	0.2	voilier	72	noun	list	1	10	match	voilier	5	0	TIMEOUT	-1.0
688.0979	0.0	+	72	noun	list	1	11	match	voilier	5	0	TIMEOUT	-1.0
688.498	0.0	+	72	noun	list	1	12	match	voilier	5	0	TIMEOUT	-1.0
690.4968	0.0	VOILIER	72	noun	list	1	13	match	voilier	5	0	TIMEOUT	-1.0
692.8957	0.0	+	73	verb	list	1	1	match	voyager	5	1	p	1.5317
693.4955	0.2	rxzpsck	73	verb	list	1	2	match	voyager	5	1	p	1.5317
693.6954000000001	0.0	+	73	verb	list	1	3	match	voyager	5	1	p	1.5317
694.0952	0.2	dvjc	73	verb	list	1	4	match	voyager	5	1	p	1.5317
694.2951	0.0	+	73	verb	list	1	5	match	voyager	5	1	p	1.5317
694.6949	0.2	smx	73	verb	list	1	6	match	voyager	5	1	p	1.5317
694.8948	0.0	+	73	verb	list	1	7	match	voyager	5	1	p	1.5317
695.2946000000001	0.2	mtnpk	73	verb	list	1	8	match	voyager	5	1	p	1.5317
695.4946	0.0	+	73	verb	list	1	9	match	voyager	5	1	p	1.5317
695.8944	0.2	voyager	73	verb	list	1	10	match	voyager	5	1	p	1.5317
696.0943	0.0	+	73	verb	list	1	11	match	voyager	5	1	p	1.5317
696.4941	0.0	+	73	verb	list	1	12	match	voyager	5	1	p	1.5317
698.4932	0.0	VOYAGER	73	verb	list	1	13	match	voyager	5	1	p	1.5317
700.0925	0.0	+	73	verb	list	1	14	match	voyager	5	1	p	1.5317
700.0249	0.0	[response]	73	verb	list	1	15	match	voyager	5	1	p	1.5317
708.8885	0.0	+	74	verb	phrase	4	1	match	ainsi	5	0	y	1.4020000000000001
709.4382	0.2	zqbvtmk	74	verb	phrase	4	2	match	ainsi	5	0	y	1.4020000000000001
709.6381	0.0	+	74	verb	phrase	4	3	match	ainsi	5	0	y	1.4020000000000001
710.038	0.2	marc	74	verb	phrase	4	4	match	ainsi	5	0	y	1.4020000000000001
710.2379	0.0	+	74	verb	phrase	4	5	match	ainsi	5	0	y	1.4020000000000001
710.6377	0.2	doit	74	verb	phrase	4	6	match	ainsi	5	0	y	1.4020000000000001
710.8376	0.0	+	74	verb	phrase	4	7	match	ainsi	5	0	y	1.4020000000000001
711.2377	0.2	jongler	74	verb	phrase	4	8	match	ainsi	5	0	y	1.4020000000000001
711.4379	0.0	+	74	verb	phrase	4	9	match	ainsi	5	0	y	1.4020000000000001
711.8377	0.2	ainsi	74	verb	phrase	4	10	match	ainsi	5	0	y	1.4020000000000001
712.0372	0.0	+	74	verb	phrase	4	11	match	ainsi	5	0	y	1.4020000000000001
712.4369	0.0	+	74	verb	phrase	4	12	match	ainsi	5	0	y	1.4020000000000001
714.436	0.0	AINSI	74	verb	phrase	4	13	match	ainsi	5	0	y	1.4020000000000001
715.9186	0.0	+	74	verb	phrase	4	14	match	ainsi	5	0	y	1.4020000000000001
715.8379	0.0	[response]	74	verb	phrase	4	15	match	ainsi	5	0	y	1.4020000000000001
716.8349000000001	0.0	+	75	verb	list	2	1	match	patiner	4	1	p	0.58075
717.3846	0.2	htlp	75	verb	list	2	2	match	patiner	4	1	p	0.58075
717.5845	0.0	+	75	verb	list	2	3	match	patiner	4	1	p	0.58075
717.9843	0.2	mkxz	75	verb	list	2	4	match	patiner	4	1	p	0.58075
718.1847	0.0	+	75	verb	list	2	5	match	patiner	4	1	p	0.58075
718.5845	0.2	pqk	75	verb	list	2	6	match	patiner	4	1	p	0.58075
718.8014000000001	0.0	+	75	verb	list	2	7	match	patiner	4	1	p	0.58075
719.2009	0.2	patiner	75	verb	list	2	8	match	patiner	4	1	p	0.58075
719.3843	0.0	+	75	verb	list	2	9	match	patiner	4	1	p	0.58075
719.7836	0.2	noir	75	verb	list	2	10	match	patiner	4	1	p	0.58075
720.0001	0.0	+	75	verb	list	2	11	match	patiner	4	1	p	0.58075
720.3999	0.0	+	75	verb	list	2	12	match	patiner	4	1	p	0.58075
722.3996	0.0	PATINER	75	verb	list	2	13	match	patiner	4	1	p	0.58075
723.0321	0.0	+	75	verb	list	2	14	match	patiner	4	1	p	0.58075
722.9803	0.0	[response]	75	verb	list	2	15	match	patiner	4	1	p	0.58075
724.7979	0.0	+	76	verb	list	3	1	nomatch	casier	-1	1	y	1.5056000000000003
725.3483	0.2	lbw	76	verb	list	3	2	nomatch	casier	-1	1	y	1.5056000000000003
725.5478	0.0	+	76	verb	list	3	3	nomatch	casier	-1	1	y	1.5056000000000003
725.948	0.2	hrjc	76	verb	list	3	4	nomatch	casier	-1	1	y	1.5056000000000003
726.1478	0.0	+	76	verb	list	3	5	nomatch	casier	-1	1	y	1.5056000000000003
726.5471	0.2	doit	76	verb	list	3	6	nomatch	casier	-1	1	y	1.5056000000000003
726.7471	0.0	+	76	verb	list	3	7	nomatch	casier	-1	1	y	1.5056000000000003
727.1469	0.2	grand	76	verb	list	3	8	nomatch	casier	-1	1	y	1.5056000000000003
727.3468	0.0	+	76	verb	list	3	9	nomatch	casier	-1	1	y	1.5056000000000003
727.7466000000001	0.2	plonger	76	verb	list	3	10	nomatch	casier	-1	1	y	1.5056000000000003
727.9465	0.0	+	76	verb	list	3	11	nomatch	casier	-1	1	y	1.5056000000000003
728.3463	0.0	+	76	verb	list	3	12	nomatch	casier	-1	1	y	1.5056000000000003
730.3454	0.0	CASIER	76	verb	list	3	13	nomatch	casier	-1	1	y	1.5056000000000003
731.9114	0.0	+	76	verb	list	3	14	nomatch	casier	-1	1	y	1.5056000000000003
731.851	0.0	[response]	76	verb	list	3	15	nomatch	casier	-1	1	y	1.5056000000000003
732.7443	0.0	+	77	noun	list	3	1	match	plus	4	0	TIMEOUT	-1.0
733.2941	0.2	zgwx	77	noun	list	3	2	match	plus	4	0	TIMEOUT	-1.0
733.494	0.0	+	77	noun	list	3	3	match	plus	4	0	TIMEOUT	-1.0
733.8938	0.2	zbkp	77	noun	list	3	4	match	plus	4	0	TIMEOUT	-1.0
734.0937	0.0	+	77	noun	list	3	5	match	plus	4	0	TIMEOUT	-1.0
734.4935	0.2	leur	77	noun	list	3	6	match	plus	4	0	TIMEOUT	-1.0
734.6934	0.0	+	77	noun	list	3	7	match	plus	4	0	TIMEOUT	-1.0
735.0933	0.2	plus	77	noun	list	3	8	match	plus	4	0	TIMEOUT	-1.0
735.2932	0.0	+	77	noun	list	3	9	match	plus	4	0	TIMEOUT	-1.0
735.6934	0.2	voilier	77	noun	list	3	10	match	plus	4	0	TIMEOUT	-1.0
735.8932	0.0	+	77	noun	list	3	11	match	plus	4	0	TIMEOUT	-1.0
736.2927	0.0	+	77	noun	list	3	12	match	plus	4	0	TIMEOUT	-1.0
738.2918	0.0	PLUS	77	noun	list	3	13	match	plus	4	0	TIMEOUT	-1.0
740.6907	0.0	+	78	verb	list	1	1	match	galoper	5	0	y	1.1403000000000003
741.2905	0.2	nqdwlk	78	verb	list	1	2	match	galoper	5	0	y	1.1403000000000003
741.4904	0.0	+	78	verb	list	1	3	match	galoper	5	0	y	1.1403000000000003
741.8902	0.2	dsmq	78	verb	list	1	4	match	galoper	5	0	y	1.1403000000000003
742.0901	0.0	+	78	verb	list	1	5	match	galoper	5	0	y	1.1403000000000003
742.4899	0.2	fhgp	78	verb	list	1	6	match	galoper	5	0	y	1.1403000000000003
742.6898	0.0	+	78	verb	list	1	7	match	galoper	5	0	y	1.1403000000000003
743.0896	0.2	nrtjf	78	verb	list	1	8	match	galoper	5	0	y	1.1403000000000003
743.2896000000001	0.0	+	78	verb	list	1	9	match	galoper	5	0	y	1.1403000000000003
743.6894	0.2	galoper	78	verb	list	1	10	match	galoper	5	0	y	1.1403000000000003
743.8893	0.0	+	78	verb	list	1	11	match	galoper	5	0	y	1.1403000000000003
744.2891	0.0	+	78	verb	list	1	12	match	galoper	5	0	y	1.1403000000000003
746.2882	0.0	GALOPER	78	verb	list	1	13	match	galoper	5	0	y	1.1403000000000003
747.4876	0.0	+	78	verb	list	1	14	match	galoper	5	0	y	1.1403000000000003
747.4285	0.0	[response]	78	verb	list	1	15	match	galoper	5	0	y	1.1403000000000003
748.6871	0.0	+	79	verb	phrase	1	1	nomatch	plus	-1	1	y	0.71838
749.237	0.2	wqvrtc	79	verb	phrase	1	2	nomatch	plus	-1	1	y	0.71838
749.437	0.0	+	79	verb	phrase	1	3	nomatch	plus	-1	1	y	0.71838
749.8372	0.2	dxcb	79	verb	phrase	1	4	nomatch	plus	-1	1	y	0.71838
750.0369000000001	0.0	+	79	verb	phrase	1	5	nomatch	plus	-1	1	y	0.71838
750.4363	0.2	kqfr	79	verb	phrase	1	6	nomatch	plus	-1	1	y	0.71838
750.6362	0.0	+	79	verb	phrase	1	7	nomatch	plus	-1	1	y	0.71838
751.0360000000001	0.2	cstmb	79	verb	phrase	1	8	nomatch	plus	-1	1	y	0.71838
751.2359	0.0	+	79	verb	phrase	1	9	nomatch	plus	-1	1	y	0.71838
751.6358	0.2	moins	79	verb	phrase	1	10	nomatch	plus	-1	1	y	0.71838
751.8357	0.0	+	79	verb	phrase	1	11	nomatch	plus	-1	1	y	0.71838
752.2355	0.0	+	79	verb	phrase	1	12	nomatch	plus	-1	1	y	0.71838
754.2348000000001	0.0	PLUS	79	verb	phrase	1	13	nomatch	plus	-1	1	y	0.71838
755.0176	0.0	+	79	verb	phrase	1	14	nomatch	plus	-1	1	y	0.71838
754.9532	0.0	[response]	79	verb	phrase	1	15	nomatch	plus	-1	1	y	0.71838
756.6501	0.0	+	80	verb	list	1	1	match	bleu	5	0	TIMEOUT	-1.0
757.1999	0.2	bxqch	80	verb	list	1	2	match	bleu	5	0	TIMEOUT	-1.0
757.3998	0.0	+	80	verb	list	1	3	match	bleu	5	0	TIMEOUT	-1.0
757.7996	0.2	bzsw	80	verb	list	1	4	match	bleu	5	0	TIMEOUT	-1.0
757.9995	0.0	+	80	verb	list	1	5	match	bleu	5	0	TIMEOUT	-1.0
758.3994	0.2	pqk	80	verb	list	1	6	match	bleu	5	0	TIMEOUT	-1.0
758.5993	0.0	+	80	verb	list	1	7	match	bleu	5	0	TIMEOUT	-1.0
758.9998	0.2	dvtwflp	80	verb	list	1	8	match	bleu	5	0	TIMEOUT	-1.0
759.1994	0.0	+	80	verb	list	1	9	match	bleu	5	0	TIMEOUT	-1.0
759.5988	0.2	bleu	80	verb	list	1	10	match	bleu	5	0	TIMEOUT	-1.0
759.7987	0.0	+	80	verb	list	1	11	match	bleu	5	0	TIMEOUT	-1.0
760.1986	0.0	+	80	verb	list	1	12	match	bleu	5	0	TIMEOUT	-1.0
762.1983	0.0	BLEU	80	verb	list	1	13	match	bleu	5	0	TIMEOUT	-1.0
764.5966	0.0	+	80	verb	list	1	14	match	bleu	5	0	TIMEOUT	-1.0
764.9964	0.0	+	80	verb	list	1	15	match	bleu	5	0	TIMEOUT	-1.0
765.0963	0.0	+	80	verb	list	1	16	match	bleu	5	0	TIMEOUT	-1.0
766.4957	0.0	+	80	verb	list	1	17	match	bleu	5	0	TIMEOUT	-1.0
766.5957	0.0	+	80	verb	list	1	18	match	bleu	5	0	TIMEOUT	-1.0
767.995	0.0	+	80	verb	list	1	19	match	bleu	5	0	TIMEOUT	-1.0
768.095	0.0	+	80	verb	list	1	20	match	bleu	5	0	TIMEOUT	-1.0
769.4943	0.0	+	80	verb	list	1	21	match	bleu	5	0	TIMEOUT	-1.0
769.5943	0.0	+	80	verb	list	1	22	match	bleu	5	0	TIMEOUT	-1.0
770.9936	0.0	+	80	verb	list	1	23	match	bleu	5	0	TIMEOUT	-1.0
771.0936	0.0	+	80	verb	list	1	24	match	bleu	5	0	TIMEOUT	-1.0
772.493	0.0	+	80	verb	list	1	25	match	bleu	5	0	TIMEOUT	-1.0
772.5929	0.0	+	80	verb	list	1	26	match	bleu	5	0	TIMEOUT	-1.0
773.9923	0.0	+	80	verb	list	1	27	match	bleu	5	0	TIMEOUT	-1.0
774.0922	0.0	+	80	verb	list	1	28	match	bleu	5	0	TIMEOUT	-1.0
775.4918	0.0	+	80	verb	list	1	29	match	bleu	5	0	TIMEOUT	-1.0
775.5916	0.0	+	80	verb	list	1	30	match	bleu	5	0	TIMEOUT	-1.0
777.0076	0.0	+	80	verb	list	1	31	match	bleu	5	0	TIMEOUT	-1.0
777.1075	0.0	+	80	verb	list	1	32	match	bleu	5	0	TIMEOUT	-1.0
778.5069	0.0	+	80	verb	list	1	33	match	bleu	5	0	TIMEOUT	-1.0
778.6069	0.0	+	80	verb	list	1	34	match	bleu	5	0	TIMEOUT	-1.0
783.388	0.0	+	80	verb	list	1	35	match	bleu	5	0	TIMEOUT	-1.0
