onset	duration	stim	trial_number	trial_type	trial_structure	trial_length	sequential_position	probe_type	probe	probe_position	response_correct	response_key	response_time
0.06599999999997408	0.0	+	1	noun	phrase	1	1	match	rocher	5	0	TIMEOUT	-1.0
0.5490999999999815	0.2	nfslmcv	1	noun	phrase	1	2	match	rocher	5	0	TIMEOUT	-1.0
0.7489999999999952	0.0	+	1	noun	phrase	1	3	match	rocher	5	0	TIMEOUT	-1.0
1.1487999999999943	0.2	gbpz	1	noun	phrase	1	4	match	rocher	5	0	TIMEOUT	-1.0
1.3486999999999796	0.0	+	1	noun	phrase	1	5	match	rocher	5	0	TIMEOUT	-1.0
1.7484999999999786	0.2	pqk	1	noun	phrase	1	6	match	rocher	5	0	TIMEOUT	-1.0
1.9483999999999924	0.0	+	1	noun	phrase	1	7	match	rocher	5	0	TIMEOUT	-1.0
2.3481999999999914	0.2	gvlmd	1	noun	phrase	1	8	match	rocher	5	0	TIMEOUT	-1.0
2.54819999999998	0.0	+	1	noun	phrase	1	9	match	rocher	5	0	TIMEOUT	-1.0
2.947999999999979	0.2	rocher	1	noun	phrase	1	10	match	rocher	5	0	TIMEOUT	-1.0
3.147899999999993	0.0	+	1	noun	phrase	1	11	match	rocher	5	0	TIMEOUT	-1.0
3.547699999999992	0.0	+	1	noun	phrase	1	12	match	rocher	5	0	TIMEOUT	-1.0
5.54679999999999	0.0	ROCHER	1	noun	phrase	1	13	match	rocher	5	0	TIMEOUT	-1.0
7.945699999999988	0.0	+	2	verb	phrase	1	1	nomatch	jongler	-1	1	y	1.6317
8.5454	0.2	crfb	2	verb	phrase	1	2	nomatch	jongler	-1	1	y	1.6317
8.74539999999999	0.0	+	2	verb	phrase	1	3	nomatch	jongler	-1	1	y	1.6317
9.145199999999988	0.2	zbkp	2	verb	phrase	1	4	nomatch	jongler	-1	1	y	1.6317
9.345099999999974	0.0	+	2	verb	phrase	1	5	nomatch	jongler	-1	1	y	1.6317
9.744900000000001	0.2	kqfr	2	verb	phrase	1	6	nomatch	jongler	-1	1	y	1.6317
9.944799999999987	0.0	+	2	verb	phrase	1	7	nomatch	jongler	-1	1	y	1.6317
10.344599999999986	0.2	njxzb	2	verb	phrase	1	8	nomatch	jongler	-1	1	y	1.6317
10.5445	0.0	+	2	verb	phrase	1	9	nomatch	jongler	-1	1	y	1.6317
10.944399999999973	0.2	rouler	2	verb	phrase	1	10	nomatch	jongler	-1	1	y	1.6317
11.144299999999987	0.0	+	2	verb	phrase	1	11	nomatch	jongler	-1	1	y	1.6317
11.560999999999979	0.0	+	2	verb	phrase	1	12	nomatch	jongler	-1	1	y	1.6317
13.543199999999985	0.0	JONGLER	2	verb	phrase	1	13	nomatch	jongler	-1	1	y	1.6317
15.242399999999975	0.0	+	2	verb	phrase	1	14	nomatch	jongler	-1	1	y	1.6317
15.17489999999998	0.0	[response]	2	verb	phrase	1	15	nomatch	jongler	-1	1	y	1.6317
15.942099999999982	0.0	+	3	noun	phrase	1	1	nomatch	son	-1	1	y	1.0748
16.491799999999984	0.2	fzgbdw	3	noun	phrase	1	2	nomatch	son	-1	1	y	1.0748
16.691699999999997	0.0	+	3	noun	phrase	1	3	nomatch	son	-1	1	y	1.0748
17.0916	0.2	dzq	3	noun	phrase	1	4	nomatch	son	-1	1	y	1.0748
17.291499999999985	0.0	+	3	noun	phrase	1	5	nomatch	son	-1	1	y	1.0748
17.691299999999984	0.2	rgnb	3	noun	phrase	1	6	nomatch	son	-1	1	y	1.0748
17.891199999999998	0.0	+	3	noun	phrase	1	7	nomatch	son	-1	1	y	1.0748
18.29159999999999	0.2	shvbl	3	noun	phrase	1	8	nomatch	son	-1	1	y	1.0748
18.490899999999982	0.0	+	3	noun	phrase	1	9	nomatch	son	-1	1	y	1.0748
18.89069999999998	0.2	voilier	3	noun	phrase	1	10	nomatch	son	-1	1	y	1.0748
19.0907	0.0	+	3	noun	phrase	1	11	nomatch	son	-1	1	y	1.0748
19.490499999999997	0.0	+	3	noun	phrase	1	12	nomatch	son	-1	1	y	1.0748
21.489899999999977	0.0	SON	3	noun	phrase	1	13	nomatch	son	-1	1	y	1.0748
22.6224	0.0	+	3	noun	phrase	1	14	nomatch	son	-1	1	y	1.0748
22.564699999999988	0.0	[response]	3	noun	phrase	1	15	nomatch	son	-1	1	y	1.0748
39.89789999999999	0.0	+	4	noun	phrase	4	1	match	blanc	5	1	p	1.1781
40.4477	0.2	bnptr	4	noun	phrase	4	2	match	blanc	5	1	p	1.1781
40.6481	0.0	+	4	noun	phrase	4	3	match	blanc	5	1	p	1.1781
41.04809999999998	0.2	pour	4	noun	phrase	4	4	match	blanc	5	1	p	1.1781
41.24799999999999	0.0	+	4	noun	phrase	4	5	match	blanc	5	1	p	1.1781
41.64759999999998	0.2	mon	4	noun	phrase	4	6	match	blanc	5	1	p	1.1781
41.84699999999998	0.0	+	4	noun	phrase	4	7	match	blanc	5	1	p	1.1781
42.24679999999998	0.2	grenier	4	noun	phrase	4	8	match	blanc	5	1	p	1.1781
42.44669999999999	0.0	+	4	noun	phrase	4	9	match	blanc	5	1	p	1.1781
42.846599999999995	0.2	blanc	4	noun	phrase	4	10	match	blanc	5	1	p	1.1781
43.04649999999998	0.0	+	4	noun	phrase	4	11	match	blanc	5	1	p	1.1781
43.44629999999998	0.0	+	4	noun	phrase	4	12	match	blanc	5	1	p	1.1781
45.44539999999998	0.0	BLANC	4	noun	phrase	4	13	match	blanc	5	1	p	1.1781
46.72839999999999	0.0	+	4	noun	phrase	4	14	match	blanc	5	1	p	1.1781
46.62350000000001	0.0	[response]	4	noun	phrase	4	15	match	blanc	5	1	p	1.1781
47.844299999999976	0.0	+	5	noun	list	1	1	match	clavier	5	1	p	0.94157
48.39399999999998	0.2	tqv	5	noun	list	1	2	match	clavier	5	1	p	0.94157
48.59389999999999	0.0	+	5	noun	list	1	3	match	clavier	5	1	p	0.94157
48.99379999999999	0.2	dxcb	5	noun	list	1	4	match	clavier	5	1	p	0.94157
49.19369999999998	0.0	+	5	noun	list	1	5	match	clavier	5	1	p	0.94157
49.59349999999998	0.2	smx	5	noun	list	1	6	match	clavier	5	1	p	0.94157
49.79339999999999	0.0	+	5	noun	list	1	7	match	clavier	5	1	p	0.94157
50.19319999999999	0.2	gtdpf	5	noun	list	1	8	match	clavier	5	1	p	0.94157
50.393099999999976	0.0	+	5	noun	list	1	9	match	clavier	5	1	p	0.94157
50.793199999999985	0.2	clavier	5	noun	list	1	10	match	clavier	5	1	p	0.94157
50.99289999999999	0.0	+	5	noun	list	1	11	match	clavier	5	1	p	0.94157
51.3929	0.0	+	5	noun	list	1	12	match	clavier	5	1	p	0.94157
53.39189999999999	0.0	CLAVIER	5	noun	list	1	13	match	clavier	5	1	p	0.94157
54.3913	0.0	+	5	noun	list	1	14	match	clavier	5	1	p	0.94157
54.33349999999999	0.0	[response]	5	noun	list	1	15	match	clavier	5	1	p	0.94157
55.79069999999999	0.0	+	6	noun	phrase	1	1	match	nouveau	5	1	p	0.83823
56.34039999999999	0.2	nhsgxz	6	noun	phrase	1	2	match	nouveau	5	1	p	0.83823
56.540299999999974	0.0	+	6	noun	phrase	1	3	match	nouveau	5	1	p	0.83823
56.940199999999976	0.2	dsmq	6	noun	phrase	1	4	match	nouveau	5	1	p	0.83823
57.14009999999999	0.0	+	6	noun	phrase	1	5	match	nouveau	5	1	p	0.83823
57.54039999999998	0.2	pqk	6	noun	phrase	1	6	match	nouveau	5	1	p	0.83823
57.739799999999974	0.0	+	6	noun	phrase	1	7	match	nouveau	5	1	p	0.83823
58.14009999999999	0.2	dtbqws	6	noun	phrase	1	8	match	nouveau	5	1	p	0.83823
58.33949999999999	0.0	+	6	noun	phrase	1	9	match	nouveau	5	1	p	0.83823
58.739599999999996	0.2	nouveau	6	noun	phrase	1	10	match	nouveau	5	1	p	0.83823
58.939299999999974	0.0	+	6	noun	phrase	1	11	match	nouveau	5	1	p	0.83823
59.33909999999997	0.0	+	6	noun	phrase	1	12	match	nouveau	5	1	p	0.83823
61.3382	0.0	NOUVEAU	6	noun	phrase	1	13	match	nouveau	5	1	p	0.83823
62.23779999999999	0.0	+	6	noun	phrase	1	14	match	nouveau	5	1	p	0.83823
62.1764	0.0	[response]	6	noun	phrase	1	15	match	nouveau	5	1	p	0.83823
63.7371	0.0	+	7	noun	phrase	3	1	match	mon	3	1	p	1.1277
64.2868	0.2	wgmshd	7	noun	phrase	3	2	match	mon	3	1	p	1.1277
64.48669999999998	0.0	+	7	noun	phrase	3	3	match	mon	3	1	p	1.1277
64.88659999999999	0.2	dzq	7	noun	phrase	3	4	match	mon	3	1	p	1.1277
65.0865	0.0	+	7	noun	phrase	3	5	match	mon	3	1	p	1.1277
65.4863	0.2	mon	7	noun	phrase	3	6	match	mon	3	1	p	1.1277
65.68619999999999	0.0	+	7	noun	phrase	3	7	match	mon	3	1	p	1.1277
66.0865	0.2	grenier	7	noun	phrase	3	8	match	mon	3	1	p	1.1277
66.303	0.0	+	7	noun	phrase	3	9	match	mon	3	1	p	1.1277
66.6858	0.2	blanc	7	noun	phrase	3	10	match	mon	3	1	p	1.1277
66.88559999999998	0.0	+	7	noun	phrase	3	11	match	mon	3	1	p	1.1277
67.28549999999998	0.0	+	7	noun	phrase	3	12	match	mon	3	1	p	1.1277
69.30159999999998	0.0	MON	7	noun	phrase	3	13	match	mon	3	1	p	1.1277
70.48399999999998	0.0	+	7	noun	phrase	3	14	match	mon	3	1	p	1.1277
70.42929999999998	0.0	[response]	7	noun	phrase	3	15	match	mon	3	1	p	1.1277
71.68349999999998	0.0	+	8	noun	list	3	1	match	son	3	1	p	0.92511
72.2499	0.2	njl	8	noun	list	3	2	match	son	3	1	p	0.92511
72.44979999999998	0.0	+	8	noun	list	3	3	match	son	3	1	p	0.92511
72.84959999999998	0.2	glv	8	noun	list	3	4	match	son	3	1	p	0.92511
73.0495	0.0	+	8	noun	list	3	5	match	son	3	1	p	0.92511
73.4493	0.2	son	8	noun	list	3	6	match	son	3	1	p	0.92511
73.66649999999998	0.0	+	8	noun	list	3	7	match	son	3	1	p	0.92511
74.04909999999998	0.2	plus	8	noun	list	3	8	match	son	3	1	p	0.92511
74.2491	0.0	+	8	noun	list	3	9	match	son	3	1	p	0.92511
74.666	0.2	tablier	8	noun	list	3	10	match	son	3	1	p	0.92511
74.84909999999999	0.0	+	8	noun	list	3	11	match	son	3	1	p	0.92511
75.24849999999998	0.0	+	8	noun	list	3	12	match	son	3	1	p	0.92511
77.24759999999998	0.0	SON	8	noun	list	3	13	match	son	3	1	p	0.92511
78.23049999999998	0.0	+	8	noun	list	3	14	match	son	3	1	p	0.92511
78.17270000000002	0.0	[response]	8	noun	list	3	15	match	son	3	1	p	0.92511
79.64649999999997	0.0	+	9	verb	phrase	4	1	match	adam	2	1	p	0.89296
80.19629999999998	0.2	sftn	9	verb	phrase	4	2	match	adam	2	1	p	0.89296
80.3962	0.0	+	9	verb	phrase	4	3	match	adam	2	1	p	0.89296
80.79599999999996	0.2	adam	9	verb	phrase	4	4	match	adam	2	1	p	0.89296
80.99589999999998	0.0	+	9	verb	phrase	4	5	match	adam	2	1	p	0.89296
81.39609999999996	0.2	doit	9	verb	phrase	4	6	match	adam	2	1	p	0.89296
81.59579999999997	0.0	+	9	verb	phrase	4	7	match	adam	2	1	p	0.89296
81.99609999999998	0.2	mieux	9	verb	phrase	4	8	match	adam	2	1	p	0.89296
82.196	0.0	+	9	verb	phrase	4	9	match	adam	2	1	p	0.89296
82.59540000000001	0.2	patiner	9	verb	phrase	4	10	match	adam	2	1	p	0.89296
82.79509999999996	0.0	+	9	verb	phrase	4	11	match	adam	2	1	p	0.89296
83.19489999999999	0.0	+	9	verb	phrase	4	12	match	adam	2	1	p	0.89296
85.19469999999998	0.0	ADAM	9	verb	phrase	4	13	match	adam	2	1	p	0.89296
86.14359999999996	0.0	+	9	verb	phrase	4	14	match	adam	2	1	p	0.89296
86.08770000000001	0.0	[response]	9	verb	phrase	4	15	match	adam	2	1	p	0.89296
87.59290000000001	0.0	+	10	noun	phrase	2	1	nomatch	loin	-1	1	y	1.3192
88.14269999999996	0.2	wpn	10	noun	phrase	2	2	nomatch	loin	-1	1	y	1.3192
88.34259999999998	0.0	+	10	noun	phrase	2	3	nomatch	loin	-1	1	y	1.3192
88.7424	0.2	gbpz	10	noun	phrase	2	4	nomatch	loin	-1	1	y	1.3192
88.94229999999996	0.0	+	10	noun	phrase	2	5	nomatch	loin	-1	1	y	1.3192
89.34209999999999	0.2	pqk	10	noun	phrase	2	6	nomatch	loin	-1	1	y	1.3192
89.55940000000001	0.0	+	10	noun	phrase	2	7	nomatch	loin	-1	1	y	1.3192
89.9419	0.2	vieux	10	noun	phrase	2	8	nomatch	loin	-1	1	y	1.3192
90.14179999999996	0.0	+	10	noun	phrase	2	9	nomatch	loin	-1	1	y	1.3192
90.54159999999999	0.2	tablier	10	noun	phrase	2	10	nomatch	loin	-1	1	y	1.3192
90.7415	0.0	+	10	noun	phrase	2	11	nomatch	loin	-1	1	y	1.3192
91.14129999999997	0.0	+	10	noun	phrase	2	12	nomatch	loin	-1	1	y	1.3192
93.14039999999997	0.0	LOIN	10	noun	phrase	2	13	nomatch	loin	-1	1	y	1.3192
94.52309999999997	0.0	+	10	noun	phrase	2	14	nomatch	loin	-1	1	y	1.3192
94.4596	0.0	[response]	10	noun	phrase	2	15	nomatch	loin	-1	1	y	1.3192
111.54869999999997	0.0	+	11	verb	phrase	2	1	nomatch	adam	-1	1	y	2.1037
112.09849999999997	0.2	hswgf	11	verb	phrase	2	2	nomatch	adam	-1	1	y	2.1037
112.29839999999999	0.0	+	11	verb	phrase	2	3	nomatch	adam	-1	1	y	2.1037
112.69820000000001	0.2	vhfx	11	verb	phrase	2	4	nomatch	adam	-1	1	y	2.1037
112.89809999999997	0.0	+	11	verb	phrase	2	5	nomatch	adam	-1	1	y	2.1037
113.29799999999997	0.2	kqfr	11	verb	phrase	2	6	nomatch	adam	-1	1	y	2.1037
113.49859999999998	0.0	+	11	verb	phrase	2	7	nomatch	adam	-1	1	y	2.1037
113.89770000000001	0.2	plus	11	verb	phrase	2	8	nomatch	adam	-1	1	y	2.1037
114.09759999999997	0.0	+	11	verb	phrase	2	9	nomatch	adam	-1	1	y	2.1037
114.4974	0.2	nager	11	verb	phrase	2	10	nomatch	adam	-1	1	y	2.1037
114.69730000000001	0.0	+	11	verb	phrase	2	11	nomatch	adam	-1	1	y	2.1037
115.09709999999998	0.0	+	11	verb	phrase	2	12	nomatch	adam	-1	1	y	2.1037
117.09689999999998	0.0	ADAM	11	verb	phrase	2	13	nomatch	adam	-1	1	y	2.1037
119.2619	0.0	+	11	verb	phrase	2	14	nomatch	adam	-1	1	y	2.1037
119.20059999999998	0.0	[response]	11	verb	phrase	2	15	nomatch	adam	-1	1	y	2.1037
127.4915	0.0	+	12	noun	list	4	1	match	vite	5	1	p	0.9338
128.0413	0.2	flxk	12	noun	list	4	2	match	vite	5	1	p	0.9338
128.24119999999996	0.0	+	12	noun	list	4	3	match	vite	5	1	p	0.9338
128.641	0.2	pour	12	noun	list	4	4	match	vite	5	1	p	0.9338
128.8409	0.0	+	12	noun	list	4	5	match	vite	5	1	p	0.9338
129.24069999999998	0.2	peut	12	noun	list	4	6	match	vite	5	1	p	0.9338
129.4406	0.0	+	12	noun	list	4	7	match	vite	5	1	p	0.9338
129.84039999999996	0.2	clavier	12	noun	list	4	8	match	vite	5	1	p	0.9338
130.04029999999997	0.0	+	12	noun	list	4	9	match	vite	5	1	p	0.9338
130.44019999999998	0.2	vite	12	noun	list	4	10	match	vite	5	1	p	0.9338
130.65689999999998	0.0	+	12	noun	list	4	11	match	vite	5	1	p	0.9338
131.04029999999997	0.0	+	12	noun	list	4	12	match	vite	5	1	p	0.9338
133.03899999999996	0.0	VITE	12	noun	list	4	13	match	vite	5	1	p	0.9338
134.03849999999997	0.0	+	12	noun	list	4	14	match	vite	5	1	p	0.9338
133.97279999999998	0.0	[response]	12	noun	list	4	15	match	vite	5	1	p	0.9338
135.43789999999998	0.0	+	13	noun	list	1	1	match	grenier	5	0	TIMEOUT	-1.0
135.9877	0.2	kmh	13	noun	list	1	2	match	grenier	5	0	TIMEOUT	-1.0
136.1876	0.0	+	13	noun	list	1	3	match	grenier	5	0	TIMEOUT	-1.0
136.58739999999997	0.2	zbkp	13	noun	list	1	4	match	grenier	5	0	TIMEOUT	-1.0
136.7873	0.0	+	13	noun	list	1	5	match	grenier	5	0	TIMEOUT	-1.0
137.18710000000002	0.2	smx	13	noun	list	1	6	match	grenier	5	0	TIMEOUT	-1.0
137.38699999999997	0.0	+	13	noun	list	1	7	match	grenier	5	0	TIMEOUT	-1.0
137.7868	0.2	pntz	13	noun	list	1	8	match	grenier	5	0	TIMEOUT	-1.0
137.9867	0.0	+	13	noun	list	1	9	match	grenier	5	0	TIMEOUT	-1.0
138.38659999999996	0.2	grenier	13	noun	list	1	10	match	grenier	5	0	TIMEOUT	-1.0
138.58699999999996	0.0	+	13	noun	list	1	11	match	grenier	5	0	TIMEOUT	-1.0
138.98639999999997	0.0	+	13	noun	list	1	12	match	grenier	5	0	TIMEOUT	-1.0
140.9854	0.0	GRENIER	13	noun	list	1	13	match	grenier	5	0	TIMEOUT	-1.0
143.4009	0.0	+	14	noun	phrase	2	1	match	sablier	5	1	p	0.78862
143.984	0.2	rlnvdqb	14	noun	phrase	2	2	match	sablier	5	1	p	0.78862
144.18389999999997	0.0	+	14	noun	phrase	2	3	match	sablier	5	1	p	0.78862
144.5837	0.2	hrjc	14	noun	phrase	2	4	match	sablier	5	1	p	0.78862
144.78369999999998	0.0	+	14	noun	phrase	2	5	match	sablier	5	1	p	0.78862
145.18359999999998	0.2	rgnb	14	noun	phrase	2	6	match	sablier	5	1	p	0.78862
145.40009999999998	0.0	+	14	noun	phrase	2	7	match	sablier	5	1	p	0.78862
145.7999	0.2	grand	14	noun	phrase	2	8	match	sablier	5	1	p	0.78862
145.99979999999996	0.0	+	14	noun	phrase	2	9	match	sablier	5	1	p	0.78862
146.3996	0.2	sablier	14	noun	phrase	2	10	match	sablier	5	1	p	0.78862
146.5995	0.0	+	14	noun	phrase	2	11	match	sablier	5	1	p	0.78862
146.99929999999998	0.0	+	14	noun	phrase	2	12	match	sablier	5	1	p	0.78862
148.99839999999998	0.0	SABLIER	14	noun	phrase	2	13	match	sablier	5	1	p	0.78862
149.84799999999998	0.0	+	14	noun	phrase	2	14	match	sablier	5	1	p	0.78862
149.787	0.0	[response]	14	noun	phrase	2	15	match	sablier	5	1	p	0.78862
151.3973	0.0	+	15	noun	phrase	2	1	nomatch	blanc	-1	1	y	1.5562
151.9471	0.2	jtf	15	noun	phrase	2	2	nomatch	blanc	-1	1	y	1.5562
152.14699999999996	0.0	+	15	noun	phrase	2	3	nomatch	blanc	-1	1	y	1.5562
152.5468	0.2	mrlw	15	noun	phrase	2	4	nomatch	blanc	-1	1	y	1.5562
152.7467	0.0	+	15	noun	phrase	2	5	nomatch	blanc	-1	1	y	1.5562
153.14649999999997	0.2	smx	15	noun	phrase	2	6	nomatch	blanc	-1	1	y	1.5562
153.34649999999996	0.0	+	15	noun	phrase	2	7	nomatch	blanc	-1	1	y	1.5562
153.7469	0.2	voilier	15	noun	phrase	2	8	nomatch	blanc	-1	1	y	1.5562
153.9462	0.0	+	15	noun	phrase	2	9	nomatch	blanc	-1	1	y	1.5562
154.34599999999998	0.2	noir	15	noun	phrase	2	10	nomatch	blanc	-1	1	y	1.5562
154.5459	0.0	+	15	noun	phrase	2	11	nomatch	blanc	-1	1	y	1.5562
154.94569999999996	0.0	+	15	noun	phrase	2	12	nomatch	blanc	-1	1	y	1.5562
156.94480000000001	0.0	BLANC	15	noun	phrase	2	13	nomatch	blanc	-1	1	y	1.5562
158.56069999999997	0.0	+	15	noun	phrase	2	14	nomatch	blanc	-1	1	y	1.5562
158.501	0.0	[response]	15	noun	phrase	2	15	nomatch	blanc	-1	1	y	1.5562
159.34369999999998	0.0	+	16	verb	phrase	3	1	nomatch	plus	-1	1	y	2.1725
159.8935	0.2	mgxhpcr	16	verb	phrase	3	2	nomatch	plus	-1	1	y	2.1725
160.0934	0.0	+	16	verb	phrase	3	3	nomatch	plus	-1	1	y	2.1725
160.49319999999997	0.2	dxcb	16	verb	phrase	3	4	nomatch	plus	-1	1	y	2.1725
160.6931	0.0	+	16	verb	phrase	3	5	nomatch	plus	-1	1	y	2.1725
161.09290000000001	0.2	doit	16	verb	phrase	3	6	nomatch	plus	-1	1	y	2.1725
161.29279999999997	0.0	+	16	verb	phrase	3	7	nomatch	plus	-1	1	y	2.1725
161.69269999999997	0.2	beaucoup	16	verb	phrase	3	8	nomatch	plus	-1	1	y	2.1725
161.8926	0.0	+	16	verb	phrase	3	9	nomatch	plus	-1	1	y	2.1725
162.29299999999998	0.2	rouler	16	verb	phrase	3	10	nomatch	plus	-1	1	y	2.1725
162.49269999999999	0.0	+	16	verb	phrase	3	11	nomatch	plus	-1	1	y	2.1725
162.9095	0.0	+	16	verb	phrase	3	12	nomatch	plus	-1	1	y	2.1725
164.8912	0.0	PLUS	16	verb	phrase	3	13	nomatch	plus	-1	1	y	2.1725
167.1235	0.0	+	16	verb	phrase	3	14	nomatch	plus	-1	1	y	2.1725
167.06370000000007	0.0	[response]	16	verb	phrase	3	15	nomatch	plus	-1	1	y	2.1725
167.29009999999997	0.0	+	17	noun	list	4	1	match	voilier	5	1	p	0.83035
167.83989999999997	0.2	vcjlpr	17	noun	list	4	2	match	voilier	5	1	p	0.83035
168.03979999999999	0.0	+	17	noun	list	4	3	match	voilier	5	1	p	0.83035
168.4396	0.2	paul	17	noun	list	4	4	match	voilier	5	1	p	0.83035
168.63949999999997	0.0	+	17	noun	list	4	5	match	voilier	5	1	p	0.83035
169.0393	0.2	mon	17	noun	list	4	6	match	voilier	5	1	p	0.83035
169.2392	0.0	+	17	noun	list	4	7	match	voilier	5	1	p	0.83035
169.6391	0.2	mieux	17	noun	list	4	8	match	voilier	5	1	p	0.83035
169.83899999999997	0.0	+	17	noun	list	4	9	match	voilier	5	1	p	0.83035
170.2388	0.2	voilier	17	noun	list	4	10	match	voilier	5	1	p	0.83035
170.4387	0.0	+	17	noun	list	4	11	match	voilier	5	1	p	0.83035
170.83919999999998	0.0	+	17	noun	list	4	12	match	voilier	5	1	p	0.83035
172.83759999999998	0.0	VOILIER	17	noun	list	4	13	match	voilier	5	1	p	0.83035
173.7205	0.0	+	17	noun	list	4	14	match	voilier	5	1	p	0.83035
173.66799999999998	0.0	[response]	17	noun	list	4	15	match	voilier	5	1	p	0.83035
183.24960000000002	0.0	+	18	noun	list	1	1	nomatch	loin	-1	1	y	1.2609
183.7993	0.2	crwqm	18	noun	list	1	2	nomatch	loin	-1	1	y	1.2609
183.9992	0.0	+	18	noun	list	1	3	nomatch	loin	-1	1	y	1.2609
184.3991	0.2	hrjc	18	noun	list	1	4	nomatch	loin	-1	1	y	1.2609
184.5993	0.0	+	18	noun	list	1	5	nomatch	loin	-1	1	y	1.2609
184.9988	0.2	tk	18	noun	list	1	6	nomatch	loin	-1	1	y	1.2609
185.1987	0.0	+	18	noun	list	1	7	nomatch	loin	-1	1	y	1.2609
185.59849999999997	0.2	ftdsmc	18	noun	list	1	8	nomatch	loin	-1	1	y	1.2609
185.7984	0.0	+	18	noun	list	1	9	nomatch	loin	-1	1	y	1.2609
186.1982	0.2	ainsi	18	noun	list	1	10	nomatch	loin	-1	1	y	1.2609
186.39809999999997	0.0	+	18	noun	list	1	11	nomatch	loin	-1	1	y	1.2609
186.7979	0.0	+	18	noun	list	1	12	nomatch	loin	-1	1	y	1.2609
188.797	0.0	LOIN	18	noun	list	1	13	nomatch	loin	-1	1	y	1.2609
190.1131	0.0	+	18	noun	list	1	14	nomatch	loin	-1	1	y	1.2609
190.0579	0.0	[response]	18	noun	list	1	15	nomatch	loin	-1	1	y	1.2609
191.196	0.0	+	19	noun	phrase	4	1	match	son	3	1	p	2.1422
191.74569999999997	0.2	qnfbhrp	19	noun	phrase	4	2	match	son	3	1	p	2.1422
191.94559999999998	0.0	+	19	noun	phrase	4	3	match	son	3	1	p	2.1422
192.3454	0.2	pour	19	noun	phrase	4	4	match	son	3	1	p	2.1422
192.54529999999997	0.0	+	19	noun	phrase	4	5	match	son	3	1	p	2.1422
192.94519999999997	0.2	son	19	noun	phrase	4	6	match	son	3	1	p	2.1422
193.14509999999999	0.0	+	19	noun	phrase	4	7	match	son	3	1	p	2.1422
193.5449	0.2	voilier	19	noun	phrase	4	8	match	son	3	1	p	2.1422
193.74479999999997	0.0	+	19	noun	phrase	4	9	match	son	3	1	p	2.1422
194.1446	0.2	rouge	19	noun	phrase	4	10	match	son	3	1	p	2.1422
194.3445	0.0	+	19	noun	phrase	4	11	match	son	3	1	p	2.1422
194.74429999999998	0.0	+	19	noun	phrase	4	12	match	son	3	1	p	2.1422
196.744	0.0	SON	19	noun	phrase	4	13	match	son	3	1	p	2.1422
198.9424	0.0	+	19	noun	phrase	4	14	match	son	3	1	p	2.1422
198.8862	0.0	[response]	19	noun	phrase	4	15	match	son	3	1	p	2.1422
199.1423	0.0	+	20	verb	list	3	1	nomatch	petit	-1	1	y	0.9551
199.6921	0.2	glwv	20	verb	list	3	2	nomatch	petit	-1	1	y	0.9551
199.89199999999997	0.0	+	20	verb	list	3	3	nomatch	petit	-1	1	y	0.9551
200.2918	0.2	dzq	20	verb	list	3	4	nomatch	petit	-1	1	y	0.9551
200.4917	0.0	+	20	verb	list	3	5	nomatch	petit	-1	1	y	0.9551
200.8916	0.2	peut	20	verb	list	3	6	nomatch	petit	-1	1	y	0.9551
201.0916	0.0	+	20	verb	list	3	7	nomatch	petit	-1	1	y	0.9551
201.4913	0.2	nouveau	20	verb	list	3	8	nomatch	petit	-1	1	y	0.9551
201.6912	0.0	+	20	verb	list	3	9	nomatch	petit	-1	1	y	0.9551
202.09099999999998	0.2	patiner	20	verb	list	3	10	nomatch	petit	-1	1	y	0.9551
202.2909	0.0	+	20	verb	list	3	11	nomatch	petit	-1	1	y	0.9551
202.69069999999996	0.0	+	20	verb	list	3	12	nomatch	petit	-1	1	y	0.9551
204.68979999999996	0.0	PETIT	20	verb	list	3	13	nomatch	petit	-1	1	y	0.9551
205.706	0.0	+	20	verb	list	3	14	nomatch	petit	-1	1	y	0.9551
205.64489999999998	0.0	[response]	20	verb	list	3	15	nomatch	petit	-1	1	y	0.9551
207.0887	0.0	+	21	verb	list	4	1	nomatch	doit	-1	1	y	1.3783000000000003
207.6385	0.2	sdlvx	21	verb	list	4	2	nomatch	doit	-1	1	y	1.3783000000000003
207.8384	0.0	+	21	verb	list	4	3	nomatch	doit	-1	1	y	1.3783000000000003
208.23819999999998	0.2	jade	21	verb	list	4	4	nomatch	doit	-1	1	y	1.3783000000000003
208.4381	0.0	+	21	verb	list	4	5	nomatch	doit	-1	1	y	1.3783000000000003
208.83849999999998	0.2	mon	21	verb	list	4	6	nomatch	doit	-1	1	y	1.3783000000000003
209.03829999999996	0.0	+	21	verb	list	4	7	nomatch	doit	-1	1	y	1.3783000000000003
209.43769999999998	0.2	voyager	21	verb	list	4	8	nomatch	doit	-1	1	y	1.3783000000000003
209.6376	0.0	+	21	verb	list	4	9	nomatch	doit	-1	1	y	1.3783000000000003
210.03810000000001	0.2	bleu	21	verb	list	4	10	nomatch	doit	-1	1	y	1.3783000000000003
210.23729999999998	0.0	+	21	verb	list	4	11	nomatch	doit	-1	1	y	1.3783000000000003
210.6371	0.0	+	21	verb	list	4	12	nomatch	doit	-1	1	y	1.3783000000000003
212.6362	0.0	DOIT	21	verb	list	4	13	nomatch	doit	-1	1	y	1.3783000000000003
214.0689	0.0	+	21	verb	list	4	14	nomatch	doit	-1	1	y	1.3783000000000003
214.01449999999997	0.0	[response]	21	verb	list	4	15	nomatch	doit	-1	1	y	1.3783000000000003
215.03509999999997	0.0	+	22	verb	phrase	1	1	nomatch	grand	-1	1	y	1.0112
215.58489999999998	0.2	lksvmqp	22	verb	phrase	1	2	nomatch	grand	-1	1	y	1.0112
215.7848	0.0	+	22	verb	phrase	1	3	nomatch	grand	-1	1	y	1.0112
216.18459999999996	0.2	mkxz	22	verb	phrase	1	4	nomatch	grand	-1	1	y	1.0112
216.38449999999997	0.0	+	22	verb	phrase	1	5	nomatch	grand	-1	1	y	1.0112
216.78439999999998	0.2	tk	22	verb	phrase	1	6	nomatch	grand	-1	1	y	1.0112
216.9843	0.0	+	22	verb	phrase	1	7	nomatch	grand	-1	1	y	1.0112
217.38409999999996	0.2	lgqmd	22	verb	phrase	1	8	nomatch	grand	-1	1	y	1.0112
217.58399999999997	0.0	+	22	verb	phrase	1	9	nomatch	grand	-1	1	y	1.0112
217.98389999999998	0.2	galoper	22	verb	phrase	1	10	nomatch	grand	-1	1	y	1.0112
218.18449999999999	0.0	+	22	verb	phrase	1	11	nomatch	grand	-1	1	y	1.0112
218.58379999999997	0.0	+	22	verb	phrase	1	12	nomatch	grand	-1	1	y	1.0112
220.5993	0.0	GRAND	22	verb	phrase	1	13	nomatch	grand	-1	1	y	1.0112
221.7159	0.0	+	22	verb	phrase	1	14	nomatch	grand	-1	1	y	1.0112
221.61049999999997	0.0	[response]	22	verb	phrase	1	15	nomatch	grand	-1	1	y	1.0112
222.99819999999997	0.0	+	23	noun	phrase	1	1	nomatch	sablier	-1	1	y	1.2105000000000001
223.5479	0.2	qkbg	23	noun	phrase	1	2	nomatch	sablier	-1	1	y	1.2105000000000001
223.7479	0.0	+	23	noun	phrase	1	3	nomatch	sablier	-1	1	y	1.2105000000000001
224.14770000000001	0.2	dzq	23	noun	phrase	1	4	nomatch	sablier	-1	1	y	1.2105000000000001
224.34759999999997	0.0	+	23	noun	phrase	1	5	nomatch	sablier	-1	1	y	1.2105000000000001
224.7474	0.2	smx	23	noun	phrase	1	6	nomatch	sablier	-1	1	y	1.2105000000000001
224.9473	0.0	+	23	noun	phrase	1	7	nomatch	sablier	-1	1	y	1.2105000000000001
225.34709999999998	0.2	nbqk	23	noun	phrase	1	8	nomatch	sablier	-1	1	y	1.2105000000000001
225.54729999999998	0.0	+	23	noun	phrase	1	9	nomatch	sablier	-1	1	y	1.2105000000000001
225.9469	0.2	grenier	23	noun	phrase	1	10	nomatch	sablier	-1	1	y	1.2105000000000001
226.14739999999998	0.0	+	23	noun	phrase	1	11	nomatch	sablier	-1	1	y	1.2105000000000001
226.54659999999998	0.0	+	23	noun	phrase	1	12	nomatch	sablier	-1	1	y	1.2105000000000001
228.5458	0.0	SABLIER	23	noun	phrase	1	13	nomatch	sablier	-1	1	y	1.2105000000000001
229.81179999999998	0.0	+	23	noun	phrase	1	14	nomatch	sablier	-1	1	y	1.2105000000000001
229.75620000000006	0.0	[response]	23	noun	phrase	1	15	nomatch	sablier	-1	1	y	1.2105000000000001
230.9446	0.0	+	24	noun	list	3	1	nomatch	casier	-1	0	p	1.6672
231.49429999999998	0.2	mztpn	24	noun	list	3	2	nomatch	casier	-1	0	p	1.6672
231.69429999999997	0.0	+	24	noun	list	3	3	nomatch	casier	-1	0	p	1.6672
232.0941	0.2	dxcb	24	noun	list	3	4	nomatch	casier	-1	0	p	1.6672
232.294	0.0	+	24	noun	list	3	5	nomatch	casier	-1	0	p	1.6672
232.69429999999997	0.2	mon	24	noun	list	3	6	nomatch	casier	-1	0	p	1.6672
232.8937	0.0	+	24	noun	list	3	7	nomatch	casier	-1	0	p	1.6672
233.29349999999997	0.2	trop	24	noun	list	3	8	nomatch	casier	-1	0	p	1.6672
233.494	0.0	+	24	noun	list	3	9	nomatch	casier	-1	0	p	1.6672
233.89359999999996	0.2	clavier	24	noun	list	3	10	nomatch	casier	-1	0	p	1.6672
234.0932	0.0	+	24	noun	list	3	11	nomatch	casier	-1	0	p	1.6672
234.49299999999997	0.0	+	24	noun	list	3	12	nomatch	casier	-1	0	p	1.6672
236.49209999999997	0.0	CASIER	24	noun	list	3	13	nomatch	casier	-1	0	p	1.6672
238.22459999999998	0.0	+	24	noun	list	3	14	nomatch	casier	-1	0	p	1.6672
238.1593	0.0	[response]	24	noun	list	3	15	nomatch	casier	-1	0	p	1.6672
238.891	0.0	+	25	noun	list	1	1	match	rocher	5	1	p	0.94765
239.44069999999996	0.2	mxhb	25	noun	list	1	2	match	rocher	5	1	p	0.94765
239.64059999999998	0.0	+	25	noun	list	1	3	match	rocher	5	1	p	0.94765
240.04049999999998	0.2	glv	25	noun	list	1	4	match	rocher	5	1	p	0.94765
240.2404	0.0	+	25	noun	list	1	5	match	rocher	5	1	p	0.94765
240.6575	0.2	pqk	25	noun	list	1	6	match	rocher	5	1	p	0.94765
240.8407	0.0	+	25	noun	list	1	7	match	rocher	5	1	p	0.94765
241.24029999999996	0.2	njxzb	25	noun	list	1	8	match	rocher	5	1	p	0.94765
241.4399	0.0	+	25	noun	list	1	9	match	rocher	5	1	p	0.94765
241.8396	0.2	rocher	25	noun	list	1	10	match	rocher	5	1	p	0.94765
242.03959999999998	0.0	+	25	noun	list	1	11	match	rocher	5	1	p	0.94765
242.4394	0.0	+	25	noun	list	1	12	match	rocher	5	1	p	0.94765
244.4387	0.0	ROCHER	25	noun	list	1	13	match	rocher	5	1	p	0.94765
245.43799999999996	0.0	+	25	noun	list	1	14	match	rocher	5	1	p	0.94765
245.38629999999998	0.0	[response]	25	noun	list	1	15	match	rocher	5	1	p	0.94765
246.83759999999998	0.0	+	26	noun	list	1	1	nomatch	peut	-1	1	y	1.3528
247.3876	0.2	cmj	26	noun	list	1	2	nomatch	peut	-1	1	y	1.3528
247.60439999999997	0.0	+	26	noun	list	1	3	nomatch	peut	-1	1	y	1.3528
247.98749999999998	0.2	zbkp	26	noun	list	1	4	nomatch	peut	-1	1	y	1.3528
248.1874	0.0	+	26	noun	list	1	5	nomatch	peut	-1	1	y	1.3528
248.58669999999998	0.2	smx	26	noun	list	1	6	nomatch	peut	-1	1	y	1.3528
248.78649999999996	0.0	+	26	noun	list	1	7	nomatch	peut	-1	1	y	1.3528
249.1863	0.2	kldhfxr	26	noun	list	1	8	nomatch	peut	-1	1	y	1.3528
249.3862	0.0	+	26	noun	list	1	9	nomatch	peut	-1	1	y	1.3528
249.78599999999997	0.2	mieux	26	noun	list	1	10	nomatch	peut	-1	1	y	1.3528
249.98599999999996	0.0	+	26	noun	list	1	11	nomatch	peut	-1	1	y	1.3528
250.3858	0.0	+	26	noun	list	1	12	nomatch	peut	-1	1	y	1.3528
252.3849	0.0	PEUT	26	noun	list	1	13	nomatch	peut	-1	1	y	1.3528
253.80089999999998	0.0	+	26	noun	list	1	14	nomatch	peut	-1	1	y	1.3528
253.7377	0.0	[response]	26	noun	list	1	15	nomatch	peut	-1	1	y	1.3528
254.7838	0.0	+	27	noun	phrase	1	1	match	sablier	5	1	p	0.82093
255.3337	0.2	jpb	27	noun	phrase	1	2	match	sablier	5	1	p	0.82093
255.55010000000001	0.0	+	27	noun	phrase	1	3	match	sablier	5	1	p	0.82093
255.94989999999999	0.2	hrjc	27	noun	phrase	1	4	match	sablier	5	1	p	0.82093
256.1498	0.0	+	27	noun	phrase	1	5	match	sablier	5	1	p	0.82093
256.54970000000003	0.2	rgnb	27	noun	phrase	1	6	match	sablier	5	1	p	0.82093
256.7496	0.0	+	27	noun	phrase	1	7	match	sablier	5	1	p	0.82093
257.1494	0.2	psjz	27	noun	phrase	1	8	match	sablier	5	1	p	0.82093
257.3497	0.0	+	27	noun	phrase	1	9	match	sablier	5	1	p	0.82093
257.74979999999994	0.2	sablier	27	noun	phrase	1	10	match	sablier	5	1	p	0.82093
257.94899999999996	0.0	+	27	noun	phrase	1	11	match	sablier	5	1	p	0.82093
258.3488	0.0	+	27	noun	phrase	1	12	match	sablier	5	1	p	0.82093
260.3479	0.0	SABLIER	27	noun	phrase	1	13	match	sablier	5	1	p	0.82093
261.2309	0.0	+	27	noun	phrase	1	14	match	sablier	5	1	p	0.82093
261.1689	0.0	[response]	27	noun	phrase	1	15	match	sablier	5	1	p	0.82093
262.7469	0.0	+	28	noun	list	4	1	match	marc	2	1	p	1.0823
263.2966	0.2	fvk	28	noun	list	4	2	match	marc	2	1	p	1.0823
263.49649999999997	0.0	+	28	noun	list	4	3	match	marc	2	1	p	1.0823
263.8963	0.2	marc	28	noun	list	4	4	match	marc	2	1	p	1.0823
264.09619999999995	0.0	+	28	noun	list	4	5	match	marc	2	1	p	1.0823
264.496	0.2	mon	28	noun	list	4	6	match	marc	2	1	p	1.0823
264.696	0.0	+	28	noun	list	4	7	match	marc	2	1	p	1.0823
265.096	0.2	trop	28	noun	list	4	8	match	marc	2	1	p	1.0823
265.2957	0.0	+	28	noun	list	4	9	match	marc	2	1	p	1.0823
265.69550000000004	0.2	clavier	28	noun	list	4	10	match	marc	2	1	p	1.0823
265.8954	0.0	+	28	noun	list	4	11	match	marc	2	1	p	1.0823
266.2952	0.0	+	28	noun	list	4	12	match	marc	2	1	p	1.0823
268.3117	0.0	MARC	28	noun	list	4	13	match	marc	2	1	p	1.0823
269.4605	0.0	+	28	noun	list	4	14	match	marc	2	1	p	1.0823
269.394	0.0	[response]	28	noun	list	4	15	match	marc	2	1	p	1.0823
278.77340000000004	0.0	+	29	noun	phrase	1	1	match	bleu	5	1	p	0.8651300000000001
279.23939999999993	0.2	whcmtgp	29	noun	phrase	1	2	match	bleu	5	1	p	0.8651300000000001
279.4393	0.0	+	29	noun	phrase	1	3	match	bleu	5	1	p	0.8651300000000001
279.83910000000003	0.2	dsmq	29	noun	phrase	1	4	match	bleu	5	1	p	0.8651300000000001
280.039	0.0	+	29	noun	phrase	1	5	match	bleu	5	1	p	0.8651300000000001
280.4388	0.2	pqk	29	noun	phrase	1	6	match	bleu	5	1	p	0.8651300000000001
280.6387	0.0	+	29	noun	phrase	1	7	match	bleu	5	1	p	0.8651300000000001
281.0386	0.2	tsjpbd	29	noun	phrase	1	8	match	bleu	5	1	p	0.8651300000000001
281.23839999999996	0.0	+	29	noun	phrase	1	9	match	bleu	5	1	p	0.8651300000000001
281.63829999999996	0.2	bleu	29	noun	phrase	1	10	match	bleu	5	1	p	0.8651300000000001
281.83820000000003	0.0	+	29	noun	phrase	1	11	match	bleu	5	1	p	0.8651300000000001
282.23799999999994	0.0	+	29	noun	phrase	1	12	match	bleu	5	1	p	0.8651300000000001
284.23709999999994	0.0	BLEU	29	noun	phrase	1	13	match	bleu	5	1	p	0.8651300000000001
285.15329999999994	0.0	+	29	noun	phrase	1	14	match	bleu	5	1	p	0.8651300000000001
285.10220000000004	0.0	[response]	29	noun	phrase	1	15	match	bleu	5	1	p	0.8651300000000001
294.649	0.0	+	30	verb	list	1	1	nomatch	rouge	-1	0	p	2.1341
295.1988	0.2	vxrhk	30	verb	list	1	2	nomatch	rouge	-1	0	p	2.1341
295.39869999999996	0.0	+	30	verb	list	1	3	nomatch	rouge	-1	0	p	2.1341
295.7985	0.2	gbpz	30	verb	list	1	4	nomatch	rouge	-1	0	p	2.1341
296.01519999999994	0.0	+	30	verb	list	1	5	nomatch	rouge	-1	0	p	2.1341
296.3989	0.2	kqfr	30	verb	list	1	6	nomatch	rouge	-1	0	p	2.1341
296.61529999999993	0.0	+	30	verb	list	1	7	nomatch	rouge	-1	0	p	2.1341
296.9986	0.2	gvnlz	30	verb	list	1	8	nomatch	rouge	-1	0	p	2.1341
297.1983	0.0	+	30	verb	list	1	9	nomatch	rouge	-1	0	p	2.1341
297.59770000000003	0.2	rouler	30	verb	list	1	10	nomatch	rouge	-1	0	p	2.1341
297.7976	0.0	+	30	verb	list	1	11	nomatch	rouge	-1	0	p	2.1341
298.1974	0.0	+	30	verb	list	1	12	nomatch	rouge	-1	0	p	2.1341
300.21389999999997	0.0	ROUGE	30	verb	list	1	13	nomatch	rouge	-1	0	p	2.1341
302.4122	0.0	+	30	verb	list	1	14	nomatch	rouge	-1	0	p	2.1341
302.3479	0.0	[response]	30	verb	list	1	15	nomatch	rouge	-1	0	p	2.1341
302.59540000000004	0.0	+	31	verb	list	3	1	match	blanc	5	1	p	0.8599
303.14519999999993	0.2	cwfdqxt	31	verb	list	3	2	match	blanc	5	1	p	0.8599
303.3451	0.0	+	31	verb	list	3	3	match	blanc	5	1	p	0.8599
303.74490000000003	0.2	vhfx	31	verb	list	3	4	match	blanc	5	1	p	0.8599
303.9448	0.0	+	31	verb	list	3	5	match	blanc	5	1	p	0.8599
304.3446	0.2	leur	31	verb	list	3	6	match	blanc	5	1	p	0.8599
304.54459999999995	0.0	+	31	verb	list	3	7	match	blanc	5	1	p	0.8599
304.9444	0.2	patiner	31	verb	list	3	8	match	blanc	5	1	p	0.8599
305.14430000000004	0.0	+	31	verb	list	3	9	match	blanc	5	1	p	0.8599
305.54409999999996	0.2	blanc	31	verb	list	3	10	match	blanc	5	1	p	0.8599
305.7446	0.0	+	31	verb	list	3	11	match	blanc	5	1	p	0.8599
306.16059999999993	0.0	+	31	verb	list	3	12	match	blanc	5	1	p	0.8599
308.14289999999994	0.0	BLANC	31	verb	list	3	13	match	blanc	5	1	p	0.8599
309.05920000000003	0.0	+	31	verb	list	3	14	match	blanc	5	1	p	0.8599
309.0028	0.0	[response]	31	verb	list	3	15	match	blanc	5	1	p	0.8599
310.54179999999997	0.0	+	32	noun	list	2	1	match	plus	4	1	p	1.2579
311.09159999999997	0.2	rdvct	32	noun	list	2	2	match	plus	4	1	p	1.2579
311.29150000000004	0.0	+	32	noun	list	2	3	match	plus	4	1	p	1.2579
311.69129999999996	0.2	glv	32	noun	list	2	4	match	plus	4	1	p	1.2579
311.8912	0.0	+	32	noun	list	2	5	match	plus	4	1	p	1.2579
312.29099999999994	0.2	smx	32	noun	list	2	6	match	plus	4	1	p	1.2579
312.491	0.0	+	32	noun	list	2	7	match	plus	4	1	p	1.2579
312.8909	0.2	plus	32	noun	list	2	8	match	plus	4	1	p	1.2579
313.09069999999997	0.0	+	32	noun	list	2	9	match	plus	4	1	p	1.2579
313.491	0.2	clavier	32	noun	list	2	10	match	plus	4	1	p	1.2579
313.69039999999995	0.0	+	32	noun	list	2	11	match	plus	4	1	p	1.2579
314.09029999999996	0.0	+	32	noun	list	2	12	match	plus	4	1	p	1.2579
316.0893	0.0	PLUS	32	noun	list	2	13	match	plus	4	1	p	1.2579
317.4054	0.0	+	32	noun	list	2	14	match	plus	4	1	p	1.2579
317.34720000000004	0.0	[response]	32	noun	list	2	15	match	plus	4	1	p	1.2579
318.4882	0.0	+	33	verb	list	1	1	match	patiner	5	1	p	0.95805
319.038	0.2	zfnqsm	33	verb	list	1	2	match	patiner	5	1	p	0.95805
319.23789999999997	0.0	+	33	verb	list	1	3	match	patiner	5	1	p	0.95805
319.6377	0.2	tfbq	33	verb	list	1	4	match	patiner	5	1	p	0.95805
319.83759999999995	0.0	+	33	verb	list	1	5	match	patiner	5	1	p	0.95805
320.2374	0.2	tk	33	verb	list	1	6	match	patiner	5	1	p	0.95805
320.4374	0.0	+	33	verb	list	1	7	match	patiner	5	1	p	0.95805
320.83719999999994	0.2	svcqdlg	33	verb	list	1	8	match	patiner	5	1	p	0.95805
321.0371	0.0	+	33	verb	list	1	9	match	patiner	5	1	p	0.95805
321.43690000000004	0.2	patiner	33	verb	list	1	10	match	patiner	5	1	p	0.95805
321.6368	0.0	+	33	verb	list	1	11	match	patiner	5	1	p	0.95805
322.0366	0.0	+	33	verb	list	1	12	match	patiner	5	1	p	0.95805
324.0357	0.0	PATINER	33	verb	list	1	13	match	patiner	5	1	p	0.95805
325.05189999999993	0.0	+	33	verb	list	1	14	match	patiner	5	1	p	0.95805
324.99379999999996	0.0	[response]	33	verb	list	1	15	match	patiner	5	1	p	0.95805
326.43459999999993	0.0	+	34	noun	phrase	1	1	match	clavier	5	1	p	0.72945
326.98439999999994	0.2	qskpjgn	34	noun	phrase	1	2	match	clavier	5	1	p	0.72945
327.1843	0.0	+	34	noun	phrase	1	3	match	clavier	5	1	p	0.72945
327.58410000000003	0.2	hrjc	34	noun	phrase	1	4	match	clavier	5	1	p	0.72945
327.784	0.0	+	34	noun	phrase	1	5	match	clavier	5	1	p	0.72945
328.1838	0.2	smx	34	noun	phrase	1	6	match	clavier	5	1	p	0.72945
328.3837	0.0	+	34	noun	phrase	1	7	match	clavier	5	1	p	0.72945
328.7836	0.2	nrtjf	34	noun	phrase	1	8	match	clavier	5	1	p	0.72945
329.00030000000004	0.0	+	34	noun	phrase	1	9	match	clavier	5	1	p	0.72945
329.40059999999994	0.2	clavier	34	noun	phrase	1	10	match	clavier	5	1	p	0.72945
329.59989999999993	0.0	+	34	noun	phrase	1	11	match	clavier	5	1	p	0.72945
329.99969999999996	0.0	+	34	noun	phrase	1	12	match	clavier	5	1	p	0.72945
331.99929999999995	0.0	CLAVIER	34	noun	phrase	1	13	match	clavier	5	1	p	0.72945
332.81539999999995	0.0	+	34	noun	phrase	1	14	match	clavier	5	1	p	0.72945
332.7288	0.0	[response]	34	noun	phrase	1	15	match	clavier	5	1	p	0.72945
334.3977	0.0	+	35	noun	phrase	4	1	nomatch	galoper	-1	1	y	1.588
334.9474	0.2	rsxjgpv	35	noun	phrase	4	2	nomatch	galoper	-1	1	y	1.588
335.1473	0.0	+	35	noun	phrase	4	3	nomatch	galoper	-1	1	y	1.588
335.5472	0.2	sans	35	noun	phrase	4	4	nomatch	galoper	-1	1	y	1.588
335.74709999999993	0.0	+	35	noun	phrase	4	5	nomatch	galoper	-1	1	y	1.588
336.14689999999996	0.2	son	35	noun	phrase	4	6	nomatch	galoper	-1	1	y	1.588
336.3467999999999	0.0	+	35	noun	phrase	4	7	nomatch	galoper	-1	1	y	1.588
336.7473	0.2	petit	35	noun	phrase	4	8	nomatch	galoper	-1	1	y	1.588
336.94719999999995	0.0	+	35	noun	phrase	4	9	nomatch	galoper	-1	1	y	1.588
337.347	0.2	rocher	35	noun	phrase	4	10	nomatch	galoper	-1	1	y	1.588
337.5464999999999	0.0	+	35	noun	phrase	4	11	nomatch	galoper	-1	1	y	1.588
337.94669999999996	0.0	+	35	noun	phrase	4	12	nomatch	galoper	-1	1	y	1.588
339.9452	0.0	GALOPER	35	noun	phrase	4	13	nomatch	galoper	-1	1	y	1.588
341.59439999999995	0.0	+	35	noun	phrase	4	14	nomatch	galoper	-1	1	y	1.588
341.53319999999997	0.0	[response]	35	noun	phrase	4	15	nomatch	galoper	-1	1	y	1.588
350.3404999999999	0.0	+	36	noun	list	1	1	nomatch	trop	-1	1	y	1.2194
350.8904	0.2	bhpq	36	noun	list	1	2	nomatch	trop	-1	1	y	1.2194
351.0902	0.0	+	36	noun	list	1	3	nomatch	trop	-1	1	y	1.2194
351.49029999999993	0.2	gjml	36	noun	list	1	4	nomatch	trop	-1	1	y	1.2194
351.6898	0.0	+	36	noun	list	1	5	nomatch	trop	-1	1	y	1.2194
352.0897	0.2	fhgp	36	noun	list	1	6	nomatch	trop	-1	1	y	1.2194
352.28959999999995	0.0	+	36	noun	list	1	7	nomatch	trop	-1	1	y	1.2194
352.6894	0.2	lgqmd	36	noun	list	1	8	nomatch	trop	-1	1	y	1.2194
352.88929999999993	0.0	+	36	noun	list	1	9	nomatch	trop	-1	1	y	1.2194
353.28909999999996	0.2	tablier	36	noun	list	1	10	nomatch	trop	-1	1	y	1.2194
353.4889999999999	0.0	+	36	noun	list	1	11	nomatch	trop	-1	1	y	1.2194
353.88879999999995	0.0	+	36	noun	list	1	12	nomatch	trop	-1	1	y	1.2194
355.8879999999999	0.0	TROP	36	noun	list	1	13	nomatch	trop	-1	1	y	1.2194
357.1707	0.0	+	36	noun	list	1	14	nomatch	trop	-1	1	y	1.2194
357.1074	0.0	[response]	36	noun	list	1	15	nomatch	trop	-1	1	y	1.2194
358.28689999999995	0.0	+	37	noun	list	1	1	match	plus	5	1	p	0.6976
358.8366	0.2	tkxcm	37	noun	list	1	2	match	plus	5	1	p	0.6976
359.03649999999993	0.0	+	37	noun	list	1	3	match	plus	5	1	p	0.6976
359.43629999999996	0.2	vhfx	37	noun	list	1	4	match	plus	5	1	p	0.6976
359.6361999999999	0.0	+	37	noun	list	1	5	match	plus	5	1	p	0.6976
360.0360999999999	0.2	smx	37	noun	list	1	6	match	plus	5	1	p	0.6976
360.236	0.0	+	37	noun	list	1	7	match	plus	5	1	p	0.6976
360.63649999999996	0.2	tsjpbd	37	noun	list	1	8	match	plus	5	1	p	0.6976
360.85299999999995	0.0	+	37	noun	list	1	9	match	plus	5	1	p	0.6976
361.2357999999999	0.2	plus	37	noun	list	1	10	match	plus	5	1	p	0.6976
361.4357	0.0	+	37	noun	list	1	11	match	plus	5	1	p	0.6976
361.8358999999999	0.0	+	37	noun	list	1	12	match	plus	5	1	p	0.6976
363.8348	0.0	PLUS	37	noun	list	1	13	match	plus	5	1	p	0.6976
364.58399999999995	0.0	+	37	noun	list	1	14	match	plus	5	1	p	0.6976
364.53239999999994	0.0	[response]	37	noun	list	1	15	match	plus	5	1	p	0.6976
366.2498999999999	0.0	+	38	verb	list	3	1	match	voyager	4	1	p	0.83896
366.7996999999999	0.2	grzcw	38	verb	list	3	2	match	voyager	4	1	p	0.83896
366.9996	0.0	+	38	verb	list	3	3	match	voyager	4	1	p	0.83896
367.3994	0.2	dvjc	38	verb	list	3	4	match	voyager	4	1	p	0.83896
367.59979999999996	0.0	+	38	verb	list	3	5	match	voyager	4	1	p	0.83896
367.9992	0.2	son	38	verb	list	3	6	match	voyager	4	1	p	0.83896
368.19899999999996	0.0	+	38	verb	list	3	7	match	voyager	4	1	p	0.83896
368.5988	0.2	voyager	38	verb	list	3	8	match	voyager	4	1	p	0.83896
368.799	0.0	+	38	verb	list	3	9	match	voyager	4	1	p	0.83896
369.19859999999994	0.2	vert	38	verb	list	3	10	match	voyager	4	1	p	0.83896
369.3985	0.0	+	38	verb	list	3	11	match	voyager	4	1	p	0.83896
369.7982999999999	0.0	+	38	verb	list	3	12	match	voyager	4	1	p	0.83896
371.7973999999999	0.0	VOYAGER	38	verb	list	3	13	match	voyager	4	1	p	0.83896
372.71439999999996	0.0	+	38	verb	list	3	14	match	voyager	4	1	p	0.83896
372.6364	0.0	[response]	38	verb	list	3	15	match	voyager	4	1	p	0.83896
374.19629999999995	0.0	+	39	verb	list	3	1	match	noir	5	1	p	0.76327
374.74609999999996	0.2	wcjz	39	verb	list	3	2	match	noir	5	1	p	0.76327
374.9459999999999	0.0	+	39	verb	list	3	3	match	noir	5	1	p	0.76327
375.34579999999994	0.2	mkxz	39	verb	list	3	4	match	noir	5	1	p	0.76327
375.5458	0.0	+	39	verb	list	3	5	match	noir	5	1	p	0.76327
375.9462	0.2	mon	39	verb	list	3	6	match	noir	5	1	p	0.76327
376.1627	0.0	+	39	verb	list	3	7	match	noir	5	1	p	0.76327
376.5457	0.2	nager	39	verb	list	3	8	match	noir	5	1	p	0.76327
376.74519999999995	0.0	+	39	verb	list	3	9	match	noir	5	1	p	0.76327
377.145	0.2	noir	39	verb	list	3	10	match	noir	5	1	p	0.76327
377.34489999999994	0.0	+	39	verb	list	3	11	match	noir	5	1	p	0.76327
377.74469999999997	0.0	+	39	verb	list	3	12	match	noir	5	1	p	0.76327
379.7443999999999	0.0	NOIR	39	verb	list	3	13	match	noir	5	1	p	0.76327
380.5600999999999	0.0	+	39	verb	list	3	14	match	noir	5	1	p	0.76327
380.5075999999999	0.0	[response]	39	verb	list	3	15	match	noir	5	1	p	0.76327
382.1427	0.0	+	40	verb	phrase	2	1	match	rouler	4	1	p	1.0579
382.6929	0.2	pfjnbmw	40	verb	phrase	2	2	match	rouler	4	1	p	1.0579
382.9094	0.0	+	40	verb	phrase	2	3	match	rouler	4	1	p	1.0579
383.2928999999999	0.2	vhfx	40	verb	phrase	2	4	match	rouler	4	1	p	1.0579
383.4928	0.0	+	40	verb	phrase	2	5	match	rouler	4	1	p	1.0579
383.89189999999996	0.2	fhgp	40	verb	phrase	2	6	match	rouler	4	1	p	1.0579
384.0917999999999	0.0	+	40	verb	phrase	2	7	match	rouler	4	1	p	1.0579
384.49159999999995	0.2	rouler	40	verb	phrase	2	8	match	rouler	4	1	p	1.0579
384.6914999999999	0.0	+	40	verb	phrase	2	9	match	rouler	4	1	p	1.0579
385.0913999999999	0.2	ainsi	40	verb	phrase	2	10	match	rouler	4	1	p	1.0579
385.2913	0.0	+	40	verb	phrase	2	11	match	rouler	4	1	p	1.0579
385.6911	0.0	+	40	verb	phrase	2	12	match	rouler	4	1	p	1.0579
387.6902	0.0	ROULER	40	verb	phrase	2	13	match	rouler	4	1	p	1.0579
388.80629999999996	0.0	+	40	verb	phrase	2	14	match	rouler	4	1	p	1.0579
388.7480999999999	0.0	[response]	40	verb	phrase	2	15	match	rouler	4	1	p	1.0579
390.0890999999999	0.0	+	41	verb	list	1	1	nomatch	danser	-1	1	y	1.1182
390.6388999999999	0.2	rwdv	41	verb	list	1	2	nomatch	danser	-1	1	y	1.1182
390.8388	0.0	+	41	verb	list	1	3	nomatch	danser	-1	1	y	1.1182
391.2385999999999	0.2	dxcb	41	verb	list	1	4	nomatch	danser	-1	1	y	1.1182
391.4385	0.0	+	41	verb	list	1	5	nomatch	danser	-1	1	y	1.1182
391.83899999999994	0.2	smx	41	verb	list	1	6	nomatch	danser	-1	1	y	1.1182
392.03819999999996	0.0	+	41	verb	list	1	7	nomatch	danser	-1	1	y	1.1182
392.4382999999999	0.2	xvprhjt	41	verb	list	1	8	nomatch	danser	-1	1	y	1.1182
392.6379999999999	0.0	+	41	verb	list	1	9	nomatch	danser	-1	1	y	1.1182
393.03829999999994	0.2	noir	41	verb	list	1	10	nomatch	danser	-1	1	y	1.1182
393.23799999999994	0.0	+	41	verb	list	1	11	nomatch	danser	-1	1	y	1.1182
393.63749999999993	0.0	+	41	verb	list	1	12	nomatch	danser	-1	1	y	1.1182
395.63659999999993	0.0	DANSER	41	verb	list	1	13	nomatch	danser	-1	1	y	1.1182
396.87	0.0	+	41	verb	list	1	14	nomatch	danser	-1	1	y	1.1182
396.75480000000005	0.0	[response]	41	verb	list	1	15	nomatch	danser	-1	1	y	1.1182
398.03549999999996	0.0	+	42	noun	list	2	1	nomatch	petit	-1	1	y	1.2811
398.5852	0.2	scjh	42	noun	list	2	2	nomatch	petit	-1	1	y	1.2811
398.78509999999994	0.0	+	42	noun	list	2	3	nomatch	petit	-1	1	y	1.2811
399.18499999999995	0.2	dsmq	42	noun	list	2	4	nomatch	petit	-1	1	y	1.2811
399.3848999999999	0.0	+	42	noun	list	2	5	nomatch	petit	-1	1	y	1.2811
399.78469999999993	0.2	kqfr	42	noun	list	2	6	nomatch	petit	-1	1	y	1.2811
399.9846	0.0	+	42	noun	list	2	7	nomatch	petit	-1	1	y	1.2811
400.3843999999999	0.2	voilier	42	noun	list	2	8	nomatch	petit	-1	1	y	1.2811
400.5843	0.0	+	42	noun	list	2	9	nomatch	petit	-1	1	y	1.2811
400.98429999999996	0.2	vite	42	noun	list	2	10	nomatch	petit	-1	1	y	1.2811
401.1848	0.0	+	42	noun	list	2	11	nomatch	petit	-1	1	y	1.2811
401.58439999999996	0.0	+	42	noun	list	2	12	nomatch	petit	-1	1	y	1.2811
403.5996	0.0	PETIT	42	noun	list	2	13	nomatch	petit	-1	1	y	1.2811
404.9323999999999	0.0	+	42	noun	list	2	14	nomatch	petit	-1	1	y	1.2811
404.88069999999993	0.0	[response]	42	noun	list	2	15	nomatch	petit	-1	1	y	1.2811
405.9986	0.0	+	43	noun	list	1	1	match	mieux	5	1	p	0.58986
406.5482999999999	0.2	vfc	43	noun	list	1	2	match	mieux	5	1	p	0.58986
406.7482	0.0	+	43	noun	list	1	3	match	mieux	5	1	p	0.58986
407.1479999999999	0.2	zbkp	43	noun	list	1	4	match	mieux	5	1	p	0.58986
407.3479	0.0	+	43	noun	list	1	5	match	mieux	5	1	p	0.58986
407.7478	0.2	rgnb	43	noun	list	1	6	match	mieux	5	1	p	0.58986
407.94769999999994	0.0	+	43	noun	list	1	7	match	mieux	5	1	p	0.58986
408.34809999999993	0.2	fpvtzcb	43	noun	list	1	8	match	mieux	5	1	p	0.58986
408.5478999999999	0.0	+	43	noun	list	1	9	match	mieux	5	1	p	0.58986
408.9479	0.2	mieux	43	noun	list	1	10	match	mieux	5	1	p	0.58986
409.1474999999999	0.0	+	43	noun	list	1	11	match	mieux	5	1	p	0.58986
409.54729999999995	0.0	+	43	noun	list	1	12	match	mieux	5	1	p	0.58986
411.54599999999994	0.0	MIEUX	43	noun	list	1	13	match	mieux	5	1	p	0.58986
412.21309999999994	0.0	+	43	noun	list	1	14	match	mieux	5	1	p	0.58986
412.1359	0.0	[response]	43	noun	list	1	15	match	mieux	5	1	p	0.58986
413.94499999999994	0.0	+	44	noun	list	2	1	nomatch	tard	-1	1	y	1.1498
414.49469999999997	0.2	gbhc	44	noun	list	2	2	nomatch	tard	-1	1	y	1.1498
414.6952	0.0	+	44	noun	list	2	3	nomatch	tard	-1	1	y	1.1498
415.0944999999999	0.2	hrjc	44	noun	list	2	4	nomatch	tard	-1	1	y	1.1498
415.2946999999999	0.0	+	44	noun	list	2	5	nomatch	tard	-1	1	y	1.1498
415.7113999999999	0.2	kqfr	44	noun	list	2	6	nomatch	tard	-1	1	y	1.1498
415.89469999999994	0.0	+	44	noun	list	2	7	nomatch	tard	-1	1	y	1.1498
416.2939	0.2	tablier	44	noun	list	2	8	nomatch	tard	-1	1	y	1.1498
416.49379999999996	0.0	+	44	noun	list	2	9	nomatch	tard	-1	1	y	1.1498
416.8936	0.2	loin	44	noun	list	2	10	nomatch	tard	-1	1	y	1.1498
417.09349999999995	0.0	+	44	noun	list	2	11	nomatch	tard	-1	1	y	1.1498
417.4933	0.0	+	44	noun	list	2	12	nomatch	tard	-1	1	y	1.1498
419.4924	0.0	TARD	44	noun	list	2	13	nomatch	tard	-1	1	y	1.1498
420.7424	0.0	+	44	noun	list	2	14	nomatch	tard	-1	1	y	1.1498
420.6422	0.0	[response]	44	noun	list	2	15	nomatch	tard	-1	1	y	1.1498
421.8913	0.0	+	45	verb	phrase	1	1	nomatch	plus	-1	1	y	0.97027
422.4411	0.2	frz	45	verb	phrase	1	2	nomatch	plus	-1	1	y	0.97027
422.64099999999996	0.0	+	45	verb	phrase	1	3	nomatch	plus	-1	1	y	0.97027
423.0408	0.2	dxcb	45	verb	phrase	1	4	nomatch	plus	-1	1	y	0.97027
423.24069999999995	0.0	+	45	verb	phrase	1	5	nomatch	plus	-1	1	y	0.97027
423.64059999999995	0.2	fhgp	45	verb	phrase	1	6	nomatch	plus	-1	1	y	0.97027
423.8404999999999	0.0	+	45	verb	phrase	1	7	nomatch	plus	-1	1	y	0.97027
424.24029999999993	0.2	dvtwflp	45	verb	phrase	1	8	nomatch	plus	-1	1	y	0.97027
424.4402	0.0	+	45	verb	phrase	1	9	nomatch	plus	-1	1	y	0.97027
424.8402	0.2	mieux	45	verb	phrase	1	10	nomatch	plus	-1	1	y	0.97027
425.0405999999999	0.0	+	45	verb	phrase	1	11	nomatch	plus	-1	1	y	0.97027
425.4402	0.0	+	45	verb	phrase	1	12	nomatch	plus	-1	1	y	0.97027
427.4388	0.0	PLUS	45	verb	phrase	1	13	nomatch	plus	-1	1	y	0.97027
428.47169999999994	0.0	+	45	verb	phrase	1	14	nomatch	plus	-1	1	y	0.97027
428.40909999999997	0.0	[response]	45	verb	phrase	1	15	nomatch	plus	-1	1	y	0.97027
429.8376999999999	0.0	+	46	noun	phrase	4	1	nomatch	va	-1	1	y	1.6306000000000003
430.38749999999993	0.2	fgtv	46	noun	phrase	4	2	nomatch	va	-1	1	y	1.6306000000000003
430.5874	0.0	+	46	noun	phrase	4	3	nomatch	va	-1	1	y	1.6306000000000003
430.9871999999999	0.2	dans	46	noun	phrase	4	4	nomatch	va	-1	1	y	1.6306000000000003
431.1871	0.0	+	46	noun	phrase	4	5	nomatch	va	-1	1	y	1.6306000000000003
431.5869	0.2	leur	46	noun	phrase	4	6	nomatch	va	-1	1	y	1.6306000000000003
431.78679999999997	0.0	+	46	noun	phrase	4	7	nomatch	va	-1	1	y	1.6306000000000003
432.1867	0.2	rocher	46	noun	phrase	4	8	nomatch	va	-1	1	y	1.6306000000000003
432.3870999999999	0.0	+	46	noun	phrase	4	9	nomatch	va	-1	1	y	1.6306000000000003
432.78689999999995	0.2	noir	46	noun	phrase	4	10	nomatch	va	-1	1	y	1.6306000000000003
432.9865	0.0	+	46	noun	phrase	4	11	nomatch	va	-1	1	y	1.6306000000000003
433.38609999999994	0.0	+	46	noun	phrase	4	12	nomatch	va	-1	1	y	1.6306000000000003
435.38519999999994	0.0	VA	46	noun	phrase	4	13	nomatch	va	-1	1	y	1.6306000000000003
437.1518	0.0	+	46	noun	phrase	4	14	nomatch	va	-1	1	y	1.6306000000000003
437.0158	0.0	[response]	46	noun	phrase	4	15	nomatch	va	-1	1	y	1.6306000000000003
437.78409999999997	0.0	+	47	verb	phrase	1	1	nomatch	avec	-1	1	y	0.7888
438.33389999999997	0.2	dnltwfv	47	verb	phrase	1	2	nomatch	avec	-1	1	y	0.7888
438.5338999999999	0.0	+	47	verb	phrase	1	3	nomatch	avec	-1	1	y	0.7888
438.93359999999996	0.2	dvjc	47	verb	phrase	1	4	nomatch	avec	-1	1	y	0.7888
439.1336	0.0	+	47	verb	phrase	1	5	nomatch	avec	-1	1	y	0.7888
439.55039999999997	0.2	fhgp	47	verb	phrase	1	6	nomatch	avec	-1	1	y	0.7888
439.7501	0.0	+	47	verb	phrase	1	7	nomatch	avec	-1	1	y	0.7888
440.1504	0.2	ztcm	47	verb	phrase	1	8	nomatch	avec	-1	1	y	0.7888
440.3502	0.0	+	47	verb	phrase	1	9	nomatch	avec	-1	1	y	0.7888
440.7495	0.2	danser	47	verb	phrase	1	10	nomatch	avec	-1	1	y	0.7888
440.94939999999997	0.0	+	47	verb	phrase	1	11	nomatch	avec	-1	1	y	0.7888
441.3492	0.0	+	47	verb	phrase	1	12	nomatch	avec	-1	1	y	0.7888
443.3487	0.0	AVEC	47	verb	phrase	1	13	nomatch	avec	-1	1	y	0.7888
444.23119999999994	0.0	+	47	verb	phrase	1	14	nomatch	avec	-1	1	y	0.7888
444.13749999999993	0.0	[response]	47	verb	phrase	1	15	nomatch	avec	-1	1	y	0.7888
445.7471999999999	0.0	+	48	verb	list	4	1	nomatch	vieux	-1	1	y	1.7267
446.29729999999995	0.2	fpdtw	48	verb	list	4	2	nomatch	vieux	-1	1	y	1.7267
446.4969	0.0	+	48	verb	list	4	3	nomatch	vieux	-1	1	y	1.7267
446.89739999999995	0.2	sans	48	verb	list	4	4	nomatch	vieux	-1	1	y	1.7267
447.097	0.0	+	48	verb	list	4	5	nomatch	vieux	-1	1	y	1.7267
447.4969	0.2	peut	48	verb	list	4	6	nomatch	vieux	-1	1	y	1.7267
447.69629999999995	0.0	+	48	verb	list	4	7	nomatch	vieux	-1	1	y	1.7267
448.0961	0.2	petit	48	verb	list	4	8	nomatch	vieux	-1	1	y	1.7267
448.29599999999994	0.0	+	48	verb	list	4	9	nomatch	vieux	-1	1	y	1.7267
448.69589999999994	0.2	jongler	48	verb	list	4	10	nomatch	vieux	-1	1	y	1.7267
448.8958	0.0	+	48	verb	list	4	11	nomatch	vieux	-1	1	y	1.7267
449.2955999999999	0.0	+	48	verb	list	4	12	nomatch	vieux	-1	1	y	1.7267
451.2946999999999	0.0	VIEUX	48	verb	list	4	13	nomatch	vieux	-1	1	y	1.7267
453.07719999999995	0.0	+	48	verb	list	4	14	nomatch	vieux	-1	1	y	1.7267
453.02139999999997	0.0	[response]	48	verb	list	4	15	nomatch	vieux	-1	1	y	1.7267
453.69359999999995	0.0	+	49	noun	phrase	3	1	nomatch	yves	-1	1	y	1.6383000000000003
454.2433	0.2	xjfskzh	49	noun	phrase	3	2	nomatch	yves	-1	1	y	1.6383000000000003
454.44319999999993	0.0	+	49	noun	phrase	3	3	nomatch	yves	-1	1	y	1.6383000000000003
454.84309999999994	0.2	mrlw	49	noun	phrase	3	4	nomatch	yves	-1	1	y	1.6383000000000003
455.043	0.0	+	49	noun	phrase	3	5	nomatch	yves	-1	1	y	1.6383000000000003
455.4427999999999	0.2	leur	49	noun	phrase	3	6	nomatch	yves	-1	1	y	1.6383000000000003
455.6427	0.0	+	49	noun	phrase	3	7	nomatch	yves	-1	1	y	1.6383000000000003
456.0424999999999	0.2	voilier	49	noun	phrase	3	8	nomatch	yves	-1	1	y	1.6383000000000003
456.2424	0.0	+	49	noun	phrase	3	9	nomatch	yves	-1	1	y	1.6383000000000003
456.6423	0.2	bleu	49	noun	phrase	3	10	nomatch	yves	-1	1	y	1.6383000000000003
456.84219999999993	0.0	+	49	noun	phrase	3	11	nomatch	yves	-1	1	y	1.6383000000000003
457.24249999999995	0.0	+	49	noun	phrase	3	12	nomatch	yves	-1	1	y	1.6383000000000003
459.24109999999996	0.0	YVES	49	noun	phrase	3	13	nomatch	yves	-1	1	y	1.6383000000000003
461.02419999999995	0.0	+	49	noun	phrase	3	14	nomatch	yves	-1	1	y	1.6383000000000003
460.8793999999999	0.0	[response]	49	noun	phrase	3	15	nomatch	yves	-1	1	y	1.6383000000000003
469.6531	0.0	+	50	verb	phrase	1	1	match	patiner	5	1	p	1.5613
470.203	0.2	mjzqg	50	verb	phrase	1	2	match	patiner	5	1	p	1.5613
470.38599999999997	0.0	+	50	verb	phrase	1	3	match	patiner	5	1	p	1.5613
470.8028999999999	0.2	glv	50	verb	phrase	1	4	match	patiner	5	1	p	1.5613
470.98569999999995	0.0	+	50	verb	phrase	1	5	match	patiner	5	1	p	1.5613
471.38559999999995	0.2	tk	50	verb	phrase	1	6	match	patiner	5	1	p	1.5613
471.5854999999999	0.0	+	50	verb	phrase	1	7	match	patiner	5	1	p	1.5613
471.98529999999994	0.2	ztcm	50	verb	phrase	1	8	match	patiner	5	1	p	1.5613
472.1852	0.0	+	50	verb	phrase	1	9	match	patiner	5	1	p	1.5613
472.5849999999999	0.2	patiner	50	verb	phrase	1	10	match	patiner	5	1	p	1.5613
472.7849	0.0	+	50	verb	phrase	1	11	match	patiner	5	1	p	1.5613
473.1848	0.0	+	50	verb	phrase	1	12	match	patiner	5	1	p	1.5613
475.1839	0.0	PATINER	50	verb	phrase	1	13	match	patiner	5	1	p	1.5613
476.7998	0.0	+	50	verb	phrase	1	14	match	patiner	5	1	p	1.5613
476.74520000000007	0.0	[response]	50	verb	phrase	1	15	match	patiner	5	1	p	1.5613
477.59939999999995	0.0	+	51	noun	list	3	1	nomatch	adam	-1	1	y	1.1868000000000003
478.14919999999995	0.2	zgrpwhq	51	noun	list	3	2	nomatch	adam	-1	1	y	1.1868000000000003
478.3490999999999	0.0	+	51	noun	list	3	3	nomatch	adam	-1	1	y	1.1868000000000003
478.74889999999994	0.2	zbkp	51	noun	list	3	4	nomatch	adam	-1	1	y	1.1868000000000003
478.9488	0.0	+	51	noun	list	3	5	nomatch	adam	-1	1	y	1.1868000000000003
479.3657999999999	0.2	son	51	noun	list	3	6	nomatch	adam	-1	1	y	1.1868000000000003
479.5487999999999	0.0	+	51	noun	list	3	7	nomatch	adam	-1	1	y	1.1868000000000003
479.94909999999993	0.2	moins	51	noun	list	3	8	nomatch	adam	-1	1	y	1.1868000000000003
480.1488999999999	0.0	+	51	noun	list	3	9	nomatch	adam	-1	1	y	1.1868000000000003
480.5482999999999	0.2	panier	51	noun	list	3	10	nomatch	adam	-1	1	y	1.1868000000000003
480.74799999999993	0.0	+	51	noun	list	3	11	nomatch	adam	-1	1	y	1.1868000000000003
481.14779999999996	0.0	+	51	noun	list	3	12	nomatch	adam	-1	1	y	1.1868000000000003
483.1642999999999	0.0	ADAM	51	noun	list	3	13	nomatch	adam	-1	1	y	1.1868000000000003
484.413	0.0	+	51	noun	list	3	14	nomatch	adam	-1	1	y	1.1868000000000003
484.3511000000001	0.0	[response]	51	noun	list	3	15	nomatch	adam	-1	1	y	1.1868000000000003
485.5458	0.0	+	52	verb	list	1	1	nomatch	rocher	-1	1	y	0.99537
486.0956	0.2	btm	52	verb	list	1	2	nomatch	rocher	-1	1	y	0.99537
486.29549999999995	0.0	+	52	verb	list	1	3	nomatch	rocher	-1	1	y	0.99537
486.6953	0.2	dxcb	52	verb	list	1	4	nomatch	rocher	-1	1	y	0.99537
486.89519999999993	0.0	+	52	verb	list	1	5	nomatch	rocher	-1	1	y	0.99537
487.29549999999995	0.2	smx	52	verb	list	1	6	nomatch	rocher	-1	1	y	0.99537
487.49559999999997	0.0	+	52	verb	list	1	7	nomatch	rocher	-1	1	y	0.99537
487.8947999999999	0.2	bwgs	52	verb	list	1	8	nomatch	rocher	-1	1	y	0.99537
488.0947	0.0	+	52	verb	list	1	9	nomatch	rocher	-1	1	y	0.99537
488.4944999999999	0.2	rouler	52	verb	list	1	10	nomatch	rocher	-1	1	y	0.99537
488.6944	0.0	+	52	verb	list	1	11	nomatch	rocher	-1	1	y	0.99537
489.0942	0.0	+	52	verb	list	1	12	nomatch	rocher	-1	1	y	0.99537
491.0933	0.0	ROCHER	52	verb	list	1	13	nomatch	rocher	-1	1	y	0.99537
492.14279999999997	0.0	+	52	verb	list	1	14	nomatch	rocher	-1	1	y	0.99537
492.0886999999999	0.0	[response]	52	verb	list	1	15	nomatch	rocher	-1	1	y	0.99537
501.4885999999999	0.0	+	53	noun	phrase	3	1	nomatch	grand	-1	1	y	1.2917
502.03829999999994	0.2	zvt	53	noun	phrase	3	2	nomatch	grand	-1	1	y	1.2917
502.2383	0.0	+	53	noun	phrase	3	3	nomatch	grand	-1	1	y	1.2917
502.6381	0.2	hrjc	53	noun	phrase	3	4	nomatch	grand	-1	1	y	1.2917
502.83799999999997	0.0	+	53	noun	phrase	3	5	nomatch	grand	-1	1	y	1.2917
503.2378	0.2	son	53	noun	phrase	3	6	nomatch	grand	-1	1	y	1.2917
503.43819999999994	0.0	+	53	noun	phrase	3	7	nomatch	grand	-1	1	y	1.2917
503.8381999999999	0.2	beau	53	noun	phrase	3	8	nomatch	grand	-1	1	y	1.2917
504.0378999999999	0.0	+	53	noun	phrase	3	9	nomatch	grand	-1	1	y	1.2917
504.4375	0.2	panier	53	noun	phrase	3	10	nomatch	grand	-1	1	y	1.2917
504.6372	0.0	+	53	noun	phrase	3	11	nomatch	grand	-1	1	y	1.2917
505.0369999999999	0.0	+	53	noun	phrase	3	12	nomatch	grand	-1	1	y	1.2917
507.03679999999997	0.0	GRAND	53	noun	phrase	3	13	nomatch	grand	-1	1	y	1.2917
508.3854	0.0	+	53	noun	phrase	3	14	nomatch	grand	-1	1	y	1.2917
508.3284	0.0	[response]	53	noun	phrase	3	15	nomatch	grand	-1	1	y	1.2917
509.43499999999995	0.0	+	54	verb	phrase	4	1	nomatch	peut	-1	0	p	0.85714
509.9855	0.2	sgfzw	54	verb	phrase	4	2	nomatch	peut	-1	0	p	0.85714
510.18459999999993	0.0	+	54	verb	phrase	4	3	nomatch	peut	-1	0	p	0.85714
510.5852	0.2	paul	54	verb	phrase	4	4	nomatch	peut	-1	0	p	0.85714
510.8014999999999	0.0	+	54	verb	phrase	4	5	nomatch	peut	-1	0	p	0.85714
511.18489999999997	0.2	doit	54	verb	phrase	4	6	nomatch	peut	-1	0	p	0.85714
511.40149999999994	0.0	+	54	verb	phrase	4	7	nomatch	peut	-1	0	p	0.85714
511.7838999999999	0.2	beaucoup	54	verb	phrase	4	8	nomatch	peut	-1	0	p	0.85714
511.9838	0.0	+	54	verb	phrase	4	9	nomatch	peut	-1	0	p	0.85714
512.3836	0.2	rouler	54	verb	phrase	4	10	nomatch	peut	-1	0	p	0.85714
512.5836999999999	0.0	+	54	verb	phrase	4	11	nomatch	peut	-1	0	p	0.85714
513.0	0.0	+	54	verb	phrase	4	12	nomatch	peut	-1	0	p	0.85714
514.9995	0.0	PEUT	54	verb	phrase	4	13	nomatch	peut	-1	0	p	0.85714
515.9154	0.0	+	54	verb	phrase	4	14	nomatch	peut	-1	0	p	0.85714
515.8566	0.0	[response]	54	verb	phrase	4	15	nomatch	peut	-1	0	p	0.85714
517.3979999999999	0.0	+	55	noun	list	4	1	match	grenier	4	1	p	1.0936
517.9485	0.2	nwvcqh	55	noun	list	4	2	match	grenier	4	1	p	1.0936
518.1650999999999	0.0	+	55	noun	list	4	3	match	grenier	4	1	p	1.0936
518.5477999999999	0.2	sur	55	noun	list	4	4	match	grenier	4	1	p	1.0936
518.7474	0.0	+	55	noun	list	4	5	match	grenier	4	1	p	1.0936
519.1472	0.2	va	55	noun	list	4	6	match	grenier	4	1	p	1.0936
519.3471999999999	0.0	+	55	noun	list	4	7	match	grenier	4	1	p	1.0936
519.747	0.2	grenier	55	noun	list	4	8	match	grenier	4	1	p	1.0936
519.9468999999999	0.0	+	55	noun	list	4	9	match	grenier	4	1	p	1.0936
520.3466999999999	0.2	ainsi	55	noun	list	4	10	match	grenier	4	1	p	1.0936
520.5466	0.0	+	55	noun	list	4	11	match	grenier	4	1	p	1.0936
520.947	0.0	+	55	noun	list	4	12	match	grenier	4	1	p	1.0936
522.9454999999999	0.0	GRENIER	55	noun	list	4	13	match	grenier	4	1	p	1.0936
524.0949999999999	0.0	+	55	noun	list	4	14	match	grenier	4	1	p	1.0936
524.0391	0.0	[response]	55	noun	list	4	15	match	grenier	4	1	p	1.0936
525.3444	0.0	+	56	noun	list	2	1	nomatch	dans	-1	1	y	1.5679
525.8942	0.2	qbjvmt	56	noun	list	2	2	nomatch	dans	-1	1	y	1.5679
526.0940999999999	0.0	+	56	noun	list	2	3	nomatch	dans	-1	1	y	1.5679
526.4938999999999	0.2	zbkp	56	noun	list	2	4	nomatch	dans	-1	1	y	1.5679
526.6938	0.0	+	56	noun	list	2	5	nomatch	dans	-1	1	y	1.5679
527.0935999999999	0.2	smx	56	noun	list	2	6	nomatch	dans	-1	1	y	1.5679
527.2936	0.0	+	56	noun	list	2	7	nomatch	dans	-1	1	y	1.5679
527.6934	0.2	beaucoup	56	noun	list	2	8	nomatch	dans	-1	1	y	1.5679
527.894	0.0	+	56	noun	list	2	9	nomatch	dans	-1	1	y	1.5679
528.2931	0.2	voilier	56	noun	list	2	10	nomatch	dans	-1	1	y	1.5679
528.4937	0.0	+	56	noun	list	2	11	nomatch	dans	-1	1	y	1.5679
528.8928	0.0	+	56	noun	list	2	12	nomatch	dans	-1	1	y	1.5679
530.8919	0.0	DANS	56	noun	list	2	13	nomatch	dans	-1	1	y	1.5679
532.5245	0.0	+	56	noun	list	2	14	nomatch	dans	-1	1	y	1.5679
532.4598	0.0	[response]	56	noun	list	2	15	nomatch	dans	-1	1	y	1.5679
533.2908	0.0	+	57	verb	phrase	4	1	nomatch	mieux	-1	1	y	1.6194
533.8406	0.2	spbmgc	57	verb	phrase	4	2	nomatch	mieux	-1	1	y	1.6194
534.0405	0.0	+	57	verb	phrase	4	3	nomatch	mieux	-1	1	y	1.6194
534.4403	0.2	paul	57	verb	phrase	4	4	nomatch	mieux	-1	1	y	1.6194
534.6401999999999	0.0	+	57	verb	phrase	4	5	nomatch	mieux	-1	1	y	1.6194
535.04	0.2	doit	57	verb	phrase	4	6	nomatch	mieux	-1	1	y	1.6194
535.24	0.0	+	57	verb	phrase	4	7	nomatch	mieux	-1	1	y	1.6194
535.64	0.2	plus	57	verb	phrase	4	8	nomatch	mieux	-1	1	y	1.6194
535.857	0.0	+	57	verb	phrase	4	9	nomatch	mieux	-1	1	y	1.6194
536.2396	0.2	voyager	57	verb	phrase	4	10	nomatch	mieux	-1	1	y	1.6194
536.4565	0.0	+	57	verb	phrase	4	11	nomatch	mieux	-1	1	y	1.6194
536.8398	0.0	+	57	verb	phrase	4	12	nomatch	mieux	-1	1	y	1.6194
538.8383	0.0	MIEUX	57	verb	phrase	4	13	nomatch	mieux	-1	1	y	1.6194
540.5209	0.0	+	57	verb	phrase	4	14	nomatch	mieux	-1	1	y	1.6194
540.4576999999999	0.0	[response]	57	verb	phrase	4	15	nomatch	mieux	-1	1	y	1.6194
541.2371999999999	0.0	+	58	verb	list	1	1	nomatch	beau	-1	1	y	1.5807
541.7869999999999	0.2	sln	58	verb	list	1	2	nomatch	beau	-1	1	y	1.5807
541.9869	0.0	+	58	verb	list	1	3	nomatch	beau	-1	1	y	1.5807
542.3866999999999	0.2	tfbq	58	verb	list	1	4	nomatch	beau	-1	1	y	1.5807
542.5866	0.0	+	58	verb	list	1	5	nomatch	beau	-1	1	y	1.5807
542.9864	0.2	fhgp	58	verb	list	1	6	nomatch	beau	-1	1	y	1.5807
543.1863	0.0	+	58	verb	list	1	7	nomatch	beau	-1	1	y	1.5807
543.5862	0.2	dvqjwc	58	verb	list	1	8	nomatch	beau	-1	1	y	1.5807
543.7860999999999	0.0	+	58	verb	list	1	9	nomatch	beau	-1	1	y	1.5807
544.1861	0.2	grand	58	verb	list	1	10	nomatch	beau	-1	1	y	1.5807
544.3863	0.0	+	58	verb	list	1	11	nomatch	beau	-1	1	y	1.5807
544.7855999999999	0.0	+	58	verb	list	1	12	nomatch	beau	-1	1	y	1.5807
546.7846999999999	0.0	BEAU	58	verb	list	1	13	nomatch	beau	-1	1	y	1.5807
548.434	0.0	+	58	verb	list	1	14	nomatch	beau	-1	1	y	1.5807
548.3655000000001	0.0	[response]	58	verb	list	1	15	nomatch	beau	-1	1	y	1.5807
549.1836	0.0	+	59	verb	phrase	1	1	match	tard	5	1	p	1.7088000000000003
549.75	0.2	qtwpkb	59	verb	phrase	1	2	match	tard	5	1	p	1.7088000000000003
549.9499999999999	0.0	+	59	verb	phrase	1	3	match	tard	5	1	p	1.7088000000000003
550.3498	0.2	dxcb	59	verb	phrase	1	4	match	tard	5	1	p	1.7088000000000003
550.5496999999999	0.0	+	59	verb	phrase	1	5	match	tard	5	1	p	1.7088000000000003
550.9495	0.2	tk	59	verb	phrase	1	6	match	tard	5	1	p	1.7088000000000003
551.1501	0.0	+	59	verb	phrase	1	7	match	tard	5	1	p	1.7088000000000003
551.5495999999999	0.2	dvtwflp	59	verb	phrase	1	8	match	tard	5	1	p	1.7088000000000003
551.7491	0.0	+	59	verb	phrase	1	9	match	tard	5	1	p	1.7088000000000003
552.1488999999999	0.2	tard	59	verb	phrase	1	10	match	tard	5	1	p	1.7088000000000003
552.3489	0.0	+	59	verb	phrase	1	11	match	tard	5	1	p	1.7088000000000003
552.7487	0.0	+	59	verb	phrase	1	12	match	tard	5	1	p	1.7088000000000003
554.7478	0.0	TARD	59	verb	phrase	1	13	match	tard	5	1	p	1.7088000000000003
556.5136	0.0	+	59	verb	phrase	1	14	match	tard	5	1	p	1.7088000000000003
556.4565000000001	0.0	[response]	59	verb	phrase	1	15	match	tard	5	1	p	1.7088000000000003
557.1467	0.0	+	60	noun	phrase	3	1	nomatch	tt	-1	1	y	1.4527
557.6963999999999	0.2	rhjfqvz	60	noun	phrase	3	2	nomatch	tt	-1	1	y	1.4527
557.8963	0.0	+	60	noun	phrase	3	3	nomatch	tt	-1	1	y	1.4527
558.2962	0.2	hrjc	60	noun	phrase	3	4	nomatch	tt	-1	1	y	1.4527
558.4961	0.0	+	60	noun	phrase	3	5	nomatch	tt	-1	1	y	1.4527
558.8959	0.2	leur	60	noun	phrase	3	6	nomatch	tt	-1	1	y	1.4527
559.0957999999999	0.0	+	60	noun	phrase	3	7	nomatch	tt	-1	1	y	1.4527
559.4956	0.2	grand	60	noun	phrase	3	8	nomatch	tt	-1	1	y	1.4527
559.6954999999999	0.0	+	60	noun	phrase	3	9	nomatch	tt	-1	1	y	1.4527
560.0953	0.2	clavier	60	noun	phrase	3	10	nomatch	tt	-1	1	y	1.4527
560.2959999999999	0.0	+	60	noun	phrase	3	11	nomatch	tt	-1	1	y	1.4527
560.6957	0.0	+	60	noun	phrase	3	12	nomatch	tt	-1	1	y	1.4527
562.6941999999999	0.0	TT	60	noun	phrase	3	13	nomatch	tt	-1	1	y	1.4527
564.2101	0.0	+	60	noun	phrase	3	14	nomatch	tt	-1	1	y	1.4527
564.1469	0.0	[response]	60	noun	phrase	3	15	nomatch	tt	-1	1	y	1.4527
565.0930999999999	0.0	+	61	verb	phrase	2	1	match	danser	4	1	p	1.6516
565.6428	0.2	dmsqn	61	verb	phrase	2	2	match	danser	4	1	p	1.6516
565.8426999999999	0.0	+	61	verb	phrase	2	3	match	danser	4	1	p	1.6516
566.2425999999999	0.2	glv	61	verb	phrase	2	4	match	danser	4	1	p	1.6516
566.4425	0.0	+	61	verb	phrase	2	5	match	danser	4	1	p	1.6516
566.8422999999999	0.2	kqfr	61	verb	phrase	2	6	match	danser	4	1	p	1.6516
567.0422	0.0	+	61	verb	phrase	2	7	match	danser	4	1	p	1.6516
567.442	0.2	danser	61	verb	phrase	2	8	match	danser	4	1	p	1.6516
567.6419	0.0	+	61	verb	phrase	2	9	match	danser	4	1	p	1.6516
568.0418	0.2	tard	61	verb	phrase	2	10	match	danser	4	1	p	1.6516
568.2423	0.0	+	61	verb	phrase	2	11	match	danser	4	1	p	1.6516
568.6415	0.0	+	61	verb	phrase	2	12	match	danser	4	1	p	1.6516
570.6406	0.0	DANSER	61	verb	phrase	2	13	match	danser	4	1	p	1.6516
572.3565	0.0	+	61	verb	phrase	2	14	match	danser	4	1	p	1.6516
572.2922	0.0	[response]	61	verb	phrase	2	15	match	danser	4	1	p	1.6516
573.0395	0.0	+	62	verb	list	4	1	nomatch	voilier	-1	1	y	1.081
573.5892	0.2	lqpst	62	verb	list	4	2	nomatch	voilier	-1	1	y	1.081
573.7891	0.0	+	62	verb	list	4	3	nomatch	voilier	-1	1	y	1.081
574.1889	0.2	sans	62	verb	list	4	4	nomatch	voilier	-1	1	y	1.081
574.3891	0.0	+	62	verb	list	4	5	nomatch	voilier	-1	1	y	1.081
574.7892999999999	0.2	doit	62	verb	list	4	6	nomatch	voilier	-1	1	y	1.081
574.9891	0.0	+	62	verb	list	4	7	nomatch	voilier	-1	1	y	1.081
575.3888999999999	0.2	nouveau	62	verb	list	4	8	nomatch	voilier	-1	1	y	1.081
575.5883	0.0	+	62	verb	list	4	9	nomatch	voilier	-1	1	y	1.081
575.9880999999999	0.2	patiner	62	verb	list	4	10	nomatch	voilier	-1	1	y	1.081
576.1881	0.0	+	62	verb	list	4	11	nomatch	voilier	-1	1	y	1.081
576.5879	0.0	+	62	verb	list	4	12	nomatch	voilier	-1	1	y	1.081
578.5876999999999	0.0	VOILIER	62	verb	list	4	13	nomatch	voilier	-1	1	y	1.081
579.7364	0.0	+	62	verb	list	4	14	nomatch	voilier	-1	1	y	1.081
579.6686	0.0	[response]	62	verb	list	4	15	nomatch	voilier	-1	1	y	1.081
580.9859	0.0	+	63	noun	list	3	1	match	moins	4	1	p	4.4975000000000005
581.5360999999999	0.2	zkcr	63	noun	list	3	2	match	moins	4	1	p	4.4975000000000005
581.7357999999999	0.0	+	63	noun	list	3	3	match	moins	4	1	p	4.4975000000000005
582.1354	0.2	dxcb	63	noun	list	3	4	match	moins	4	1	p	4.4975000000000005
582.3358999999999	0.0	+	63	noun	list	3	5	match	moins	4	1	p	4.4975000000000005
582.7351	0.2	leur	63	noun	list	3	6	match	moins	4	1	p	4.4975000000000005
582.935	0.0	+	63	noun	list	3	7	match	moins	4	1	p	4.4975000000000005
583.3348	0.2	moins	63	noun	list	3	8	match	moins	4	1	p	4.4975000000000005
583.5346999999999	0.0	+	63	noun	list	3	9	match	moins	4	1	p	4.4975000000000005
583.9345	0.2	casier	63	noun	list	3	10	match	moins	4	1	p	4.4975000000000005
584.1343999999999	0.0	+	63	noun	list	3	11	match	moins	4	1	p	4.4975000000000005
584.5342999999999	0.0	+	63	noun	list	3	12	match	moins	4	1	p	4.4975000000000005
586.55	0.0	MOINS	63	noun	list	3	13	match	moins	4	1	p	4.4975000000000005
591.1146	0.0	+	63	noun	list	3	14	match	moins	4	1	p	4.4975000000000005
591.0475	0.0	[response]	63	noun	list	3	15	match	moins	4	1	p	4.4975000000000005
596.9453	0.0	+	64	verb	phrase	4	1	match	plus	4	1	p	1.3867
597.495	0.2	rbjds	64	verb	phrase	4	2	match	plus	4	1	p	1.3867
597.6949999999999	0.0	+	64	verb	phrase	4	3	match	plus	4	1	p	1.3867
598.0948	0.2	yves	64	verb	phrase	4	4	match	plus	4	1	p	1.3867
598.2946999999999	0.0	+	64	verb	phrase	4	5	match	plus	4	1	p	1.3867
598.6945	0.2	peut	64	verb	phrase	4	6	match	plus	4	1	p	1.3867
598.8943999999999	0.0	+	64	verb	phrase	4	7	match	plus	4	1	p	1.3867
599.2941999999999	0.2	plus	64	verb	phrase	4	8	match	plus	4	1	p	1.3867
599.4941	0.0	+	64	verb	phrase	4	9	match	plus	4	1	p	1.3867
599.8943999999999	0.2	nager	64	verb	phrase	4	10	match	plus	4	1	p	1.3867
600.0939	0.0	+	64	verb	phrase	4	11	match	plus	4	1	p	1.3867
600.4943999999999	0.0	+	64	verb	phrase	4	12	match	plus	4	1	p	1.3867
602.4928	0.0	PLUS	64	verb	phrase	4	13	match	plus	4	1	p	1.3867
603.9421	0.0	+	64	verb	phrase	4	14	match	plus	4	1	p	1.3867
603.8795000000001	0.0	[response]	64	verb	phrase	4	15	match	plus	4	1	p	1.3867
612.8881	0.0	+	65	verb	list	4	1	match	nouveau	4	0	y	1.596
613.4377999999999	0.2	pwtndcr	65	verb	list	4	2	match	nouveau	4	0	y	1.596
613.6377	0.0	+	65	verb	list	4	3	match	nouveau	4	0	y	1.596
614.0376	0.2	avec	65	verb	list	4	4	match	nouveau	4	0	y	1.596
614.2375	0.0	+	65	verb	list	4	5	match	nouveau	4	0	y	1.596
614.6379	0.2	va	65	verb	list	4	6	match	nouveau	4	0	y	1.596
614.8539	0.0	+	65	verb	list	4	7	match	nouveau	4	0	y	1.596
615.2376999999999	0.2	nouveau	65	verb	list	4	8	match	nouveau	4	0	y	1.596
615.4539	0.0	+	65	verb	list	4	9	match	nouveau	4	0	y	1.596
615.8367	0.2	galoper	65	verb	list	4	10	match	nouveau	4	0	y	1.596
616.0367	0.0	+	65	verb	list	4	11	match	nouveau	4	0	y	1.596
616.4364999999999	0.0	+	65	verb	list	4	12	match	nouveau	4	0	y	1.596
618.4357	0.0	NOUVEAU	65	verb	list	4	13	match	nouveau	4	0	y	1.596
620.0848	0.0	+	65	verb	list	4	14	match	nouveau	4	0	y	1.596
620.0318	0.0	[response]	65	verb	list	4	15	match	nouveau	4	0	y	1.596
620.8344999999999	0.0	+	66	verb	list	1	1	match	petit	5	1	p	0.49475
621.3842	0.2	qnkzl	66	verb	list	1	2	match	petit	5	1	p	0.49475
621.5840999999999	0.0	+	66	verb	list	1	3	match	petit	5	1	p	0.49475
621.9841	0.2	mrlw	66	verb	list	1	4	match	petit	5	1	p	0.49475
622.1839	0.0	+	66	verb	list	1	5	match	petit	5	1	p	0.49475
622.5836999999999	0.2	fhgp	66	verb	list	1	6	match	petit	5	1	p	0.49475
622.7836	0.0	+	66	verb	list	1	7	match	petit	5	1	p	0.49475
623.2000999999999	0.2	dvtwflp	66	verb	list	1	8	match	petit	5	1	p	0.49475
623.4	0.0	+	66	verb	list	1	9	match	petit	5	1	p	0.49475
623.7998	0.2	petit	66	verb	list	1	10	match	petit	5	1	p	0.49475
623.9997	0.0	+	66	verb	list	1	11	match	petit	5	1	p	0.49475
624.4164	0.0	+	66	verb	list	1	12	match	petit	5	1	p	0.49475
626.3992999999999	0.0	PETIT	66	verb	list	1	13	match	petit	5	1	p	0.49475
626.9657	0.0	+	66	verb	list	1	14	match	petit	5	1	p	0.49475
626.8941000000001	0.0	[response]	66	verb	list	1	15	match	petit	5	1	p	0.49475
628.7975	0.0	+	67	verb	phrase	3	1	match	plus	4	1	p	1.043
629.3472999999999	0.2	pnzjktg	67	verb	phrase	3	2	match	plus	4	1	p	1.043
629.5472	0.0	+	67	verb	phrase	3	3	match	plus	4	1	p	1.043
629.947	0.2	zbkp	67	verb	phrase	3	4	match	plus	4	1	p	1.043
630.1469	0.0	+	67	verb	phrase	3	5	match	plus	4	1	p	1.043
630.5469999999999	0.2	doit	67	verb	phrase	3	6	match	plus	4	1	p	1.043
630.7468	0.0	+	67	verb	phrase	3	7	match	plus	4	1	p	1.043
631.1469999999999	0.2	plus	67	verb	phrase	3	8	match	plus	4	1	p	1.043
631.3634999999999	0.0	+	67	verb	phrase	3	9	match	plus	4	1	p	1.043
631.7469	0.2	jongler	67	verb	phrase	3	10	match	plus	4	1	p	1.043
631.9461	0.0	+	67	verb	phrase	3	11	match	plus	4	1	p	1.043
632.3458999999999	0.0	+	67	verb	phrase	3	12	match	plus	4	1	p	1.043
634.3449999999999	0.0	PLUS	67	verb	phrase	3	13	match	plus	4	1	p	1.043
635.4617999999999	0.0	+	67	verb	phrase	3	14	match	plus	4	1	p	1.043
635.3879999999999	0.0	[response]	67	verb	phrase	3	15	match	plus	4	1	p	1.043
636.7438999999999	0.0	+	68	verb	list	1	1	match	petit	5	0	TIMEOUT	-1.0
637.2937	0.2	tlx	68	verb	list	1	2	match	petit	5	0	TIMEOUT	-1.0
637.4936	0.0	+	68	verb	list	1	3	match	petit	5	0	TIMEOUT	-1.0
637.8933999999999	0.2	tfbq	68	verb	list	1	4	match	petit	5	0	TIMEOUT	-1.0
638.0933	0.0	+	68	verb	list	1	5	match	petit	5	0	TIMEOUT	-1.0
638.4938	0.2	tk	68	verb	list	1	6	match	petit	5	0	TIMEOUT	-1.0
638.7103	0.0	+	68	verb	list	1	7	match	petit	5	0	TIMEOUT	-1.0
639.0934	0.2	nhkgrd	68	verb	list	1	8	match	petit	5	0	TIMEOUT	-1.0
639.2927999999999	0.0	+	68	verb	list	1	9	match	petit	5	0	TIMEOUT	-1.0
639.6926	0.2	petit	68	verb	list	1	10	match	petit	5	0	TIMEOUT	-1.0
639.8924999999999	0.0	+	68	verb	list	1	11	match	petit	5	0	TIMEOUT	-1.0
640.2923	0.0	+	68	verb	list	1	12	match	petit	5	0	TIMEOUT	-1.0
642.3087999999999	0.0	PETIT	68	verb	list	1	13	match	petit	5	0	TIMEOUT	-1.0
644.6903	0.0	+	69	verb	phrase	2	1	nomatch	rouge	-1	1	y	1.3435000000000001
645.29	0.2	qkgvdms	69	verb	phrase	2	2	nomatch	rouge	-1	1	y	1.3435000000000001
645.49	0.0	+	69	verb	phrase	2	3	nomatch	rouge	-1	1	y	1.3435000000000001
645.8897999999999	0.2	glv	69	verb	phrase	2	4	nomatch	rouge	-1	1	y	1.3435000000000001
646.0897	0.0	+	69	verb	phrase	2	5	nomatch	rouge	-1	1	y	1.3435000000000001
646.4894999999999	0.2	kqfr	69	verb	phrase	2	6	nomatch	rouge	-1	1	y	1.3435000000000001
646.6894	0.0	+	69	verb	phrase	2	7	nomatch	rouge	-1	1	y	1.3435000000000001
647.0892	0.2	voyager	69	verb	phrase	2	8	nomatch	rouge	-1	1	y	1.3435000000000001
647.2891	0.0	+	69	verb	phrase	2	9	nomatch	rouge	-1	1	y	1.3435000000000001
647.689	0.2	vite	69	verb	phrase	2	10	nomatch	rouge	-1	1	y	1.3435000000000001
647.8888999999999	0.0	+	69	verb	phrase	2	11	nomatch	rouge	-1	1	y	1.3435000000000001
648.2894	0.0	+	69	verb	phrase	2	12	nomatch	rouge	-1	1	y	1.3435000000000001
650.2878	0.0	ROUGE	69	verb	phrase	2	13	nomatch	rouge	-1	1	y	1.3435000000000001
651.6871	0.0	+	69	verb	phrase	2	14	nomatch	rouge	-1	1	y	1.3435000000000001
651.6311999999999	0.0	[response]	69	verb	phrase	2	15	nomatch	rouge	-1	1	y	1.3435000000000001
652.6867	0.0	+	70	noun	phrase	1	1	nomatch	voilier	-1	0	TIMEOUT	-1.0
653.2364	0.2	mzkn	70	noun	phrase	1	2	nomatch	voilier	-1	0	TIMEOUT	-1.0
653.4363999999999	0.0	+	70	noun	phrase	1	3	nomatch	voilier	-1	0	TIMEOUT	-1.0
653.8367999999999	0.2	tfbq	70	noun	phrase	1	4	nomatch	voilier	-1	0	TIMEOUT	-1.0
654.0365999999999	0.0	+	70	noun	phrase	1	5	nomatch	voilier	-1	0	TIMEOUT	-1.0
654.4363999999999	0.2	rgnb	70	noun	phrase	1	6	nomatch	voilier	-1	0	TIMEOUT	-1.0
654.6363	0.0	+	70	noun	phrase	1	7	nomatch	voilier	-1	0	TIMEOUT	-1.0
655.0360999999999	0.2	gvnlz	70	noun	phrase	1	8	nomatch	voilier	-1	0	TIMEOUT	-1.0
655.2355	0.0	+	70	noun	phrase	1	9	nomatch	voilier	-1	0	TIMEOUT	-1.0
655.6352999999999	0.2	sablier	70	noun	phrase	1	10	nomatch	voilier	-1	0	TIMEOUT	-1.0
655.8353	0.0	+	70	noun	phrase	1	11	nomatch	voilier	-1	0	TIMEOUT	-1.0
656.2351	0.0	+	70	noun	phrase	1	12	nomatch	voilier	-1	0	TIMEOUT	-1.0
658.2342	0.0	VOILIER	70	noun	phrase	1	13	nomatch	voilier	-1	0	TIMEOUT	-1.0
660.6497999999999	0.0	+	71	verb	list	1	1	nomatch	doit	-1	1	y	1.0037
661.2495	0.2	qpk	71	verb	list	1	2	nomatch	doit	-1	1	y	1.0037
661.4494	0.0	+	71	verb	list	1	3	nomatch	doit	-1	1	y	1.0037
661.8492	0.2	mkxz	71	verb	list	1	4	nomatch	doit	-1	1	y	1.0037
662.0491	0.0	+	71	verb	list	1	5	nomatch	doit	-1	1	y	1.0037
662.4489	0.2	pqk	71	verb	list	1	6	nomatch	doit	-1	1	y	1.0037
662.6487999999999	0.0	+	71	verb	list	1	7	nomatch	doit	-1	1	y	1.0037
663.0486	0.2	ckfqvlm	71	verb	list	1	8	nomatch	doit	-1	1	y	1.0037
663.2486	0.0	+	71	verb	list	1	9	nomatch	doit	-1	1	y	1.0037
663.6658	0.2	bleu	71	verb	list	1	10	nomatch	doit	-1	1	y	1.0037
663.8489999999999	0.0	+	71	verb	list	1	11	nomatch	doit	-1	1	y	1.0037
664.2655	0.0	+	71	verb	list	1	12	nomatch	doit	-1	1	y	1.0037
666.2471999999999	0.0	DOIT	71	verb	list	1	13	nomatch	doit	-1	1	y	1.0037
667.3134	0.0	+	71	verb	list	1	14	nomatch	doit	-1	1	y	1.0037
667.2509	0.0	[response]	71	verb	list	1	15	nomatch	doit	-1	1	y	1.0037
676.6424999999999	0.0	+	72	verb	phrase	1	1	match	jongler	5	1	p	0.94807
677.1922	0.2	lfs	72	verb	phrase	1	2	match	jongler	5	1	p	0.94807
677.3922	0.0	+	72	verb	phrase	1	3	match	jongler	5	1	p	0.94807
677.7919999999999	0.2	dvjc	72	verb	phrase	1	4	match	jongler	5	1	p	0.94807
677.9919	0.0	+	72	verb	phrase	1	5	match	jongler	5	1	p	0.94807
678.3920999999999	0.2	fhgp	72	verb	phrase	1	6	match	jongler	5	1	p	0.94807
678.5917999999999	0.0	+	72	verb	phrase	1	7	match	jongler	5	1	p	0.94807
678.992	0.2	jbcx	72	verb	phrase	1	8	match	jongler	5	1	p	0.94807
679.1918	0.0	+	72	verb	phrase	1	9	match	jongler	5	1	p	0.94807
679.5913999999999	0.2	jongler	72	verb	phrase	1	10	match	jongler	5	1	p	0.94807
679.7910999999999	0.0	+	72	verb	phrase	1	11	match	jongler	5	1	p	0.94807
680.1908999999999	0.0	+	72	verb	phrase	1	12	match	jongler	5	1	p	0.94807
682.1907	0.0	JONGLER	72	verb	phrase	1	13	match	jongler	5	1	p	0.94807
683.2062	0.0	+	72	verb	phrase	1	14	match	jongler	5	1	p	0.94807
683.1388	0.0	[response]	72	verb	phrase	1	15	match	jongler	5	1	p	0.94807
692.6352999999999	0.0	+	73	verb	list	2	1	match	patiner	5	0	y	5.2806
693.135	0.2	rjt	73	verb	list	2	2	match	patiner	5	0	y	5.2806
693.3349	0.0	+	73	verb	list	2	3	match	patiner	5	0	y	5.2806
693.7347	0.2	tfbq	73	verb	list	2	4	match	patiner	5	0	y	5.2806
693.9346999999999	0.0	+	73	verb	list	2	5	match	patiner	5	0	y	5.2806
694.3344999999999	0.2	kqfr	73	verb	list	2	6	match	patiner	5	0	y	5.2806
694.5344	0.0	+	73	verb	list	2	7	match	patiner	5	0	y	5.2806
694.9341999999999	0.2	petit	73	verb	list	2	8	match	patiner	5	0	y	5.2806
695.1341	0.0	+	73	verb	list	2	9	match	patiner	5	0	y	5.2806
695.5338999999999	0.2	patiner	73	verb	list	2	10	match	patiner	5	0	y	5.2806
695.7338	0.0	+	73	verb	list	2	11	match	patiner	5	0	y	5.2806
696.1337	0.0	+	73	verb	list	2	12	match	patiner	5	0	y	5.2806
698.1494	0.0	PATINER	73	verb	list	2	13	match	patiner	5	0	y	5.2806
703.497	0.0	+	73	verb	list	2	14	match	patiner	5	0	y	5.2806
703.43	0.0	[response]	73	verb	list	2	15	match	patiner	5	0	y	5.2806
708.5450999999999	0.0	+	74	verb	phrase	3	1	match	va	3	0	TIMEOUT	-1.0
709.0944	0.2	lsvjrpm	74	verb	phrase	3	2	match	va	3	0	TIMEOUT	-1.0
709.2942999999999	0.0	+	74	verb	phrase	3	3	match	va	3	0	TIMEOUT	-1.0
709.6941999999999	0.2	dxcb	74	verb	phrase	3	4	match	va	3	0	TIMEOUT	-1.0
709.8941	0.0	+	74	verb	phrase	3	5	match	va	3	0	TIMEOUT	-1.0
710.2939	0.2	va	74	verb	phrase	3	6	match	va	3	0	TIMEOUT	-1.0
710.4938	0.0	+	74	verb	phrase	3	7	match	va	3	0	TIMEOUT	-1.0
710.9108	0.2	moins	74	verb	phrase	3	8	match	va	3	0	TIMEOUT	-1.0
711.0938	0.0	+	74	verb	phrase	3	9	match	va	3	0	TIMEOUT	-1.0
711.4938999999999	0.2	plonger	74	verb	phrase	3	10	match	va	3	0	TIMEOUT	-1.0
711.6936999999999	0.0	+	74	verb	phrase	3	11	match	va	3	0	TIMEOUT	-1.0
712.0930999999999	0.0	+	74	verb	phrase	3	12	match	va	3	0	TIMEOUT	-1.0
714.0921999999999	0.0	VA	74	verb	phrase	3	13	match	va	3	0	TIMEOUT	-1.0
716.4918	0.0	+	75	verb	list	2	1	match	voyager	5	1	p	0.76454
717.0908	0.2	kglbd	75	verb	list	2	2	match	voyager	5	1	p	0.76454
717.2907	0.0	+	75	verb	list	2	3	match	voyager	5	1	p	0.76454
717.6904999999999	0.2	gbpz	75	verb	list	2	4	match	voyager	5	1	p	0.76454
717.8905	0.0	+	75	verb	list	2	5	match	voyager	5	1	p	0.76454
718.2903	0.2	fhgp	75	verb	list	2	6	match	voyager	5	1	p	0.76454
718.4902	0.0	+	75	verb	list	2	7	match	voyager	5	1	p	0.76454
718.89	0.2	beau	75	verb	list	2	8	match	voyager	5	1	p	0.76454
719.0899	0.0	+	75	verb	list	2	9	match	voyager	5	1	p	0.76454
719.4897	0.2	voyager	75	verb	list	2	10	match	voyager	5	1	p	0.76454
719.6895999999999	0.0	+	75	verb	list	2	11	match	voyager	5	1	p	0.76454
720.0895999999999	0.0	+	75	verb	list	2	12	match	voyager	5	1	p	0.76454
722.0885999999999	0.0	VOYAGER	75	verb	list	2	13	match	voyager	5	1	p	0.76454
722.9049	0.0	+	75	verb	list	2	14	match	voyager	5	1	p	0.76454
722.8530999999999	0.0	[response]	75	verb	list	2	15	match	voyager	5	1	p	0.76454
724.4875	0.0	+	76	noun	phrase	2	1	nomatch	bleu	-1	1	y	2.1864000000000003
725.0372	0.2	mfp	76	noun	phrase	2	2	nomatch	bleu	-1	1	y	2.1864000000000003
725.2370999999999	0.0	+	76	noun	phrase	2	3	nomatch	bleu	-1	1	y	2.1864000000000003
725.6369	0.2	mrlw	76	noun	phrase	2	4	nomatch	bleu	-1	1	y	2.1864000000000003
725.8369	0.0	+	76	noun	phrase	2	5	nomatch	bleu	-1	1	y	2.1864000000000003
726.2371999999999	0.2	smx	76	noun	phrase	2	6	nomatch	bleu	-1	1	y	2.1864000000000003
726.4535999999999	0.0	+	76	noun	phrase	2	7	nomatch	bleu	-1	1	y	2.1864000000000003
726.837	0.2	tablier	76	noun	phrase	2	8	nomatch	bleu	-1	1	y	2.1864000000000003
727.0363	0.0	+	76	noun	phrase	2	9	nomatch	bleu	-1	1	y	2.1864000000000003
727.4361	0.2	noir	76	noun	phrase	2	10	nomatch	bleu	-1	1	y	2.1864000000000003
727.6366999999999	0.0	+	76	noun	phrase	2	11	nomatch	bleu	-1	1	y	2.1864000000000003
728.0364	0.0	+	76	noun	phrase	2	12	nomatch	bleu	-1	1	y	2.1864000000000003
730.0349	0.0	BLEU	76	noun	phrase	2	13	nomatch	bleu	-1	1	y	2.1864000000000003
732.2838999999999	0.0	+	76	noun	phrase	2	14	nomatch	bleu	-1	1	y	2.1864000000000003
732.2213	0.0	[response]	76	noun	phrase	2	15	nomatch	bleu	-1	1	y	2.1864000000000003
732.4339	0.0	+	77	verb	phrase	1	1	match	patiner	5	1	p	1.3596
732.9838	0.2	ftrwjm	77	verb	phrase	1	2	match	patiner	5	1	p	1.3596
733.1835	0.0	+	77	verb	phrase	1	3	match	patiner	5	1	p	1.3596
733.5999999999999	0.2	vhfx	77	verb	phrase	1	4	match	patiner	5	1	p	1.3596
733.7999	0.0	+	77	verb	phrase	1	5	match	patiner	5	1	p	1.3596
734.1997	0.2	tk	77	verb	phrase	1	6	match	patiner	5	1	p	1.3596
734.3996	0.0	+	77	verb	phrase	1	7	match	patiner	5	1	p	1.3596
734.7994	0.2	lgqmd	77	verb	phrase	1	8	match	patiner	5	1	p	1.3596
734.9993999999999	0.0	+	77	verb	phrase	1	9	match	patiner	5	1	p	1.3596
735.3992	0.2	patiner	77	verb	phrase	1	10	match	patiner	5	1	p	1.3596
735.5990999999999	0.0	+	77	verb	phrase	1	11	match	patiner	5	1	p	1.3596
735.9995	0.0	+	77	verb	phrase	1	12	match	patiner	5	1	p	1.3596
737.9979999999999	0.0	PATINER	77	verb	phrase	1	13	match	patiner	5	1	p	1.3596
739.414	0.0	+	77	verb	phrase	1	14	match	patiner	5	1	p	1.3596
739.3575999999999	0.0	[response]	77	verb	phrase	1	15	match	patiner	5	1	p	1.3596
740.3969	0.0	+	78	verb	list	2	1	nomatch	nouveau	-1	0	TIMEOUT	-1.0
740.9467	0.2	zjtbdl	78	verb	list	2	2	nomatch	nouveau	-1	0	TIMEOUT	-1.0
741.1465999999999	0.0	+	78	verb	list	2	3	nomatch	nouveau	-1	0	TIMEOUT	-1.0
741.5464	0.2	dsmq	78	verb	list	2	4	nomatch	nouveau	-1	0	TIMEOUT	-1.0
741.7462999999999	0.0	+	78	verb	list	2	5	nomatch	nouveau	-1	0	TIMEOUT	-1.0
742.1460999999999	0.2	fhgp	78	verb	list	2	6	nomatch	nouveau	-1	0	TIMEOUT	-1.0
742.346	0.0	+	78	verb	list	2	7	nomatch	nouveau	-1	0	TIMEOUT	-1.0
742.7457999999999	0.2	vieux	78	verb	list	2	8	nomatch	nouveau	-1	0	TIMEOUT	-1.0
742.9458	0.0	+	78	verb	list	2	9	nomatch	nouveau	-1	0	TIMEOUT	-1.0
743.3458999999999	0.2	danser	78	verb	list	2	10	nomatch	nouveau	-1	0	TIMEOUT	-1.0
743.5459999999999	0.0	+	78	verb	list	2	11	nomatch	nouveau	-1	0	TIMEOUT	-1.0
743.9453	0.0	+	78	verb	list	2	12	nomatch	nouveau	-1	0	TIMEOUT	-1.0
745.9444	0.0	NOUVEAU	78	verb	list	2	13	nomatch	nouveau	-1	0	TIMEOUT	-1.0
748.3433	0.0	+	79	verb	list	2	1	nomatch	adam	-1	1	y	1.8708
748.9431	0.2	vdcr	79	verb	list	2	2	nomatch	adam	-1	1	y	1.8708
749.1429999999999	0.0	+	79	verb	list	2	3	nomatch	adam	-1	1	y	1.8708
749.5427999999999	0.2	mkxz	79	verb	list	2	4	nomatch	adam	-1	1	y	1.8708
749.7427	0.0	+	79	verb	list	2	5	nomatch	adam	-1	1	y	1.8708
750.1424999999999	0.2	smx	79	verb	list	2	6	nomatch	adam	-1	1	y	1.8708
750.3424	0.0	+	79	verb	list	2	7	nomatch	adam	-1	1	y	1.8708
750.7421999999999	0.2	rouler	79	verb	list	2	8	nomatch	adam	-1	1	y	1.8708
750.9421	0.0	+	79	verb	list	2	9	nomatch	adam	-1	1	y	1.8708
751.342	0.2	rouge	79	verb	list	2	10	nomatch	adam	-1	1	y	1.8708
751.5418999999999	0.0	+	79	verb	list	2	11	nomatch	adam	-1	1	y	1.8708
751.9417	0.0	+	79	verb	list	2	12	nomatch	adam	-1	1	y	1.8708
753.9412	0.0	ADAM	79	verb	list	2	13	nomatch	adam	-1	1	y	1.8708
755.8732	0.0	+	79	verb	list	2	14	nomatch	adam	-1	1	y	1.8708
755.8120000000001	0.0	[response]	79	verb	list	2	15	nomatch	adam	-1	1	y	1.8708
756.3397	0.0	+	80	verb	phrase	3	1	match	jongler	4	1	p	0.84013
756.8893999999999	0.2	bwm	80	verb	phrase	3	2	match	jongler	4	1	p	0.84013
757.0894	0.0	+	80	verb	phrase	3	3	match	jongler	4	1	p	0.84013
757.4892	0.2	dvjc	80	verb	phrase	3	4	match	jongler	4	1	p	0.84013
757.6890999999999	0.0	+	80	verb	phrase	3	5	match	jongler	4	1	p	0.84013
758.0889	0.2	peut	80	verb	phrase	3	6	match	jongler	4	1	p	0.84013
758.2887999999999	0.0	+	80	verb	phrase	3	7	match	jongler	4	1	p	0.84013
758.6886	0.2	jongler	80	verb	phrase	3	8	match	jongler	4	1	p	0.84013
758.8884999999999	0.0	+	80	verb	phrase	3	9	match	jongler	4	1	p	0.84013
759.2882999999999	0.2	loin	80	verb	phrase	3	10	match	jongler	4	1	p	0.84013
759.4883	0.0	+	80	verb	phrase	3	11	match	jongler	4	1	p	0.84013
759.8884999999999	0.0	+	80	verb	phrase	3	12	match	jongler	4	1	p	0.84013
761.8872	0.0	JONGLER	80	verb	phrase	3	13	match	jongler	4	1	p	0.84013
762.7868	0.0	+	80	verb	phrase	3	14	match	jongler	4	1	p	0.84013
764.2860999999999	0.0	+	80	verb	phrase	3	15	match	jongler	4	1	p	0.84013
765.0024	0.0	+	80	verb	phrase	3	16	match	jongler	4	1	p	0.84013
765.1024	0.0	+	80	verb	phrase	3	17	match	jongler	4	1	p	0.84013
766.5018	0.0	+	80	verb	phrase	3	18	match	jongler	4	1	p	0.84013
766.6016999999999	0.0	+	80	verb	phrase	3	19	match	jongler	4	1	p	0.84013
768.0011	0.0	+	80	verb	phrase	3	20	match	jongler	4	1	p	0.84013
768.101	0.0	+	80	verb	phrase	3	21	match	jongler	4	1	p	0.84013
769.5004	0.0	+	80	verb	phrase	3	22	match	jongler	4	1	p	0.84013
769.6003	0.0	+	80	verb	phrase	3	23	match	jongler	4	1	p	0.84013
770.9997	0.0	+	80	verb	phrase	3	24	match	jongler	4	1	p	0.84013
771.0997	0.0	+	80	verb	phrase	3	25	match	jongler	4	1	p	0.84013
772.4989999999999	0.0	+	80	verb	phrase	3	26	match	jongler	4	1	p	0.84013
772.5989999999999	0.0	+	80	verb	phrase	3	27	match	jongler	4	1	p	0.84013
773.9984	0.0	+	80	verb	phrase	3	28	match	jongler	4	1	p	0.84013
774.0983	0.0	+	80	verb	phrase	3	29	match	jongler	4	1	p	0.84013
775.4977	0.0	+	80	verb	phrase	3	30	match	jongler	4	1	p	0.84013
775.5975999999999	0.0	+	80	verb	phrase	3	31	match	jongler	4	1	p	0.84013
776.997	0.0	+	80	verb	phrase	3	32	match	jongler	4	1	p	0.84013
777.0969	0.0	+	80	verb	phrase	3	33	match	jongler	4	1	p	0.84013
778.4962999999999	0.0	+	80	verb	phrase	3	34	match	jongler	4	1	p	0.84013
778.5962999999999	0.0	+	80	verb	phrase	3	35	match	jongler	4	1	p	0.84013
785.7097	0.0	+	80	verb	phrase	3	36	match	jongler	4	1	p	0.84013
762.7273	0.0	[response]	80	verb	phrase	3	37	match	jongler	4	1	p	0.84013
