onset	duration	stim	trial_number	trial_type	trial_structure	trial_length	sequential_position	probe_type	probe	probe_position	response_correct	response_key	response_time
0.06419999999999959	0.0	+	1	noun	phrase	3	1	nomatch	beau	-1	1	y	1.1516
0.5472999999999999	0.2	mbc	1	noun	phrase	3	2	nomatch	beau	-1	1	y	1.1516
0.7471999999999994	0.0	+	1	noun	phrase	3	3	nomatch	beau	-1	1	y	1.1516
1.1470999999999947	0.2	dxvn	1	noun	phrase	3	4	nomatch	beau	-1	1	y	1.1516
1.3469999999999942	0.0	+	1	noun	phrase	3	5	nomatch	beau	-1	1	y	1.1516
1.7467999999999932	0.2	mon	1	noun	phrase	3	6	nomatch	beau	-1	1	y	1.1516
1.9466999999999999	0.0	+	1	noun	phrase	3	7	nomatch	beau	-1	1	y	1.1516
2.346499999999999	0.2	panier	1	noun	phrase	3	8	nomatch	beau	-1	1	y	1.1516
2.5463999999999984	0.0	+	1	noun	phrase	3	9	nomatch	beau	-1	1	y	1.1516
2.9461999999999975	0.2	blanc	1	noun	phrase	3	10	nomatch	beau	-1	1	y	1.1516
3.1461999999999932	0.0	+	1	noun	phrase	3	11	nomatch	beau	-1	1	y	1.1516
3.5460999999999956	0.0	+	1	noun	phrase	3	12	nomatch	beau	-1	1	y	1.1516
5.545099999999998	0.0	BEAU	1	noun	phrase	3	13	nomatch	beau	-1	1	y	1.1516
6.7779000000000025	0.0	+	1	noun	phrase	3	14	nomatch	beau	-1	1	y	1.1516
6.696699999999993	0.0	[response]	1	noun	phrase	3	15	nomatch	beau	-1	1	y	1.1516
7.944000000000003	0.0	+	2	verb	list	1	1	nomatch	patiner	-1	1	y	0.63055
8.49369999999999	0.2	hnm	2	verb	list	1	2	nomatch	patiner	-1	1	y	0.63055
8.693600000000004	0.0	+	2	verb	list	1	3	nomatch	patiner	-1	1	y	0.63055
9.093499999999992	0.2	lbvx	2	verb	list	1	4	nomatch	patiner	-1	1	y	0.63055
9.293399999999991	0.0	+	2	verb	list	1	5	nomatch	patiner	-1	1	y	0.63055
9.69319999999999	0.2	pv	2	verb	list	1	6	nomatch	patiner	-1	1	y	0.63055
9.89309999999999	0.0	+	2	verb	list	1	7	nomatch	patiner	-1	1	y	0.63055
10.292900000000003	0.2	kgmxp	2	verb	list	1	8	nomatch	patiner	-1	1	y	0.63055
10.492800000000003	0.0	+	2	verb	list	1	9	nomatch	patiner	-1	1	y	0.63055
10.89269999999999	0.2	jongler	2	verb	list	1	10	nomatch	patiner	-1	1	y	0.63055
11.10929999999999	0.0	+	2	verb	list	1	11	nomatch	patiner	-1	1	y	0.63055
11.492999999999995	0.0	+	2	verb	list	1	12	nomatch	patiner	-1	1	y	0.63055
13.491500000000002	0.0	PATINER	2	verb	list	1	13	nomatch	patiner	-1	1	y	0.63055
14.207799999999992	0.0	+	2	verb	list	1	14	nomatch	patiner	-1	1	y	0.63055
14.122100000000003	0.0	[response]	2	verb	list	1	15	nomatch	patiner	-1	1	y	0.63055
15.8904	0.0	+	3	noun	list	1	1	match	tablier	5	1	p	0.54428
16.44019999999999	0.2	sjcwq	3	noun	list	1	2	match	tablier	5	1	p	0.54428
16.64009999999999	0.0	+	3	noun	list	1	3	match	tablier	5	1	p	0.54428
17.039900000000003	0.2	zbvr	3	noun	list	1	4	match	tablier	5	1	p	0.54428
17.239800000000002	0.0	+	3	noun	list	1	5	match	tablier	5	1	p	0.54428
17.6396	0.2	xnhd	3	noun	list	1	6	match	tablier	5	1	p	0.54428
17.839699999999993	0.0	+	3	noun	list	1	7	match	tablier	5	1	p	0.54428
18.239400000000003	0.2	lkdjn	3	noun	list	1	8	match	tablier	5	1	p	0.54428
18.439399999999992	0.0	+	3	noun	list	1	9	match	tablier	5	1	p	0.54428
18.839799999999997	0.2	tablier	3	noun	list	1	10	match	tablier	5	1	p	0.54428
19.039	0.0	+	3	noun	list	1	11	match	tablier	5	1	p	0.54428
19.4388	0.0	+	3	noun	list	1	12	match	tablier	5	1	p	0.54428
21.4379	0.0	TABLIER	3	noun	list	1	13	match	tablier	5	1	p	0.54428
22.0377	0.0	+	3	noun	list	1	14	match	tablier	5	1	p	0.54428
21.98219999999999	0.0	[response]	3	noun	list	1	15	match	tablier	5	1	p	0.54428
23.836799999999997	0.0	+	4	noun	list	2	1	nomatch	noir	-1	1	y	0.70574
24.3866	0.2	pvzf	4	noun	list	2	2	nomatch	noir	-1	1	y	0.70574
24.5865	0.0	+	4	noun	list	2	3	nomatch	noir	-1	1	y	0.70574
24.98689999999999	0.2	dxvn	4	noun	list	2	4	nomatch	noir	-1	1	y	0.70574
25.1862	0.0	+	4	noun	list	2	5	nomatch	noir	-1	1	y	0.70574
25.58619999999999	0.2	qcpb	4	noun	list	2	6	nomatch	noir	-1	1	y	0.70574
25.78649999999999	0.0	+	4	noun	list	2	7	nomatch	noir	-1	1	y	0.70574
26.1858	0.2	rocher	4	noun	list	2	8	nomatch	noir	-1	1	y	0.70574
26.3857	0.0	+	4	noun	list	2	9	nomatch	noir	-1	1	y	0.70574
26.7855	0.2	vite	4	noun	list	2	10	nomatch	noir	-1	1	y	0.70574
26.9854	0.0	+	4	noun	list	2	11	nomatch	noir	-1	1	y	0.70574
27.385199999999998	0.0	+	4	noun	list	2	12	nomatch	noir	-1	1	y	0.70574
29.384299999999996	0.0	NOIR	4	noun	list	2	13	nomatch	noir	-1	1	y	0.70574
30.151299999999992	0.0	+	4	noun	list	2	14	nomatch	noir	-1	1	y	0.70574
30.090099999999993	0.0	[response]	4	noun	list	2	15	nomatch	noir	-1	1	y	0.70574
31.799899999999994	0.0	+	5	verb	phrase	4	1	match	peut	3	1	p	0.9393000000000001
32.3497	0.2	nqrdcmw	5	verb	phrase	4	2	match	peut	3	1	p	0.9393000000000001
32.5496	0.0	+	5	verb	phrase	4	3	match	peut	3	1	p	0.9393000000000001
32.9494	0.2	jean	5	verb	phrase	4	4	match	peut	3	1	p	0.9393000000000001
33.1493	0.0	+	5	verb	phrase	4	5	match	peut	3	1	p	0.9393000000000001
33.549499999999995	0.2	peut	5	verb	phrase	4	6	match	peut	3	1	p	0.9393000000000001
33.748999999999995	0.0	+	5	verb	phrase	4	7	match	peut	3	1	p	0.9393000000000001
34.1489	0.2	moins	5	verb	phrase	4	8	match	peut	3	1	p	0.9393000000000001
34.3488	0.0	+	5	verb	phrase	4	9	match	peut	3	1	p	0.9393000000000001
34.748599999999996	0.2	rouler	5	verb	phrase	4	10	match	peut	3	1	p	0.9393000000000001
34.948499999999996	0.0	+	5	verb	phrase	4	11	match	peut	3	1	p	0.9393000000000001
35.348299999999995	0.0	+	5	verb	phrase	4	12	match	peut	3	1	p	0.9393000000000001
37.34739999999999	0.0	PEUT	5	verb	phrase	4	13	match	peut	3	1	p	0.9393000000000001
38.346999999999994	0.0	+	5	verb	phrase	4	14	match	peut	3	1	p	0.9393000000000001
38.286699999999996	0.0	[response]	5	verb	phrase	4	15	match	peut	3	1	p	0.9393000000000001
39.74629999999999	0.0	+	6	noun	phrase	2	1	nomatch	va	-1	1	y	0.84585
40.296099999999996	0.2	cqkrdbf	6	noun	phrase	2	2	nomatch	va	-1	1	y	0.84585
40.495999999999995	0.0	+	6	noun	phrase	2	3	nomatch	va	-1	1	y	0.84585
40.895799999999994	0.2	dxvn	6	noun	phrase	2	4	nomatch	va	-1	1	y	0.84585
41.095699999999994	0.0	+	6	noun	phrase	2	5	nomatch	va	-1	1	y	0.84585
41.4957	0.2	rfc	6	noun	phrase	2	6	nomatch	va	-1	1	y	0.84585
41.695499999999996	0.0	+	6	noun	phrase	2	7	nomatch	va	-1	1	y	0.84585
42.095299999999995	0.2	grenier	6	noun	phrase	2	8	nomatch	va	-1	1	y	0.84585
42.295199999999994	0.0	+	6	noun	phrase	2	9	nomatch	va	-1	1	y	0.84585
42.712199999999996	0.2	noir	6	noun	phrase	2	10	nomatch	va	-1	1	y	0.84585
42.8956	0.0	+	6	noun	phrase	2	11	nomatch	va	-1	1	y	0.84585
43.294799999999995	0.0	+	6	noun	phrase	2	12	nomatch	va	-1	1	y	0.84585
45.2946	0.0	VA	6	noun	phrase	2	13	nomatch	va	-1	1	y	0.84585
46.1935	0.0	+	6	noun	phrase	2	14	nomatch	va	-1	1	y	0.84585
46.1405	0.0	[response]	6	noun	phrase	2	15	nomatch	va	-1	1	y	0.84585
47.69279999999999	0.0	+	7	noun	list	3	1	nomatch	dans	-1	1	y	0.59902
48.24249999999999	0.2	dqgh	7	noun	list	3	2	nomatch	dans	-1	1	y	0.59902
48.44239999999999	0.0	+	7	noun	list	3	3	nomatch	dans	-1	1	y	0.59902
48.842299999999994	0.2	tjxp	7	noun	list	3	4	nomatch	dans	-1	1	y	0.59902
49.042199999999994	0.0	+	7	noun	list	3	5	nomatch	dans	-1	1	y	0.59902
49.4423	0.2	mon	7	noun	list	3	6	nomatch	dans	-1	1	y	0.59902
49.6425	0.0	+	7	noun	list	3	7	nomatch	dans	-1	1	y	0.59902
50.059	0.2	trop	7	noun	list	3	8	nomatch	dans	-1	1	y	0.59902
50.24159999999999	0.0	+	7	noun	list	3	9	nomatch	dans	-1	1	y	0.59902
50.64139999999999	0.2	tablier	7	noun	list	3	10	nomatch	dans	-1	1	y	0.59902
50.84139999999999	0.0	+	7	noun	list	3	11	nomatch	dans	-1	1	y	0.59902
51.24119999999999	0.0	+	7	noun	list	3	12	nomatch	dans	-1	1	y	0.59902
53.24029999999999	0.0	DANS	7	noun	list	3	13	nomatch	dans	-1	1	y	0.59902
53.92349999999999	0.0	+	7	noun	list	3	14	nomatch	dans	-1	1	y	0.59902
53.839299999999994	0.0	[response]	7	noun	list	3	15	nomatch	dans	-1	1	y	0.59902
63.6357	0.0	+	8	noun	phrase	3	1	nomatch	moins	-1	1	y	0.73426
64.18599999999999	0.2	psh	8	noun	phrase	3	2	nomatch	moins	-1	1	y	0.73426
64.3853	0.0	+	8	noun	phrase	3	3	nomatch	moins	-1	1	y	0.73426
64.7851	0.2	dxvn	8	noun	phrase	3	4	nomatch	moins	-1	1	y	0.73426
64.98519999999999	0.0	+	8	noun	phrase	3	5	nomatch	moins	-1	1	y	0.73426
65.38539999999999	0.2	leur	8	noun	phrase	3	6	nomatch	moins	-1	1	y	0.73426
65.5852	0.0	+	8	noun	phrase	3	7	nomatch	moins	-1	1	y	0.73426
65.9851	0.2	sablier	8	noun	phrase	3	8	nomatch	moins	-1	1	y	0.73426
66.1852	0.0	+	8	noun	phrase	3	9	nomatch	moins	-1	1	y	0.73426
66.5846	0.2	noir	8	noun	phrase	3	10	nomatch	moins	-1	1	y	0.73426
66.7842	0.0	+	8	noun	phrase	3	11	nomatch	moins	-1	1	y	0.73426
67.184	0.0	+	8	noun	phrase	3	12	nomatch	moins	-1	1	y	0.73426
69.1998	0.0	MOINS	8	noun	phrase	3	13	nomatch	moins	-1	1	y	0.73426
69.9994	0.0	+	8	noun	phrase	3	14	nomatch	moins	-1	1	y	0.73426
69.93399999999998	0.0	[response]	8	noun	phrase	3	15	nomatch	moins	-1	1	y	0.73426
71.5987	0.0	+	9	verb	list	3	1	match	mon	3	1	p	0.83104
72.1484	0.2	hsbvcd	9	verb	list	3	2	match	mon	3	1	p	0.83104
72.34839999999998	0.0	+	9	verb	list	3	3	match	mon	3	1	p	0.83104
72.74829999999999	0.2	bnmr	9	verb	list	3	4	match	mon	3	1	p	0.83104
72.98209999999999	0.0	+	9	verb	list	3	5	match	mon	3	1	p	0.83104
73.3481	0.2	mon	9	verb	list	3	6	match	mon	3	1	p	0.83104
73.54809999999999	0.0	+	9	verb	list	3	7	match	mon	3	1	p	0.83104
73.9483	0.2	danser	9	verb	list	3	8	match	mon	3	1	p	0.83104
74.1475	0.0	+	9	verb	list	3	9	match	mon	3	1	p	0.83104
74.5474	0.2	vert	9	verb	list	3	10	match	mon	3	1	p	0.83104
74.74730000000001	0.0	+	9	verb	list	3	11	match	mon	3	1	p	0.83104
75.14710000000001	0.0	+	9	verb	list	3	12	match	mon	3	1	p	0.83104
77.14620000000001	0.0	MON	9	verb	list	3	13	match	mon	3	1	p	0.83104
78.0631	0.0	+	9	verb	list	3	14	match	mon	3	1	p	0.83104
77.9772	0.0	[response]	9	verb	list	3	15	match	mon	3	1	p	0.83104
79.5451	0.0	+	10	noun	phrase	1	1	nomatch	peut	-1	1	y	0.83613
80.09490000000001	0.2	hcmvsw	10	noun	phrase	1	2	nomatch	peut	-1	1	y	0.83613
80.2948	0.0	+	10	noun	phrase	1	3	nomatch	peut	-1	1	y	0.83613
80.6946	0.2	wpc	10	noun	phrase	1	4	nomatch	peut	-1	1	y	0.83613
80.89450000000001	0.0	+	10	noun	phrase	1	5	nomatch	peut	-1	1	y	0.83613
81.2943	0.2	vfcg	10	noun	phrase	1	6	nomatch	peut	-1	1	y	0.83613
81.49419999999999	0.0	+	10	noun	phrase	1	7	nomatch	peut	-1	1	y	0.83613
81.91099999999999	0.2	cvwk	10	noun	phrase	1	8	nomatch	peut	-1	1	y	0.83613
82.11129999999999	0.0	+	10	noun	phrase	1	9	nomatch	peut	-1	1	y	0.83613
82.51109999999998	0.2	clavier	10	noun	phrase	1	10	nomatch	peut	-1	1	y	0.83613
82.69439999999999	0.0	+	10	noun	phrase	1	11	nomatch	peut	-1	1	y	0.83613
83.09419999999999	0.0	+	10	noun	phrase	1	12	nomatch	peut	-1	1	y	0.83613
85.0931	0.0	PEUT	10	noun	phrase	1	13	nomatch	peut	-1	1	y	0.83613
85.99219999999998	0.0	+	10	noun	phrase	1	14	nomatch	peut	-1	1	y	0.83613
85.9293	0.0	[response]	10	noun	phrase	1	15	nomatch	peut	-1	1	y	0.83613
87.49149999999999	0.0	+	11	noun	phrase	4	1	match	blanc	5	1	p	1.1658
88.04129999999999	0.2	frjntc	11	noun	phrase	4	2	match	blanc	5	1	p	1.1658
88.2412	0.0	+	11	noun	phrase	4	3	match	blanc	5	1	p	1.1658
88.641	0.2	sous	11	noun	phrase	4	4	match	blanc	5	1	p	1.1658
88.84089999999999	0.0	+	11	noun	phrase	4	5	match	blanc	5	1	p	1.1658
89.2412	0.2	leur	11	noun	phrase	4	6	match	blanc	5	1	p	1.1658
89.4413	0.0	+	11	noun	phrase	4	7	match	blanc	5	1	p	1.1658
89.85719999999999	0.2	rocher	11	noun	phrase	4	8	match	blanc	5	1	p	1.1658
90.0577	0.0	+	11	noun	phrase	4	9	match	blanc	5	1	p	1.1658
90.44019999999999	0.2	blanc	11	noun	phrase	4	10	match	blanc	5	1	p	1.1658
90.6401	0.0	+	11	noun	phrase	4	11	match	blanc	5	1	p	1.1658
91.0399	0.0	+	11	noun	phrase	4	12	match	blanc	5	1	p	1.1658
93.039	0.0	BLANC	11	noun	phrase	4	13	match	blanc	5	1	p	1.1658
94.27219999999998	0.0	+	11	noun	phrase	4	14	match	blanc	5	1	p	1.1658
94.2049	0.0	[response]	11	noun	phrase	4	15	match	blanc	5	1	p	1.1658
103.4344	0.0	+	12	noun	phrase	4	1	match	beau	4	1	p	1.0191
103.9842	0.2	wgxplb	12	noun	phrase	4	2	match	beau	4	1	p	1.0191
104.1843	0.0	+	12	noun	phrase	4	3	match	beau	4	1	p	1.0191
104.58380000000001	0.2	sans	12	noun	phrase	4	4	match	beau	4	1	p	1.0191
104.784	0.0	+	12	noun	phrase	4	5	match	beau	4	1	p	1.0191
105.1836	0.2	son	12	noun	phrase	4	6	match	beau	4	1	p	1.0191
105.4001	0.0	+	12	noun	phrase	4	7	match	beau	4	1	p	1.0191
105.8	0.2	beau	12	noun	phrase	4	8	match	beau	4	1	p	1.0191
105.99989999999998	0.0	+	12	noun	phrase	4	9	match	beau	4	1	p	1.0191
106.39970000000001	0.2	boîtier	12	noun	phrase	4	10	match	beau	4	1	p	1.0191
106.5996	0.0	+	12	noun	phrase	4	11	match	beau	4	1	p	1.0191
106.9994	0.0	+	12	noun	phrase	4	12	match	beau	4	1	p	1.0191
108.99849999999999	0.0	BEAU	12	noun	phrase	4	13	match	beau	4	1	p	1.0191
110.08139999999999	0.0	+	12	noun	phrase	4	14	match	beau	4	1	p	1.0191
110.0176	0.0	[response]	12	noun	phrase	4	15	match	beau	4	1	p	1.0191
111.39739999999999	0.0	+	13	noun	list	1	1	match	moins	5	1	p	0.88486
111.9472	0.2	rgbxp	13	noun	list	1	2	match	moins	5	1	p	0.88486
112.14710000000001	0.0	+	13	noun	list	1	3	match	moins	5	1	p	0.88486
112.54690000000001	0.2	tjxp	13	noun	list	1	4	match	moins	5	1	p	0.88486
112.7468	0.0	+	13	noun	list	1	5	match	moins	5	1	p	0.88486
113.1467	0.2	vfcg	13	noun	list	1	6	match	moins	5	1	p	0.88486
113.34660000000001	0.0	+	13	noun	list	1	7	match	moins	5	1	p	0.88486
113.76369999999999	0.2	hsmdfnc	13	noun	list	1	8	match	moins	5	1	p	0.88486
113.9463	0.0	+	13	noun	list	1	9	match	moins	5	1	p	0.88486
114.34609999999999	0.2	moins	13	noun	list	1	10	match	moins	5	1	p	0.88486
114.546	0.0	+	13	noun	list	1	11	match	moins	5	1	p	0.88486
114.9458	0.0	+	13	noun	list	1	12	match	moins	5	1	p	0.88486
116.9449	0.0	MOINS	13	noun	list	1	13	match	moins	5	1	p	0.88486
117.91170000000001	0.0	+	13	noun	list	1	14	match	moins	5	1	p	0.88486
117.82979999999999	0.0	[response]	13	noun	list	1	15	match	moins	5	1	p	0.88486
119.3439	0.0	+	14	noun	list	3	1	nomatch	vite	-1	1	y	0.70067
119.8936	0.2	lqkfv	14	noun	list	3	2	nomatch	vite	-1	1	y	0.70067
120.09349999999999	0.0	+	14	noun	list	3	3	nomatch	vite	-1	1	y	0.70067
120.4934	0.2	dxvn	14	noun	list	3	4	nomatch	vite	-1	1	y	0.70067
120.69330000000001	0.0	+	14	noun	list	3	5	nomatch	vite	-1	1	y	0.70067
121.0931	0.2	peut	14	noun	list	3	6	nomatch	vite	-1	1	y	0.70067
121.29299999999999	0.0	+	14	noun	list	3	7	nomatch	vite	-1	1	y	0.70067
121.693	0.2	panier	14	noun	list	3	8	nomatch	vite	-1	1	y	0.70067
121.8934	0.0	+	14	noun	list	3	9	nomatch	vite	-1	1	y	0.70067
122.2933	0.2	loin	14	noun	list	3	10	nomatch	vite	-1	1	y	0.70067
122.49300000000001	0.0	+	14	noun	list	3	11	nomatch	vite	-1	1	y	0.70067
122.909	0.0	+	14	noun	list	3	12	nomatch	vite	-1	1	y	0.70067
124.89139999999999	0.0	VITE	14	noun	list	3	13	nomatch	vite	-1	1	y	0.70067
125.65769999999999	0.0	+	14	noun	list	3	14	nomatch	vite	-1	1	y	0.70067
125.592	0.0	[response]	14	noun	list	3	15	nomatch	vite	-1	1	y	0.70067
143.2998	0.0	+	15	noun	list	2	1	nomatch	marc	-1	1	y	0.96866
143.84949999999998	0.2	cvl	15	noun	list	2	2	nomatch	marc	-1	1	y	0.96866
144.0494	0.0	+	15	noun	list	2	3	nomatch	marc	-1	1	y	0.96866
144.4493	0.2	tjxp	15	noun	list	2	4	nomatch	marc	-1	1	y	0.96866
144.6492	0.0	+	15	noun	list	2	5	nomatch	marc	-1	1	y	0.96866
145.04899999999998	0.2	tqd	15	noun	list	2	6	nomatch	marc	-1	1	y	0.96866
145.2489	0.0	+	15	noun	list	2	7	nomatch	marc	-1	1	y	0.96866
145.6492	0.2	trop	15	noun	list	2	8	nomatch	marc	-1	1	y	0.96866
145.8657	0.0	+	15	noun	list	2	9	nomatch	marc	-1	1	y	0.96866
146.24849999999998	0.2	grenier	15	noun	list	2	10	nomatch	marc	-1	1	y	0.96866
146.449	0.0	+	15	noun	list	2	11	nomatch	marc	-1	1	y	0.96866
146.84820000000002	0.0	+	15	noun	list	2	12	nomatch	marc	-1	1	y	0.96866
148.848	0.0	MARC	15	noun	list	2	13	nomatch	marc	-1	1	y	0.96866
149.93079999999998	0.0	+	15	noun	list	2	14	nomatch	marc	-1	1	y	0.96866
149.81669999999997	0.0	[response]	15	noun	list	2	15	nomatch	marc	-1	1	y	0.96866
151.2462	0.0	+	16	verb	list	4	1	match	mon	3	0	y	2.0595
151.79590000000002	0.2	vspmbdc	16	verb	list	4	2	match	mon	3	0	y	2.0595
151.99579999999997	0.0	+	16	verb	list	4	3	match	mon	3	0	y	2.0595
152.39589999999998	0.2	paul	16	verb	list	4	4	match	mon	3	0	y	2.0595
152.6125	0.0	+	16	verb	list	4	5	match	mon	3	0	y	2.0595
153.01279999999997	0.2	mon	16	verb	list	4	6	match	mon	3	0	y	2.0595
153.19580000000002	0.0	+	16	verb	list	4	7	match	mon	3	0	y	2.0595
153.5951	0.2	danser	16	verb	list	4	8	match	mon	3	0	y	2.0595
153.79500000000002	0.0	+	16	verb	list	4	9	match	mon	3	0	y	2.0595
154.19490000000002	0.2	rouge	16	verb	list	4	10	match	mon	3	0	y	2.0595
154.39479999999998	0.0	+	16	verb	list	4	11	match	mon	3	0	y	2.0595
154.7946	0.0	+	16	verb	list	4	12	match	mon	3	0	y	2.0595
156.79430000000002	0.0	MON	16	verb	list	4	13	match	mon	3	0	y	2.0595
158.9094	0.0	+	16	verb	list	4	14	match	mon	3	0	y	2.0595
158.85379999999998	0.0	[response]	16	verb	list	4	15	match	mon	3	0	y	2.0595
167.18900000000002	0.0	+	17	verb	phrase	1	1	nomatch	leur	-1	1	y	0.77988
167.73879999999997	0.2	bfr	17	verb	phrase	1	2	nomatch	leur	-1	1	y	0.77988
167.93869999999998	0.0	+	17	verb	phrase	1	3	nomatch	leur	-1	1	y	0.77988
168.3385	0.2	zrb	17	verb	phrase	1	4	nomatch	leur	-1	1	y	0.77988
168.53840000000002	0.0	+	17	verb	phrase	1	5	nomatch	leur	-1	1	y	0.77988
168.9382	0.2	xnhd	17	verb	phrase	1	6	nomatch	leur	-1	1	y	0.77988
169.1384	0.0	+	17	verb	phrase	1	7	nomatch	leur	-1	1	y	0.77988
169.53840000000002	0.2	mbhr	17	verb	phrase	1	8	nomatch	leur	-1	1	y	0.77988
169.73860000000002	0.0	+	17	verb	phrase	1	9	nomatch	leur	-1	1	y	0.77988
170.13819999999998	0.2	plonger	17	verb	phrase	1	10	nomatch	leur	-1	1	y	0.77988
170.33819999999997	0.0	+	17	verb	phrase	1	11	nomatch	leur	-1	1	y	0.77988
170.73739999999998	0.0	+	17	verb	phrase	1	12	nomatch	leur	-1	1	y	0.77988
172.73649999999998	0.0	LEUR	17	verb	phrase	1	13	nomatch	leur	-1	1	y	0.77988
173.5695	0.0	+	17	verb	phrase	1	14	nomatch	leur	-1	1	y	0.77988
173.51639999999998	0.0	[response]	17	verb	phrase	1	15	nomatch	leur	-1	1	y	0.77988
175.1354	0.0	+	18	verb	list	2	1	nomatch	peut	-1	1	y	1.0297
175.6852	0.2	tvlhz	18	verb	list	2	2	nomatch	peut	-1	1	y	1.0297
175.88510000000002	0.0	+	18	verb	list	2	3	nomatch	peut	-1	1	y	1.0297
176.2849	0.2	sqxk	18	verb	list	2	4	nomatch	peut	-1	1	y	1.0297
176.4848	0.0	+	18	verb	list	2	5	nomatch	peut	-1	1	y	1.0297
176.8847	0.2	rfc	18	verb	list	2	6	nomatch	peut	-1	1	y	1.0297
177.08499999999998	0.0	+	18	verb	list	2	7	nomatch	peut	-1	1	y	1.0297
177.485	0.2	voyager	18	verb	list	2	8	nomatch	peut	-1	1	y	1.0297
177.685	0.0	+	18	verb	list	2	9	nomatch	peut	-1	1	y	1.0297
178.0842	0.2	rouge	18	verb	list	2	10	nomatch	peut	-1	1	y	1.0297
178.284	0.0	+	18	verb	list	2	11	nomatch	peut	-1	1	y	1.0297
178.68380000000002	0.0	+	18	verb	list	2	12	nomatch	peut	-1	1	y	1.0297
180.69979999999998	0.0	PEUT	18	verb	list	2	13	nomatch	peut	-1	1	y	1.0297
181.7824	0.0	+	18	verb	list	2	14	nomatch	peut	-1	1	y	1.0297
181.7294	0.0	[response]	18	verb	list	2	15	nomatch	peut	-1	1	y	1.0297
183.0985	0.0	+	19	noun	list	1	1	nomatch	danser	-1	1	y	0.63213
183.6483	0.2	dqmfg	19	noun	list	1	2	nomatch	danser	-1	1	y	0.63213
183.84820000000002	0.0	+	19	noun	list	1	3	nomatch	danser	-1	1	y	0.63213
184.248	0.2	nxwc	19	noun	list	1	4	nomatch	danser	-1	1	y	0.63213
184.44850000000002	0.0	+	19	noun	list	1	5	nomatch	danser	-1	1	y	0.63213
184.865	0.2	tqd	19	noun	list	1	6	nomatch	danser	-1	1	y	0.63213
185.0482	0.0	+	19	noun	list	1	7	nomatch	danser	-1	1	y	0.63213
185.4475	0.2	pjtckmqb	19	noun	list	1	8	nomatch	danser	-1	1	y	0.63213
185.6474	0.0	+	19	noun	list	1	9	nomatch	danser	-1	1	y	0.63213
186.0475	0.2	clavier	19	noun	list	1	10	nomatch	danser	-1	1	y	0.63213
186.24759999999998	0.0	+	19	noun	list	1	11	nomatch	danser	-1	1	y	0.63213
186.64749999999998	0.0	+	19	noun	list	1	12	nomatch	danser	-1	1	y	0.63213
188.6631	0.0	DANSER	19	noun	list	1	13	nomatch	danser	-1	1	y	0.63213
189.3791	0.0	+	19	noun	list	1	14	nomatch	danser	-1	1	y	0.63213
189.2953	0.0	[response]	19	noun	list	1	15	nomatch	danser	-1	1	y	0.63213
191.04489999999998	0.0	+	20	noun	list	3	1	match	peut	3	1	p	1.2486
191.5947	0.2	qfxvtcw	20	noun	list	3	2	match	peut	3	1	p	1.2486
191.7946	0.0	+	20	noun	list	3	3	match	peut	3	1	p	1.2486
192.19439999999997	0.2	wpc	20	noun	list	3	4	match	peut	3	1	p	1.2486
192.3943	0.0	+	20	noun	list	3	5	match	peut	3	1	p	1.2486
192.7942	0.2	peut	20	noun	list	3	6	match	peut	3	1	p	1.2486
192.9943	0.0	+	20	noun	list	3	7	match	peut	3	1	p	1.2486
193.3942	0.2	tablier	20	noun	list	3	8	match	peut	3	1	p	1.2486
193.61059999999998	0.0	+	20	noun	list	3	9	match	peut	3	1	p	1.2486
193.99419999999998	0.2	vite	20	noun	list	3	10	match	peut	3	1	p	1.2486
194.1941	0.0	+	20	noun	list	3	11	match	peut	3	1	p	1.2486
194.59339999999997	0.0	+	20	noun	list	3	12	match	peut	3	1	p	1.2486
196.59249999999997	0.0	PEUT	20	noun	list	3	13	match	peut	3	1	p	1.2486
197.92559999999997	0.0	+	20	noun	list	3	14	match	peut	3	1	p	1.2486
197.84109999999998	0.0	[response]	20	noun	list	3	15	match	peut	3	1	p	1.2486
198.9914	0.0	+	21	noun	phrase	4	1	nomatch	dans	-1	1	y	1.1702
199.54109999999997	0.2	lwknr	21	noun	phrase	4	2	nomatch	dans	-1	1	y	1.1702
199.74099999999999	0.0	+	21	noun	phrase	4	3	nomatch	dans	-1	1	y	1.1702
200.1409	0.2	pour	21	noun	phrase	4	4	nomatch	dans	-1	1	y	1.1702
200.3408	0.0	+	21	noun	phrase	4	5	nomatch	dans	-1	1	y	1.1702
200.7577	0.2	leur	21	noun	phrase	4	6	nomatch	dans	-1	1	y	1.1702
200.94079999999997	0.0	+	21	noun	phrase	4	7	nomatch	dans	-1	1	y	1.1702
201.34109999999998	0.2	vieux	21	noun	phrase	4	8	nomatch	dans	-1	1	y	1.1702
201.54039999999998	0.0	+	21	noun	phrase	4	9	nomatch	dans	-1	1	y	1.1702
201.94059999999996	0.2	clavier	21	noun	phrase	4	10	nomatch	dans	-1	1	y	1.1702
202.14	0.0	+	21	noun	phrase	4	11	nomatch	dans	-1	1	y	1.1702
202.53979999999996	0.0	+	21	noun	phrase	4	12	nomatch	dans	-1	1	y	1.1702
204.53889999999996	0.0	DANS	21	noun	phrase	4	13	nomatch	dans	-1	1	y	1.1702
205.8057	0.0	+	21	noun	phrase	4	14	nomatch	dans	-1	1	y	1.1702
205.70909999999998	0.0	[response]	21	noun	phrase	4	15	nomatch	dans	-1	1	y	1.1702
206.9382	0.0	+	22	verb	list	3	1	nomatch	son	-1	1	y	0.80719
207.48809999999997	0.2	bqwd	22	verb	list	3	2	nomatch	son	-1	1	y	0.80719
207.68759999999997	0.0	+	22	verb	list	3	3	nomatch	son	-1	1	y	0.80719
208.10429999999997	0.2	qlzg	22	verb	list	3	4	nomatch	son	-1	1	y	0.80719
208.28749999999997	0.0	+	22	verb	list	3	5	nomatch	son	-1	1	y	0.80719
208.68699999999995	0.2	mon	22	verb	list	3	6	nomatch	son	-1	1	y	0.80719
208.88689999999997	0.0	+	22	verb	list	3	7	nomatch	son	-1	1	y	0.80719
209.28679999999997	0.2	nager	22	verb	list	3	8	nomatch	son	-1	1	y	0.80719
209.48669999999998	0.0	+	22	verb	list	3	9	nomatch	son	-1	1	y	0.80719
209.88649999999996	0.2	noir	22	verb	list	3	10	nomatch	son	-1	1	y	0.80719
210.08639999999997	0.0	+	22	verb	list	3	11	nomatch	son	-1	1	y	0.80719
210.4862	0.0	+	22	verb	list	3	12	nomatch	son	-1	1	y	0.80719
212.48579999999998	0.0	SON	22	verb	list	3	13	nomatch	son	-1	1	y	0.80719
213.35159999999996	0.0	+	22	verb	list	3	14	nomatch	son	-1	1	y	0.80719
213.29289999999997	0.0	[response]	22	verb	list	3	15	nomatch	son	-1	1	y	0.80719
214.88419999999996	0.0	+	23	noun	list	1	1	match	casier	5	1	p	0.68762
215.43399999999997	0.2	cpgkhx	23	noun	list	1	2	match	casier	5	1	p	0.68762
215.63389999999998	0.0	+	23	noun	list	1	3	match	casier	5	1	p	0.68762
216.0337	0.2	cqgv	23	noun	list	1	4	match	casier	5	1	p	0.68762
216.23359999999997	0.0	+	23	noun	list	1	5	match	casier	5	1	p	0.68762
216.6501	0.2	pv	23	noun	list	1	6	match	casier	5	1	p	0.68762
216.84999999999997	0.0	+	23	noun	list	1	7	match	casier	5	1	p	0.68762
217.26659999999998	0.2	khb	23	noun	list	1	8	match	casier	5	1	p	0.68762
217.46699999999998	0.0	+	23	noun	list	1	9	match	casier	5	1	p	0.68762
217.84999999999997	0.2	casier	23	noun	list	1	10	match	casier	5	1	p	0.68762
218.04999999999995	0.0	+	23	noun	list	1	11	match	casier	5	1	p	0.68762
218.4493	0.0	+	23	noun	list	1	12	match	casier	5	1	p	0.68762
220.4484	0.0	CASIER	23	noun	list	1	13	match	casier	5	1	p	0.68762
221.19799999999998	0.0	+	23	noun	list	1	14	match	casier	5	1	p	0.68762
221.13599999999997	0.0	[response]	23	noun	list	1	15	match	casier	5	1	p	0.68762
222.84729999999996	0.0	+	24	noun	list	1	1	nomatch	beaucoup	-1	1	y	0.97811
223.39709999999997	0.2	hzn	24	noun	list	1	2	nomatch	beaucoup	-1	1	y	0.97811
223.59699999999998	0.0	+	24	noun	list	1	3	nomatch	beaucoup	-1	1	y	0.97811
223.9968	0.2	tjxp	24	noun	list	1	4	nomatch	beaucoup	-1	1	y	0.97811
224.19669999999996	0.0	+	24	noun	list	1	5	nomatch	beaucoup	-1	1	y	0.97811
224.5965	0.2	tqd	24	noun	list	1	6	nomatch	beaucoup	-1	1	y	0.97811
224.7964	0.0	+	24	noun	list	1	7	nomatch	beaucoup	-1	1	y	0.97811
225.1963	0.2	nxcgbhw	24	noun	list	1	8	nomatch	beaucoup	-1	1	y	0.97811
225.39689999999996	0.0	+	24	noun	list	1	9	nomatch	beaucoup	-1	1	y	0.97811
225.796	0.2	trop	24	noun	list	1	10	nomatch	beaucoup	-1	1	y	0.97811
225.9959	0.0	+	24	noun	list	1	11	nomatch	beaucoup	-1	1	y	0.97811
226.39569999999998	0.0	+	24	noun	list	1	12	nomatch	beaucoup	-1	1	y	0.97811
228.39509999999996	0.0	BEAUCOUP	24	noun	list	1	13	nomatch	beaucoup	-1	1	y	0.97811
229.46099999999996	0.0	+	24	noun	list	1	14	nomatch	beaucoup	-1	1	y	0.97811
229.3732	0.0	[response]	24	noun	list	1	15	nomatch	beaucoup	-1	1	y	0.97811
230.7937	0.0	+	25	verb	phrase	1	1	match	parader	5	1	p	0.66406
231.3435	0.2	hnlpq	25	verb	phrase	1	2	match	parader	5	1	p	0.66406
231.54409999999996	0.0	+	25	verb	phrase	1	3	match	parader	5	1	p	0.66406
231.9436	0.2	zrb	25	verb	phrase	1	4	match	parader	5	1	p	0.66406
232.1601	0.0	+	25	verb	phrase	1	5	match	parader	5	1	p	0.66406
232.56029999999998	0.2	qcpb	25	verb	phrase	1	6	match	parader	5	1	p	0.66406
232.7602	0.0	+	25	verb	phrase	1	7	match	parader	5	1	p	0.66406
233.1427	0.2	lkdjn	25	verb	phrase	1	8	match	parader	5	1	p	0.66406
233.3426	0.0	+	25	verb	phrase	1	9	match	parader	5	1	p	0.66406
233.74239999999998	0.2	parader	25	verb	phrase	1	10	match	parader	5	1	p	0.66406
233.9423	0.0	+	25	verb	phrase	1	11	match	parader	5	1	p	0.66406
234.34209999999996	0.0	+	25	verb	phrase	1	12	match	parader	5	1	p	0.66406
236.34119999999996	0.0	PARADER	25	verb	phrase	1	13	match	parader	5	1	p	0.66406
237.05759999999998	0.0	+	25	verb	phrase	1	14	match	parader	5	1	p	0.66406
237.00530000000003	0.0	[response]	25	verb	phrase	1	15	match	parader	5	1	p	0.66406
238.7738	0.0	+	26	noun	phrase	1	1	match	bleu	5	1	p	1.1592
239.29019999999997	0.2	fjprn	26	noun	phrase	1	2	match	bleu	5	1	p	1.1592
239.49009999999998	0.0	+	26	noun	phrase	1	3	match	bleu	5	1	p	1.1592
239.89009999999996	0.2	lbvx	26	noun	phrase	1	4	match	bleu	5	1	p	1.1592
240.0895	0.0	+	26	noun	phrase	1	5	match	bleu	5	1	p	1.1592
240.4894	0.2	tqd	26	noun	phrase	1	6	match	bleu	5	1	p	1.1592
240.6893	0.0	+	26	noun	phrase	1	7	match	bleu	5	1	p	1.1592
241.08909999999997	0.2	cglqzs	26	noun	phrase	1	8	match	bleu	5	1	p	1.1592
241.289	0.0	+	26	noun	phrase	1	9	match	bleu	5	1	p	1.1592
241.68879999999996	0.2	bleu	26	noun	phrase	1	10	match	bleu	5	1	p	1.1592
241.88869999999997	0.0	+	26	noun	phrase	1	11	match	bleu	5	1	p	1.1592
242.289	0.0	+	26	noun	phrase	1	12	match	bleu	5	1	p	1.1592
244.28769999999997	0.0	BLEU	26	noun	phrase	1	13	match	bleu	5	1	p	1.1592
245.50379999999996	0.0	+	26	noun	phrase	1	14	match	bleu	5	1	p	1.1592
245.4468	0.0	[response]	26	noun	phrase	1	15	match	bleu	5	1	p	1.1592
246.6866	0.0	+	27	verb	list	1	1	nomatch	jongler	-1	1	y	0.60693
247.23629999999997	0.2	qtclzpg	27	verb	list	1	2	nomatch	jongler	-1	1	y	0.60693
247.43629999999996	0.0	+	27	verb	list	1	3	nomatch	jongler	-1	1	y	0.60693
247.8361	0.2	ckfr	27	verb	list	1	4	nomatch	jongler	-1	1	y	0.60693
248.036	0.0	+	27	verb	list	1	5	nomatch	jongler	-1	1	y	0.60693
248.43579999999997	0.2	rfc	27	verb	list	1	6	nomatch	jongler	-1	1	y	0.60693
248.63569999999999	0.0	+	27	verb	list	1	7	nomatch	jongler	-1	1	y	0.60693
249.03549999999996	0.2	hjrx	27	verb	list	1	8	nomatch	jongler	-1	1	y	0.60693
249.23609999999996	0.0	+	27	verb	list	1	9	nomatch	jongler	-1	1	y	0.60693
249.63529999999997	0.2	patiner	27	verb	list	1	10	nomatch	jongler	-1	1	y	0.60693
249.8352	0.0	+	27	verb	list	1	11	nomatch	jongler	-1	1	y	0.60693
250.23499999999996	0.0	+	27	verb	list	1	12	nomatch	jongler	-1	1	y	0.60693
252.23469999999998	0.0	JONGLER	27	verb	list	1	13	nomatch	jongler	-1	1	y	0.60693
252.93449999999996	0.0	+	27	verb	list	1	14	nomatch	jongler	-1	1	y	0.60693
252.84170000000006	0.0	[response]	27	verb	list	1	15	nomatch	jongler	-1	1	y	0.60693
254.6497	0.0	+	28	verb	phrase	4	1	nomatch	doit	-1	1	y	0.91865
255.19939999999997	0.2	xzpnks	28	verb	phrase	4	2	nomatch	doit	-1	1	y	0.91865
255.39929999999998	0.0	+	28	verb	phrase	4	3	nomatch	doit	-1	1	y	0.91865
255.7991	0.2	yves	28	verb	phrase	4	4	nomatch	doit	-1	1	y	0.91865
255.9991	0.0	+	28	verb	phrase	4	5	nomatch	doit	-1	1	y	0.91865
256.39889999999997	0.2	peut	28	verb	phrase	4	6	nomatch	doit	-1	1	y	0.91865
256.5988	0.0	+	28	verb	phrase	4	7	nomatch	doit	-1	1	y	0.91865
256.9991	0.2	parader	28	verb	phrase	4	8	nomatch	doit	-1	1	y	0.91865
257.2159	0.0	+	28	verb	phrase	4	9	nomatch	doit	-1	1	y	0.91865
257.61539999999997	0.2	ainsi	28	verb	phrase	4	10	nomatch	doit	-1	1	y	0.91865
257.79839999999996	0.0	+	28	verb	phrase	4	11	nomatch	doit	-1	1	y	0.91865
258.1987	0.0	+	28	verb	phrase	4	12	nomatch	doit	-1	1	y	0.91865
260.1972	0.0	DOIT	28	verb	phrase	4	13	nomatch	doit	-1	1	y	0.91865
261.1801	0.0	+	28	verb	phrase	4	14	nomatch	doit	-1	1	y	0.91865
261.11580000000004	0.0	[response]	28	verb	phrase	4	15	nomatch	doit	-1	1	y	0.91865
262.5961	0.0	+	29	noun	phrase	1	1	match	tablier	5	1	p	0.74345
263.1458	0.2	pksx	29	noun	phrase	1	2	match	tablier	5	1	p	0.74345
263.3458	0.0	+	29	noun	phrase	1	3	match	tablier	5	1	p	0.74345
263.74559999999997	0.2	cqgv	29	noun	phrase	1	4	match	tablier	5	1	p	0.74345
263.9455	0.0	+	29	noun	phrase	1	5	match	tablier	5	1	p	0.74345
264.3453	0.2	vfcg	29	noun	phrase	1	6	match	tablier	5	1	p	0.74345
264.54519999999997	0.0	+	29	noun	phrase	1	7	match	tablier	5	1	p	0.74345
264.9455	0.2	zqwxd	29	noun	phrase	1	8	match	tablier	5	1	p	0.74345
265.145	0.0	+	29	noun	phrase	1	9	match	tablier	5	1	p	0.74345
265.5448	0.2	tablier	29	noun	phrase	1	10	match	tablier	5	1	p	0.74345
265.74469999999997	0.0	+	29	noun	phrase	1	11	match	tablier	5	1	p	0.74345
266.1445	0.0	+	29	noun	phrase	1	12	match	tablier	5	1	p	0.74345
268.1436	0.0	TABLIER	29	noun	phrase	1	13	match	tablier	5	1	p	0.74345
268.9436	0.0	+	29	noun	phrase	1	14	match	tablier	5	1	p	0.74345
268.887	0.0	[response]	29	noun	phrase	1	15	match	tablier	5	1	p	0.74345
270.54249999999996	0.0	+	30	noun	phrase	3	1	nomatch	va	-1	1	y	0.95061
271.09229999999997	0.2	dwzh	30	noun	phrase	3	2	nomatch	va	-1	1	y	0.95061
271.2922	0.0	+	30	noun	phrase	3	3	nomatch	va	-1	1	y	0.95061
271.692	0.2	fwdp	30	noun	phrase	3	4	nomatch	va	-1	1	y	0.95061
271.8924	0.0	+	30	noun	phrase	3	5	nomatch	va	-1	1	y	0.95061
272.2924	0.2	leur	30	noun	phrase	3	6	nomatch	va	-1	1	y	0.95061
272.4921	0.0	+	30	noun	phrase	3	7	nomatch	va	-1	1	y	0.95061
272.89169999999996	0.2	clavier	30	noun	phrase	3	8	nomatch	va	-1	1	y	0.95061
273.09139999999996	0.0	+	30	noun	phrase	3	9	nomatch	va	-1	1	y	0.95061
273.4912	0.2	vert	30	noun	phrase	3	10	nomatch	va	-1	1	y	0.95061
273.6911	0.0	+	30	noun	phrase	3	11	nomatch	va	-1	1	y	0.95061
274.091	0.0	+	30	noun	phrase	3	12	nomatch	va	-1	1	y	0.95061
276.09	0.0	VA	30	noun	phrase	3	13	nomatch	va	-1	1	y	0.95061
277.1062	0.0	+	30	noun	phrase	3	14	nomatch	va	-1	1	y	0.95061
277.0406	0.0	[response]	30	noun	phrase	3	15	nomatch	va	-1	1	y	0.95061
286.4853	0.0	+	31	noun	list	4	1	match	son	3	1	p	0.95048
287.0351	0.2	jkwqr	31	noun	list	4	2	match	son	3	1	p	0.95048
287.23499999999996	0.0	+	31	noun	list	4	3	match	son	3	1	p	0.95048
287.6348	0.2	yves	31	noun	list	4	4	match	son	3	1	p	0.95048
287.8347	0.0	+	31	noun	list	4	5	match	son	3	1	p	0.95048
288.2346	0.2	son	31	noun	list	4	6	match	son	3	1	p	0.95048
288.43449999999996	0.0	+	31	noun	list	4	7	match	son	3	1	p	0.95048
288.8343	0.2	mieux	31	noun	list	4	8	match	son	3	1	p	0.95048
289.0342	0.0	+	31	noun	list	4	9	match	son	3	1	p	0.95048
289.43399999999997	0.2	tablier	31	noun	list	4	10	match	son	3	1	p	0.95048
289.6339	0.0	+	31	noun	list	4	11	match	son	3	1	p	0.95048
290.0345	0.0	+	31	noun	list	4	12	match	son	3	1	p	0.95048
292.04949999999997	0.0	SON	31	noun	list	4	13	match	son	3	1	p	0.95048
293.0657	0.0	+	31	noun	list	4	14	match	son	3	1	p	0.95048
293.0	0.0	[response]	31	noun	list	4	15	match	son	3	1	p	0.95048
294.4484	0.0	+	32	noun	phrase	2	1	match	boîtier	5	1	p	0.80138
294.9982	0.2	snkg	32	noun	phrase	2	2	match	boîtier	5	1	p	0.80138
295.19809999999995	0.0	+	32	noun	phrase	2	3	match	boîtier	5	1	p	0.80138
295.5979	0.2	fwdp	32	noun	phrase	2	4	match	boîtier	5	1	p	0.80138
295.7978	0.0	+	32	noun	phrase	2	5	match	boîtier	5	1	p	0.80138
296.19759999999997	0.2	vfcg	32	noun	phrase	2	6	match	boîtier	5	1	p	0.80138
296.4145	0.0	+	32	noun	phrase	2	7	match	boîtier	5	1	p	0.80138
296.7974	0.2	nouveau	32	noun	phrase	2	8	match	boîtier	5	1	p	0.80138
296.9973	0.0	+	32	noun	phrase	2	9	match	boîtier	5	1	p	0.80138
297.39709999999997	0.2	boîtier	32	noun	phrase	2	10	match	boîtier	5	1	p	0.80138
297.597	0.0	+	32	noun	phrase	2	11	match	boîtier	5	1	p	0.80138
297.9968	0.0	+	32	noun	phrase	2	12	match	boîtier	5	1	p	0.80138
299.99649999999997	0.0	BOÎTIER	32	noun	phrase	2	13	match	boîtier	5	1	p	0.80138
300.8622	0.0	+	32	noun	phrase	2	14	match	boîtier	5	1	p	0.80138
300.79789999999997	0.0	[response]	32	noun	phrase	2	15	match	boîtier	5	1	p	0.80138
302.3948	0.0	+	33	verb	phrase	1	1	nomatch	rouler	-1	1	y	0.77013
302.94509999999997	0.2	lbrphnm	33	verb	phrase	1	2	nomatch	rouler	-1	1	y	0.77013
303.145	0.0	+	33	verb	phrase	1	3	nomatch	rouler	-1	1	y	0.77013
303.54449999999997	0.2	sqxk	33	verb	phrase	1	4	nomatch	rouler	-1	1	y	0.77013
303.7616	0.0	+	33	verb	phrase	1	5	nomatch	rouler	-1	1	y	0.77013
304.1441	0.2	pv	33	verb	phrase	1	6	nomatch	rouler	-1	1	y	0.77013
304.344	0.0	+	33	verb	phrase	1	7	nomatch	rouler	-1	1	y	0.77013
304.74379999999996	0.2	bvmxj	33	verb	phrase	1	8	nomatch	rouler	-1	1	y	0.77013
304.9437	0.0	+	33	verb	phrase	1	9	nomatch	rouler	-1	1	y	0.77013
305.3435	0.2	nager	33	verb	phrase	1	10	nomatch	rouler	-1	1	y	0.77013
305.5442	0.0	+	33	verb	phrase	1	11	nomatch	rouler	-1	1	y	0.77013
305.9437	0.0	+	33	verb	phrase	1	12	nomatch	rouler	-1	1	y	0.77013
307.94239999999996	0.0	ROULER	33	verb	phrase	1	13	nomatch	rouler	-1	1	y	0.77013
308.77529999999996	0.0	+	33	verb	phrase	1	14	nomatch	rouler	-1	1	y	0.77013
308.7125	0.0	[response]	33	verb	phrase	1	15	nomatch	rouler	-1	1	y	0.77013
326.3345	0.0	+	34	verb	list	3	1	match	grand	4	0	y	1.1882
326.8838	0.2	thcmd	34	verb	list	3	2	match	grand	4	0	y	1.1882
327.0838	0.0	+	34	verb	list	3	3	match	grand	4	0	y	1.1882
327.48359999999997	0.2	crtd	34	verb	list	3	4	match	grand	4	0	y	1.1882
327.70009999999996	0.0	+	34	verb	list	3	5	match	grand	4	0	y	1.1882
328.09999999999997	0.2	doit	34	verb	list	3	6	match	grand	4	0	y	1.1882
328.2999	0.0	+	34	verb	list	3	7	match	grand	4	0	y	1.1882
328.7	0.2	grand	34	verb	list	3	8	match	grand	4	0	y	1.1882
328.8997	0.0	+	34	verb	list	3	9	match	grand	4	0	y	1.1882
329.2994	0.2	plonger	34	verb	list	3	10	match	grand	4	0	y	1.1882
329.4993	0.0	+	34	verb	list	3	11	match	grand	4	0	y	1.1882
329.8992	0.0	+	34	verb	list	3	12	match	grand	4	0	y	1.1882
331.8983	0.0	GRAND	34	verb	list	3	13	match	grand	4	0	y	1.1882
333.1817	0.0	+	34	verb	list	3	14	match	grand	4	0	y	1.1882
333.0866	0.0	[response]	34	verb	list	3	15	match	grand	4	0	y	1.1882
334.2972	0.0	+	35	noun	list	2	1	nomatch	sablier	-1	1	y	0.7537100000000001
334.8469	0.2	nzdtgqj	35	noun	list	2	2	nomatch	sablier	-1	1	y	0.7537100000000001
335.04679999999996	0.0	+	35	noun	list	2	3	nomatch	sablier	-1	1	y	0.7537100000000001
335.4466	0.2	zrb	35	noun	list	2	4	nomatch	sablier	-1	1	y	0.7537100000000001
335.647	0.0	+	35	noun	list	2	5	nomatch	sablier	-1	1	y	0.7537100000000001
336.0467	0.2	rfc	35	noun	list	2	6	nomatch	sablier	-1	1	y	0.7537100000000001
336.2468	0.0	+	35	noun	list	2	7	nomatch	sablier	-1	1	y	0.7537100000000001
336.6465	0.2	mieux	35	noun	list	2	8	nomatch	sablier	-1	1	y	0.7537100000000001
336.8465	0.0	+	35	noun	list	2	9	nomatch	sablier	-1	1	y	0.7537100000000001
337.2458	0.2	boîtier	35	noun	list	2	10	nomatch	sablier	-1	1	y	0.7537100000000001
337.4457	0.0	+	35	noun	list	2	11	nomatch	sablier	-1	1	y	0.7537100000000001
337.8456	0.0	+	35	noun	list	2	12	nomatch	sablier	-1	1	y	0.7537100000000001
339.8447	0.0	SABLIER	35	noun	list	2	13	nomatch	sablier	-1	1	y	0.7537100000000001
340.661	0.0	+	35	noun	list	2	14	nomatch	sablier	-1	1	y	0.7537100000000001
340.59839999999997	0.0	[response]	35	noun	list	2	15	nomatch	sablier	-1	1	y	0.7537100000000001
350.24	0.0	+	36	noun	list	2	1	match	beaucoup	4	1	p	2.2321
350.7897	0.2	kbw	36	noun	list	2	2	match	beaucoup	4	1	p	2.2321
350.9896	0.0	+	36	noun	list	2	3	match	beaucoup	4	1	p	2.2321
351.3895	0.2	qlzg	36	noun	list	2	4	match	beaucoup	4	1	p	2.2321
351.58939999999996	0.0	+	36	noun	list	2	5	match	beaucoup	4	1	p	2.2321
351.9898	0.2	tqd	36	noun	list	2	6	match	beaucoup	4	1	p	2.2321
352.1893	0.0	+	36	noun	list	2	7	match	beaucoup	4	1	p	2.2321
352.58959999999996	0.2	beaucoup	36	noun	list	2	8	match	beaucoup	4	1	p	2.2321
352.78929999999997	0.0	+	36	noun	list	2	9	match	beaucoup	4	1	p	2.2321
353.1887	0.2	tablier	36	noun	list	2	10	match	beaucoup	4	1	p	2.2321
353.3886	0.0	+	36	noun	list	2	11	match	beaucoup	4	1	p	2.2321
353.78839999999997	0.0	+	36	noun	list	2	12	match	beaucoup	4	1	p	2.2321
355.78749999999997	0.0	BEAUCOUP	36	noun	list	2	13	match	beaucoup	4	1	p	2.2321
358.0865	0.0	+	36	noun	list	2	14	match	beaucoup	4	1	p	2.2321
358.0196	0.0	[response]	36	noun	list	2	15	match	beaucoup	4	1	p	2.2321
358.1864	0.0	+	37	verb	phrase	1	1	nomatch	plonger	-1	1	y	0.73667
358.7362	0.2	nwxctr	37	verb	phrase	1	2	nomatch	plonger	-1	1	y	0.73667
358.9361	0.0	+	37	verb	phrase	1	3	nomatch	plonger	-1	1	y	0.73667
359.3359	0.2	tjxp	37	verb	phrase	1	4	nomatch	plonger	-1	1	y	0.73667
359.5358	0.0	+	37	verb	phrase	1	5	nomatch	plonger	-1	1	y	0.73667
359.93559999999997	0.2	qcpb	37	verb	phrase	1	6	nomatch	plonger	-1	1	y	0.73667
360.1355	0.0	+	37	verb	phrase	1	7	nomatch	plonger	-1	1	y	0.73667
360.5354	0.2	bvmxj	37	verb	phrase	1	8	nomatch	plonger	-1	1	y	0.73667
360.7353	0.0	+	37	verb	phrase	1	9	nomatch	plonger	-1	1	y	0.73667
361.1524	0.2	danser	37	verb	phrase	1	10	nomatch	plonger	-1	1	y	0.73667
361.3356	0.0	+	37	verb	phrase	1	11	nomatch	plonger	-1	1	y	0.73667
361.7351	0.0	+	37	verb	phrase	1	12	nomatch	plonger	-1	1	y	0.73667
363.7339	0.0	PLONGER	37	verb	phrase	1	13	nomatch	plonger	-1	1	y	0.73667
364.5336	0.0	+	37	verb	phrase	1	14	nomatch	plonger	-1	1	y	0.73667
364.4706	0.0	[response]	37	verb	phrase	1	15	nomatch	plonger	-1	1	y	0.73667
366.1495	0.0	+	38	noun	list	3	1	match	va	3	1	p	0.8768000000000001
366.6993	0.2	dbgp	38	noun	list	3	2	match	va	3	1	p	0.8768000000000001
366.8992	0.0	+	38	noun	list	3	3	match	va	3	1	p	0.8768000000000001
367.2996	0.2	cqgv	38	noun	list	3	4	match	va	3	1	p	0.8768000000000001
367.49899999999997	0.0	+	38	noun	list	3	5	match	va	3	1	p	0.8768000000000001
367.8992	0.2	va	38	noun	list	3	6	match	va	3	1	p	0.8768000000000001
368.0986	0.0	+	38	noun	list	3	7	match	va	3	1	p	0.8768000000000001
368.4984	0.2	grenier	38	noun	list	3	8	match	va	3	1	p	0.8768000000000001
368.6984	0.0	+	38	noun	list	3	9	match	va	3	1	p	0.8768000000000001
369.09819999999996	0.2	tard	38	noun	list	3	10	match	va	3	1	p	0.8768000000000001
369.2981	0.0	+	38	noun	list	3	11	match	va	3	1	p	0.8768000000000001
369.6979	0.0	+	38	noun	list	3	12	match	va	3	1	p	0.8768000000000001
371.7143	0.0	VA	38	noun	list	3	13	match	va	3	1	p	0.8768000000000001
372.6466	0.0	+	38	noun	list	3	14	match	va	3	1	p	0.8768000000000001
372.5911	0.0	[response]	38	noun	list	3	15	match	va	3	1	p	0.8768000000000001
374.0959	0.0	+	39	noun	list	1	1	nomatch	ainsi	-1	1	y	0.70707
374.6457	0.2	rvmn	39	noun	list	1	2	nomatch	ainsi	-1	1	y	0.70707
374.8456	0.0	+	39	noun	list	1	3	nomatch	ainsi	-1	1	y	0.70707
375.24539999999996	0.2	lbvx	39	noun	list	1	4	nomatch	ainsi	-1	1	y	0.70707
375.4453	0.0	+	39	noun	list	1	5	nomatch	ainsi	-1	1	y	0.70707
375.86199999999997	0.2	pv	39	noun	list	1	6	nomatch	ainsi	-1	1	y	0.70707
376.04519999999997	0.0	+	39	noun	list	1	7	nomatch	ainsi	-1	1	y	0.70707
376.46229999999997	0.2	nbsljmr	39	noun	list	1	8	nomatch	ainsi	-1	1	y	0.70707
376.64509999999996	0.0	+	39	noun	list	1	9	nomatch	ainsi	-1	1	y	0.70707
377.0451	0.2	tôt	39	noun	list	1	10	nomatch	ainsi	-1	1	y	0.70707
377.24449999999996	0.0	+	39	noun	list	1	11	nomatch	ainsi	-1	1	y	0.70707
377.6443	0.0	+	39	noun	list	1	12	nomatch	ainsi	-1	1	y	0.70707
379.64369999999997	0.0	AINSI	39	noun	list	1	13	nomatch	ainsi	-1	1	y	0.70707
380.40979999999996	0.0	+	39	noun	list	1	14	nomatch	ainsi	-1	1	y	0.70707
380.35069999999996	0.0	[response]	39	noun	list	1	15	nomatch	ainsi	-1	1	y	0.70707
382.04229999999995	0.0	+	40	verb	list	2	1	match	rouler	5	0	TIMEOUT	-1.0
382.59209999999996	0.2	qdvs	40	verb	list	2	2	match	rouler	5	0	TIMEOUT	-1.0
382.792	0.0	+	40	verb	list	2	3	match	rouler	5	0	TIMEOUT	-1.0
383.1918	0.2	crtd	40	verb	list	2	4	match	rouler	5	0	TIMEOUT	-1.0
383.39169999999996	0.0	+	40	verb	list	2	5	match	rouler	5	0	TIMEOUT	-1.0
383.7922	0.2	xnhd	40	verb	list	2	6	match	rouler	5	0	TIMEOUT	-1.0
383.9919	0.0	+	40	verb	list	2	7	match	rouler	5	0	TIMEOUT	-1.0
384.3913	0.2	grand	40	verb	list	2	8	match	rouler	5	0	TIMEOUT	-1.0
384.59119999999996	0.0	+	40	verb	list	2	9	match	rouler	5	0	TIMEOUT	-1.0
384.9916	0.2	rouler	40	verb	list	2	10	match	rouler	5	0	TIMEOUT	-1.0
385.1912	0.0	+	40	verb	list	2	11	match	rouler	5	0	TIMEOUT	-1.0
385.59119999999996	0.0	+	40	verb	list	2	12	match	rouler	5	0	TIMEOUT	-1.0
387.5899	0.0	ROULER	40	verb	list	2	13	match	rouler	5	0	TIMEOUT	-1.0
389.98879999999997	0.0	+	41	verb	phrase	3	1	nomatch	doit	-1	1	y	0.76321
390.58889999999997	0.2	qcjs	41	verb	phrase	3	2	nomatch	doit	-1	1	y	0.76321
390.78839999999997	0.0	+	41	verb	phrase	3	3	nomatch	doit	-1	1	y	0.76321
391.1882	0.2	tjxp	41	verb	phrase	3	4	nomatch	doit	-1	1	y	0.76321
391.3881	0.0	+	41	verb	phrase	3	5	nomatch	doit	-1	1	y	0.76321
391.78799999999995	0.2	va	41	verb	phrase	3	6	nomatch	doit	-1	1	y	0.76321
391.98789999999997	0.0	+	41	verb	phrase	3	7	nomatch	doit	-1	1	y	0.76321
392.3877	0.2	parader	41	verb	phrase	3	8	nomatch	doit	-1	1	y	0.76321
392.5876	0.0	+	41	verb	phrase	3	9	nomatch	doit	-1	1	y	0.76321
392.9874	0.2	ainsi	41	verb	phrase	3	10	nomatch	doit	-1	1	y	0.76321
393.1873	0.0	+	41	verb	phrase	3	11	nomatch	doit	-1	1	y	0.76321
393.5877	0.0	+	41	verb	phrase	3	12	nomatch	doit	-1	1	y	0.76321
395.5863	0.0	DOIT	41	verb	phrase	3	13	nomatch	doit	-1	1	y	0.76321
396.4359	0.0	+	41	verb	phrase	3	14	nomatch	doit	-1	1	y	0.76321
396.3495	0.0	[response]	41	verb	phrase	3	15	nomatch	doit	-1	1	y	0.76321
397.98519999999996	0.0	+	42	verb	list	2	1	match	plonger	5	1	p	1.2809
398.5349	0.2	rfgpbmc	42	verb	list	2	2	match	plonger	5	1	p	1.2809
398.7348	0.0	+	42	verb	list	2	3	match	plonger	5	1	p	1.2809
399.1346	0.2	crtd	42	verb	list	2	4	match	plonger	5	1	p	1.2809
399.33459999999997	0.0	+	42	verb	list	2	5	match	plonger	5	1	p	1.2809
399.7351	0.2	qcpb	42	verb	list	2	6	match	plonger	5	1	p	1.2809
399.93489999999997	0.0	+	42	verb	list	2	7	match	plonger	5	1	p	1.2809
400.33459999999997	0.2	beau	42	verb	list	2	8	match	plonger	5	1	p	1.2809
400.5343	0.0	+	42	verb	list	2	9	match	plonger	5	1	p	1.2809
400.93449999999996	0.2	plonger	42	verb	list	2	10	match	plonger	5	1	p	1.2809
401.1337	0.0	+	42	verb	list	2	11	match	plonger	5	1	p	1.2809
401.5336	0.0	+	42	verb	list	2	12	match	plonger	5	1	p	1.2809
403.54929999999996	0.0	PLONGER	42	verb	list	2	13	match	plonger	5	1	p	1.2809
404.8821	0.0	+	42	verb	list	2	14	match	plonger	5	1	p	1.2809
404.83029999999997	0.0	[response]	42	verb	list	2	15	match	plonger	5	1	p	1.2809
405.94829999999996	0.0	+	43	verb	list	1	1	match	jongler	5	1	p	0.59841
406.498	0.2	zphclg	43	verb	list	1	2	match	jongler	5	1	p	0.59841
406.6986	0.0	+	43	verb	list	1	3	match	jongler	5	1	p	0.59841
407.09819999999996	0.2	bnmr	43	verb	list	1	4	match	jongler	5	1	p	0.59841
407.29789999999997	0.0	+	43	verb	list	1	5	match	jongler	5	1	p	0.59841
407.6975	0.2	vfcg	43	verb	list	1	6	match	jongler	5	1	p	0.59841
407.8981	0.0	+	43	verb	list	1	7	match	jongler	5	1	p	0.59841
408.2972	0.2	mgcl	43	verb	list	1	8	match	jongler	5	1	p	0.59841
408.4971	0.0	+	43	verb	list	1	9	match	jongler	5	1	p	0.59841
408.89689999999996	0.2	jongler	43	verb	list	1	10	match	jongler	5	1	p	0.59841
409.0968	0.0	+	43	verb	list	1	11	match	jongler	5	1	p	0.59841
409.4967	0.0	+	43	verb	list	1	12	match	jongler	5	1	p	0.59841
411.4958	0.0	JONGLER	43	verb	list	1	13	match	jongler	5	1	p	0.59841
412.14549999999997	0.0	+	43	verb	list	1	14	match	jongler	5	1	p	0.59841
412.09420000000006	0.0	[response]	43	verb	list	1	15	match	jongler	5	1	p	0.59841
413.8947	0.0	+	44	noun	list	4	1	nomatch	rouge	-1	1	y	0.73877
414.4444	0.2	lckwhgz	44	noun	list	4	2	nomatch	rouge	-1	1	y	0.73877
414.64439999999996	0.0	+	44	noun	list	4	3	nomatch	rouge	-1	1	y	0.73877
415.0442	0.2	jade	44	noun	list	4	4	nomatch	rouge	-1	1	y	0.73877
415.2441	0.0	+	44	noun	list	4	5	nomatch	rouge	-1	1	y	0.73877
415.6439	0.2	son	44	noun	list	4	6	nomatch	rouge	-1	1	y	0.73877
415.8438	0.0	+	44	noun	list	4	7	nomatch	rouge	-1	1	y	0.73877
416.24359999999996	0.2	beaucoup	44	noun	list	4	8	nomatch	rouge	-1	1	y	0.73877
416.4435	0.0	+	44	noun	list	4	9	nomatch	rouge	-1	1	y	0.73877
416.8434	0.2	sablier	44	noun	list	4	10	nomatch	rouge	-1	1	y	0.73877
417.04339999999996	0.0	+	44	noun	list	4	11	nomatch	rouge	-1	1	y	0.73877
417.44309999999996	0.0	+	44	noun	list	4	12	nomatch	rouge	-1	1	y	0.73877
419.44219999999996	0.0	ROUGE	44	noun	list	4	13	nomatch	rouge	-1	1	y	0.73877
420.24179999999996	0.0	+	44	noun	list	4	14	nomatch	rouge	-1	1	y	0.73877
420.1809	0.0	[response]	44	noun	list	4	15	nomatch	rouge	-1	1	y	0.73877
421.8411	0.0	+	45	verb	phrase	1	1	match	loin	5	1	p	0.89903
422.3909	0.2	gfckjz	45	verb	phrase	1	2	match	loin	5	1	p	0.89903
422.5908	0.0	+	45	verb	phrase	1	3	match	loin	5	1	p	0.89903
422.9906	0.2	sqxk	45	verb	phrase	1	4	match	loin	5	1	p	0.89903
423.1905	0.0	+	45	verb	phrase	1	5	match	loin	5	1	p	0.89903
423.59029999999996	0.2	xnhd	45	verb	phrase	1	6	match	loin	5	1	p	0.89903
423.79019999999997	0.0	+	45	verb	phrase	1	7	match	loin	5	1	p	0.89903
424.1901	0.2	qlvrfsd	45	verb	phrase	1	8	match	loin	5	1	p	0.89903
424.3902	0.0	+	45	verb	phrase	1	9	match	loin	5	1	p	0.89903
424.7899	0.2	loin	45	verb	phrase	1	10	match	loin	5	1	p	0.89903
424.98969999999997	0.0	+	45	verb	phrase	1	11	match	loin	5	1	p	0.89903
425.3895	0.0	+	45	verb	phrase	1	12	match	loin	5	1	p	0.89903
427.3893	0.0	LOIN	45	verb	phrase	1	13	match	loin	5	1	p	0.89903
428.3555	0.0	+	45	verb	phrase	1	14	match	loin	5	1	p	0.89903
428.2883	0.0	[response]	45	verb	phrase	1	15	match	loin	5	1	p	0.89903
429.78749999999997	0.0	+	46	noun	phrase	1	1	nomatch	yves	-1	1	y	0.6978
430.33729999999997	0.2	qrwxkb	46	noun	phrase	1	2	nomatch	yves	-1	1	y	0.6978
430.5379	0.0	+	46	noun	phrase	1	3	nomatch	yves	-1	1	y	0.6978
430.9377	0.2	crtd	46	noun	phrase	1	4	nomatch	yves	-1	1	y	0.6978
431.1377	0.0	+	46	noun	phrase	1	5	nomatch	yves	-1	1	y	0.6978
431.53679999999997	0.2	tqd	46	noun	phrase	1	6	nomatch	yves	-1	1	y	0.6978
431.7367	0.0	+	46	noun	phrase	1	7	nomatch	yves	-1	1	y	0.6978
432.13649999999996	0.2	hjrx	46	noun	phrase	1	8	nomatch	yves	-1	1	y	0.6978
432.33639999999997	0.0	+	46	noun	phrase	1	9	nomatch	yves	-1	1	y	0.6978
432.7362	0.2	tablier	46	noun	phrase	1	10	nomatch	yves	-1	1	y	0.6978
432.9361	0.0	+	46	noun	phrase	1	11	nomatch	yves	-1	1	y	0.6978
433.3359	0.0	+	46	noun	phrase	1	12	nomatch	yves	-1	1	y	0.6978
435.3357	0.0	YVES	46	noun	phrase	1	13	nomatch	yves	-1	1	y	0.6978
436.08509999999995	0.0	+	46	noun	phrase	1	14	nomatch	yves	-1	1	y	0.6978
436.0335	0.0	[response]	46	noun	phrase	1	15	nomatch	yves	-1	1	y	0.6978
437.734	0.0	+	47	verb	phrase	2	1	match	voyager	5	1	p	1.6299
438.30039999999997	0.2	wkd	47	verb	phrase	2	2	match	voyager	5	1	p	1.6299
438.4837	0.0	+	47	verb	phrase	2	3	match	voyager	5	1	p	1.6299
438.9001	0.2	nxwc	47	verb	phrase	2	4	match	voyager	5	1	p	1.6299
439.09999999999997	0.0	+	47	verb	phrase	2	5	match	voyager	5	1	p	1.6299
439.4998	0.2	qcpb	47	verb	phrase	2	6	match	voyager	5	1	p	1.6299
439.7165	0.0	+	47	verb	phrase	2	7	match	voyager	5	1	p	1.6299
440.1167	0.2	mieux	47	verb	phrase	2	8	match	voyager	5	1	p	1.6299
440.30019999999996	0.0	+	47	verb	phrase	2	9	match	voyager	5	1	p	1.6299
440.7	0.2	voyager	47	verb	phrase	2	10	match	voyager	5	1	p	1.6299
440.8992	0.0	+	47	verb	phrase	2	11	match	voyager	5	1	p	1.6299
441.299	0.0	+	47	verb	phrase	2	12	match	voyager	5	1	p	1.6299
443.2981	0.0	VOYAGER	47	verb	phrase	2	13	match	voyager	5	1	p	1.6299
444.98069999999996	0.0	+	47	verb	phrase	2	14	match	voyager	5	1	p	1.6299
444.92800000000005	0.0	[response]	47	verb	phrase	2	15	match	voyager	5	1	p	1.6299
453.6935	0.0	+	48	noun	phrase	1	1	match	rocher	5	0	TIMEOUT	-1.0
454.2432	0.2	wtrqdxh	48	noun	phrase	1	2	match	rocher	5	0	TIMEOUT	-1.0
454.44309999999996	0.0	+	48	noun	phrase	1	3	match	rocher	5	0	TIMEOUT	-1.0
454.8429	0.2	wpc	48	noun	phrase	1	4	match	rocher	5	0	TIMEOUT	-1.0
455.04279999999994	0.0	+	48	noun	phrase	1	5	match	rocher	5	0	TIMEOUT	-1.0
455.443	0.2	vfcg	48	noun	phrase	1	6	match	rocher	5	0	TIMEOUT	-1.0
455.6432	0.0	+	48	noun	phrase	1	7	match	rocher	5	0	TIMEOUT	-1.0
456.04239999999993	0.2	vlpmt	48	noun	phrase	1	8	match	rocher	5	0	TIMEOUT	-1.0
456.2423	0.0	+	48	noun	phrase	1	9	match	rocher	5	0	TIMEOUT	-1.0
456.6421	0.2	rocher	48	noun	phrase	1	10	match	rocher	5	0	TIMEOUT	-1.0
456.842	0.0	+	48	noun	phrase	1	11	match	rocher	5	0	TIMEOUT	-1.0
457.2418	0.0	+	48	noun	phrase	1	12	match	rocher	5	0	TIMEOUT	-1.0
459.2415	0.0	ROCHER	48	noun	phrase	1	13	match	rocher	5	0	TIMEOUT	-1.0
461.6399	0.0	+	49	noun	phrase	1	1	match	grand	5	1	p	0.7899300000000001
462.2396	0.2	cmpdj	49	noun	phrase	1	2	match	grand	5	1	p	0.7899300000000001
462.43949999999995	0.0	+	49	noun	phrase	1	3	match	grand	5	1	p	0.7899300000000001
462.8393	0.2	fwdp	49	noun	phrase	1	4	match	grand	5	1	p	0.7899300000000001
463.03919999999994	0.0	+	49	noun	phrase	1	5	match	grand	5	1	p	0.7899300000000001
463.43909999999994	0.2	tqd	49	noun	phrase	1	6	match	grand	5	1	p	0.7899300000000001
463.639	0.0	+	49	noun	phrase	1	7	match	grand	5	1	p	0.7899300000000001
464.03880000000004	0.2	cglqzs	49	noun	phrase	1	8	match	grand	5	1	p	0.7899300000000001
464.2387	0.0	+	49	noun	phrase	1	9	match	grand	5	1	p	0.7899300000000001
464.6385	0.2	grand	49	noun	phrase	1	10	match	grand	5	1	p	0.7899300000000001
464.8384	0.0	+	49	noun	phrase	1	11	match	grand	5	1	p	0.7899300000000001
465.2382	0.0	+	49	noun	phrase	1	12	match	grand	5	1	p	0.7899300000000001
467.2373	0.0	GRAND	49	noun	phrase	1	13	match	grand	5	1	p	0.7899300000000001
468.087	0.0	+	49	noun	phrase	1	14	match	grand	5	1	p	0.7899300000000001
468.02729999999997	0.0	[response]	49	noun	phrase	1	15	match	grand	5	1	p	0.7899300000000001
469.6363	0.0	+	50	verb	list	3	1	nomatch	rouge	-1	1	y	1.0127
470.18600000000004	0.2	zrkf	50	verb	list	3	2	nomatch	rouge	-1	1	y	1.0127
470.3859	0.0	+	50	verb	list	3	3	nomatch	rouge	-1	1	y	1.0127
470.7857	0.2	sqxk	50	verb	list	3	4	nomatch	rouge	-1	1	y	1.0127
470.98569999999995	0.0	+	50	verb	list	3	5	nomatch	rouge	-1	1	y	1.0127
471.3855	0.2	mon	50	verb	list	3	6	nomatch	rouge	-1	1	y	1.0127
471.58590000000004	0.0	+	50	verb	list	3	7	nomatch	rouge	-1	1	y	1.0127
471.9857999999999	0.2	parader	50	verb	list	3	8	nomatch	rouge	-1	1	y	1.0127
472.18510000000003	0.0	+	50	verb	list	3	9	nomatch	rouge	-1	1	y	1.0127
472.58500000000004	0.2	blanc	50	verb	list	3	10	nomatch	rouge	-1	1	y	1.0127
472.7848	0.0	+	50	verb	list	3	11	nomatch	rouge	-1	1	y	1.0127
473.1847	0.0	+	50	verb	list	3	12	nomatch	rouge	-1	1	y	1.0127
475.1838	0.0	ROUGE	50	verb	list	3	13	nomatch	rouge	-1	1	y	1.0127
476.28329999999994	0.0	+	50	verb	list	3	14	nomatch	rouge	-1	1	y	1.0127
476.19640000000004	0.0	[response]	50	verb	list	3	15	nomatch	rouge	-1	1	y	1.0127
477.59929999999997	0.0	+	51	verb	phrase	3	1	match	peut	3	1	p	0.76725
478.1491	0.2	rpsg	51	verb	phrase	3	2	match	peut	3	1	p	0.76725
478.34899999999993	0.0	+	51	verb	phrase	3	3	match	peut	3	1	p	0.76725
478.74879999999996	0.2	zrb	51	verb	phrase	3	4	match	peut	3	1	p	0.76725
478.94870000000003	0.0	+	51	verb	phrase	3	5	match	peut	3	1	p	0.76725
479.34860000000003	0.2	peut	51	verb	phrase	3	6	match	peut	3	1	p	0.76725
479.5485	0.0	+	51	verb	phrase	3	7	match	peut	3	1	p	0.76725
479.94870000000003	0.2	moins	51	verb	phrase	3	8	match	peut	3	1	p	0.76725
480.1489	0.0	+	51	verb	phrase	3	9	match	peut	3	1	p	0.76725
480.5485	0.2	danser	51	verb	phrase	3	10	match	peut	3	1	p	0.76725
480.7481	0.0	+	51	verb	phrase	3	11	match	peut	3	1	p	0.76725
481.14829999999995	0.0	+	51	verb	phrase	3	12	match	peut	3	1	p	0.76725
483.14750000000004	0.0	PEUT	51	verb	phrase	3	13	match	peut	3	1	p	0.76725
483.97979999999995	0.0	+	51	verb	phrase	3	14	match	peut	3	1	p	0.76725
483.9148	0.0	[response]	51	verb	phrase	3	15	match	peut	3	1	p	0.76725
485.5458	0.0	+	52	noun	phrase	1	1	nomatch	bleu	-1	1	y	0.69595
486.0955	0.2	xfvs	52	noun	phrase	1	2	nomatch	bleu	-1	1	y	0.69595
486.2954	0.0	+	52	noun	phrase	1	3	nomatch	bleu	-1	1	y	0.69595
486.6953	0.2	zbvr	52	noun	phrase	1	4	nomatch	bleu	-1	1	y	0.69595
486.8954	0.0	+	52	noun	phrase	1	5	nomatch	bleu	-1	1	y	0.69595
487.29560000000004	0.2	tqd	52	noun	phrase	1	6	nomatch	bleu	-1	1	y	0.69595
487.49490000000003	0.0	+	52	noun	phrase	1	7	nomatch	bleu	-1	1	y	0.69595
487.8953	0.2	hsmdfnc	52	noun	phrase	1	8	nomatch	bleu	-1	1	y	0.69595
488.09489999999994	0.0	+	52	noun	phrase	1	9	nomatch	bleu	-1	1	y	0.69595
488.4943999999999	0.2	noir	52	noun	phrase	1	10	nomatch	bleu	-1	1	y	0.69595
488.6944	0.0	+	52	noun	phrase	1	11	nomatch	bleu	-1	1	y	0.69595
489.0942	0.0	+	52	noun	phrase	1	12	nomatch	bleu	-1	1	y	0.69595
491.0933	0.0	BLEU	52	noun	phrase	1	13	nomatch	bleu	-1	1	y	0.69595
491.87659999999994	0.0	+	52	noun	phrase	1	14	nomatch	bleu	-1	1	y	0.69595
491.78919999999994	0.0	[response]	52	noun	phrase	1	15	nomatch	bleu	-1	1	y	0.69595
509.485	0.0	+	53	verb	phrase	4	1	nomatch	vers	-1	0	p	1.9853
510.0348	0.2	lfdvkb	53	verb	phrase	4	2	nomatch	vers	-1	0	p	1.9853
510.2347	0.0	+	53	verb	phrase	4	3	nomatch	vers	-1	0	p	1.9853
510.6345	0.2	paul	53	verb	phrase	4	4	nomatch	vers	-1	0	p	1.9853
510.83439999999996	0.0	+	53	verb	phrase	4	5	nomatch	vers	-1	0	p	1.9853
511.2342	0.2	peut	53	verb	phrase	4	6	nomatch	vers	-1	0	p	1.9853
511.43409999999994	0.0	+	53	verb	phrase	4	7	nomatch	vers	-1	0	p	1.9853
511.83389999999997	0.2	voyager	53	verb	phrase	4	8	nomatch	vers	-1	0	p	1.9853
512.0339	0.0	+	53	verb	phrase	4	9	nomatch	vers	-1	0	p	1.9853
512.4336999999999	0.2	loin	53	verb	phrase	4	10	nomatch	vers	-1	0	p	1.9853
512.6338	0.0	+	53	verb	phrase	4	11	nomatch	vers	-1	0	p	1.9853
513.0504999999999	0.0	+	53	verb	phrase	4	12	nomatch	vers	-1	0	p	1.9853
515.0491999999999	0.0	VERS	53	verb	phrase	4	13	nomatch	vers	-1	0	p	1.9853
517.0982	0.0	+	53	verb	phrase	4	14	nomatch	vers	-1	0	p	1.9853
517.0345	0.0	[response]	53	verb	phrase	4	15	nomatch	vers	-1	0	p	1.9853
517.4481	0.0	+	54	noun	phrase	1	1	match	nouveau	5	1	p	0.5845200000000002
517.9978	0.2	xkvnh	54	noun	phrase	1	2	match	nouveau	5	1	p	0.5845200000000002
518.1978	0.0	+	54	noun	phrase	1	3	match	nouveau	5	1	p	0.5845200000000002
518.5975999999999	0.2	lbvx	54	noun	phrase	1	4	match	nouveau	5	1	p	0.5845200000000002
518.7975	0.0	+	54	noun	phrase	1	5	match	nouveau	5	1	p	0.5845200000000002
519.1972999999999	0.2	tqd	54	noun	phrase	1	6	match	nouveau	5	1	p	0.5845200000000002
519.3972	0.0	+	54	noun	phrase	1	7	match	nouveau	5	1	p	0.5845200000000002
519.797	0.2	nbsljmr	54	noun	phrase	1	8	match	nouveau	5	1	p	0.5845200000000002
519.9969	0.0	+	54	noun	phrase	1	9	match	nouveau	5	1	p	0.5845200000000002
520.3968	0.2	nouveau	54	noun	phrase	1	10	match	nouveau	5	1	p	0.5845200000000002
520.5971999999999	0.0	+	54	noun	phrase	1	11	match	nouveau	5	1	p	0.5845200000000002
520.9969	0.0	+	54	noun	phrase	1	12	match	nouveau	5	1	p	0.5845200000000002
522.9956	0.0	NOUVEAU	54	noun	phrase	1	13	match	nouveau	5	1	p	0.5845200000000002
523.6453	0.0	+	54	noun	phrase	1	14	match	nouveau	5	1	p	0.5845200000000002
523.5801	0.0	[response]	54	noun	phrase	1	15	match	nouveau	5	1	p	0.5845200000000002
533.3909	0.0	+	55	noun	phrase	2	1	nomatch	jean	-1	1	y	2.5264
533.9407	0.2	rzpmkf	55	noun	phrase	2	2	nomatch	jean	-1	1	y	2.5264
534.1406	0.0	+	55	noun	phrase	2	3	nomatch	jean	-1	1	y	2.5264
534.5404	0.2	cqgv	55	noun	phrase	2	4	nomatch	jean	-1	1	y	2.5264
534.7402999999999	0.0	+	55	noun	phrase	2	5	nomatch	jean	-1	1	y	2.5264
535.1401	0.2	vfcg	55	noun	phrase	2	6	nomatch	jean	-1	1	y	2.5264
535.34	0.0	+	55	noun	phrase	2	7	nomatch	jean	-1	1	y	2.5264
535.7399	0.2	sablier	55	noun	phrase	2	8	nomatch	jean	-1	1	y	2.5264
535.9398	0.0	+	55	noun	phrase	2	9	nomatch	jean	-1	1	y	2.5264
536.3396	0.2	vert	55	noun	phrase	2	10	nomatch	jean	-1	1	y	2.5264
536.5395	0.0	+	55	noun	phrase	2	11	nomatch	jean	-1	1	y	2.5264
536.9395	0.0	+	55	noun	phrase	2	12	nomatch	jean	-1	1	y	2.5264
538.9384	0.0	JEAN	55	noun	phrase	2	13	nomatch	jean	-1	1	y	2.5264
541.5206	0.0	+	55	noun	phrase	2	14	nomatch	jean	-1	1	y	2.5264
541.4649	0.0	[response]	55	noun	phrase	2	15	nomatch	jean	-1	1	y	2.5264
549.3670999999999	0.0	+	56	verb	list	1	1	nomatch	rouler	-1	1	y	0.61662
549.9001	0.2	bzsjqw	56	verb	list	1	2	nomatch	rouler	-1	1	y	0.61662
550.1001	0.0	+	56	verb	list	1	3	nomatch	rouler	-1	1	y	0.61662
550.4999	0.2	bnmr	56	verb	list	1	4	nomatch	rouler	-1	1	y	0.61662
550.6998	0.0	+	56	verb	list	1	5	nomatch	rouler	-1	1	y	0.61662
551.0996	0.2	tqd	56	verb	list	1	6	nomatch	rouler	-1	1	y	0.61662
551.2995	0.0	+	56	verb	list	1	7	nomatch	rouler	-1	1	y	0.61662
551.6993	0.2	vlpmt	56	verb	list	1	8	nomatch	rouler	-1	1	y	0.61662
551.8992999999999	0.0	+	56	verb	list	1	9	nomatch	rouler	-1	1	y	0.61662
552.2991	0.2	danser	56	verb	list	1	10	nomatch	rouler	-1	1	y	0.61662
552.499	0.0	+	56	verb	list	1	11	nomatch	rouler	-1	1	y	0.61662
552.8995	0.0	+	56	verb	list	1	12	nomatch	rouler	-1	1	y	0.61662
554.8978999999999	0.0	ROULER	56	verb	list	1	13	nomatch	rouler	-1	1	y	0.61662
555.5808999999999	0.0	+	56	verb	list	1	14	nomatch	rouler	-1	1	y	0.61662
555.5145	0.0	[response]	56	verb	list	1	15	nomatch	rouler	-1	1	y	0.61662
557.2968	0.0	+	57	verb	phrase	2	1	match	ainsi	5	1	p	0.78864
557.8466	0.2	zlmnw	57	verb	phrase	2	2	match	ainsi	5	1	p	0.78864
558.0465	0.0	+	57	verb	phrase	2	3	match	ainsi	5	1	p	0.78864
558.4463	0.2	ckfr	57	verb	phrase	2	4	match	ainsi	5	1	p	0.78864
558.6462	0.0	+	57	verb	phrase	2	5	match	ainsi	5	1	p	0.78864
559.0461	0.2	pv	57	verb	phrase	2	6	match	ainsi	5	1	p	0.78864
559.2466	0.0	+	57	verb	phrase	2	7	match	ainsi	5	1	p	0.78864
559.6460999999999	0.2	nager	57	verb	phrase	2	8	match	ainsi	5	1	p	0.78864
559.8457	0.0	+	57	verb	phrase	2	9	match	ainsi	5	1	p	0.78864
560.2455	0.2	ainsi	57	verb	phrase	2	10	match	ainsi	5	1	p	0.78864
560.4454	0.0	+	57	verb	phrase	2	11	match	ainsi	5	1	p	0.78864
560.8452	0.0	+	57	verb	phrase	2	12	match	ainsi	5	1	p	0.78864
562.8448999999999	0.0	AINSI	57	verb	phrase	2	13	match	ainsi	5	1	p	0.78864
563.694	0.0	+	57	verb	phrase	2	14	match	ainsi	5	1	p	0.78864
563.6336000000001	0.0	[response]	57	verb	phrase	2	15	match	ainsi	5	1	p	0.78864
565.2432	0.0	+	58	noun	list	1	1	nomatch	tablier	-1	1	y	1.0536
565.8102	0.2	bgd	58	noun	list	1	2	nomatch	tablier	-1	1	y	1.0536
565.9934	0.0	+	58	noun	list	1	3	nomatch	tablier	-1	1	y	1.0536
566.3928	0.2	qlzg	58	noun	list	1	4	nomatch	tablier	-1	1	y	1.0536
566.6093999999999	0.0	+	58	noun	list	1	5	nomatch	tablier	-1	1	y	1.0536
566.9925	0.2	tqd	58	noun	list	1	6	nomatch	tablier	-1	1	y	1.0536
567.1924	0.0	+	58	noun	list	1	7	nomatch	tablier	-1	1	y	1.0536
567.5921999999999	0.2	mbhr	58	noun	list	1	8	nomatch	tablier	-1	1	y	1.0536
567.7921	0.0	+	58	noun	list	1	9	nomatch	tablier	-1	1	y	1.0536
568.1919	0.2	casier	58	noun	list	1	10	nomatch	tablier	-1	1	y	1.0536
568.3918	0.0	+	58	noun	list	1	11	nomatch	tablier	-1	1	y	1.0536
568.7917	0.0	+	58	noun	list	1	12	nomatch	tablier	-1	1	y	1.0536
570.7908	0.0	TABLIER	58	noun	list	1	13	nomatch	tablier	-1	1	y	1.0536
571.9069	0.0	+	58	noun	list	1	14	nomatch	tablier	-1	1	y	1.0536
571.8444	0.0	[response]	58	noun	list	1	15	nomatch	tablier	-1	1	y	1.0536
573.1897	0.0	+	59	verb	list	1	1	match	rouge	5	1	p	1.4242
573.7393999999999	0.2	xgbqkh	59	verb	list	1	2	match	rouge	5	1	p	1.4242
573.9393	0.0	+	59	verb	list	1	3	match	rouge	5	1	p	1.4242
574.3392	0.2	nxwc	59	verb	list	1	4	match	rouge	5	1	p	1.4242
574.5391	0.0	+	59	verb	list	1	5	match	rouge	5	1	p	1.4242
574.9389	0.2	rfc	59	verb	list	1	6	match	rouge	5	1	p	1.4242
575.1388	0.0	+	59	verb	list	1	7	match	rouge	5	1	p	1.4242
575.5386	0.2	sdwnlp	59	verb	list	1	8	match	rouge	5	1	p	1.4242
575.7384999999999	0.0	+	59	verb	list	1	9	match	rouge	5	1	p	1.4242
576.1389	0.2	rouge	59	verb	list	1	10	match	rouge	5	1	p	1.4242
576.3556	0.0	+	59	verb	list	1	11	match	rouge	5	1	p	1.4242
576.7384	0.0	+	59	verb	list	1	12	match	rouge	5	1	p	1.4242
578.7372	0.0	ROUGE	59	verb	list	1	13	match	rouge	5	1	p	1.4242
580.2533999999999	0.0	+	59	verb	list	1	14	match	rouge	5	1	p	1.4242
580.1613	0.0	[response]	59	verb	list	1	15	match	rouge	5	1	p	1.4242
581.1360999999999	0.0	+	60	noun	phrase	2	1	match	tablier	5	1	p	0.72193
581.6859	0.2	nzsgvlr	60	noun	phrase	2	2	match	tablier	5	1	p	0.72193
581.8858	0.0	+	60	noun	phrase	2	3	match	tablier	5	1	p	0.72193
582.2855999999999	0.2	wpc	60	noun	phrase	2	4	match	tablier	5	1	p	0.72193
582.4855	0.0	+	60	noun	phrase	2	5	match	tablier	5	1	p	0.72193
582.8853	0.2	tqd	60	noun	phrase	2	6	match	tablier	5	1	p	0.72193
583.0852	0.0	+	60	noun	phrase	2	7	match	tablier	5	1	p	0.72193
583.485	0.2	beau	60	noun	phrase	2	8	match	tablier	5	1	p	0.72193
583.685	0.0	+	60	noun	phrase	2	9	match	tablier	5	1	p	0.72193
584.1019	0.2	tablier	60	noun	phrase	2	10	match	tablier	5	1	p	0.72193
584.285	0.0	+	60	noun	phrase	2	11	match	tablier	5	1	p	0.72193
584.6852	0.0	+	60	noun	phrase	2	12	match	tablier	5	1	p	0.72193
586.7003	0.0	TABLIER	60	noun	phrase	2	13	match	tablier	5	1	p	0.72193
587.4832	0.0	+	60	noun	phrase	2	14	match	tablier	5	1	p	0.72193
587.4222000000001	0.0	[response]	60	noun	phrase	2	15	match	tablier	5	1	p	0.72193
589.0992	0.0	+	61	noun	list	4	1	nomatch	ainsi	-1	1	y	1.5872000000000002
589.6489	0.2	njds	61	noun	list	4	2	nomatch	ainsi	-1	1	y	1.5872000000000002
589.8489	0.0	+	61	noun	list	4	3	nomatch	ainsi	-1	1	y	1.5872000000000002
590.2487	0.2	sous	61	noun	list	4	4	nomatch	ainsi	-1	1	y	1.5872000000000002
590.4485999999999	0.0	+	61	noun	list	4	5	nomatch	ainsi	-1	1	y	1.5872000000000002
590.8484	0.2	doit	61	noun	list	4	6	nomatch	ainsi	-1	1	y	1.5872000000000002
591.0482999999999	0.0	+	61	noun	list	4	7	nomatch	ainsi	-1	1	y	1.5872000000000002
591.4481	0.2	grenier	61	noun	list	4	8	nomatch	ainsi	-1	1	y	1.5872000000000002
591.6484	0.0	+	61	noun	list	4	9	nomatch	ainsi	-1	1	y	1.5872000000000002
592.048	0.2	loin	61	noun	list	4	10	nomatch	ainsi	-1	1	y	1.5872000000000002
592.2478	0.0	+	61	noun	list	4	11	nomatch	ainsi	-1	1	y	1.5872000000000002
592.6476	0.0	+	61	noun	list	4	12	nomatch	ainsi	-1	1	y	1.5872000000000002
594.6467	0.0	AINSI	61	noun	list	4	13	nomatch	ainsi	-1	1	y	1.5872000000000002
596.3299	0.0	+	61	noun	list	4	14	nomatch	ainsi	-1	1	y	1.5872000000000002
596.2339	0.0	[response]	61	noun	list	4	15	nomatch	ainsi	-1	1	y	1.5872000000000002
597.0456	0.0	+	62	verb	list	1	1	nomatch	parader	-1	1	y	1.0957
597.5953999999999	0.2	kpnf	62	verb	list	1	2	nomatch	parader	-1	1	y	1.0957
597.7953	0.0	+	62	verb	list	1	3	nomatch	parader	-1	1	y	1.0957
598.1951	0.2	fwdp	62	verb	list	1	4	nomatch	parader	-1	1	y	1.0957
598.395	0.0	+	62	verb	list	1	5	nomatch	parader	-1	1	y	1.0957
598.7954	0.2	pv	62	verb	list	1	6	nomatch	parader	-1	1	y	1.0957
599.0121	0.0	+	62	verb	list	1	7	nomatch	parader	-1	1	y	1.0957
599.3949	0.2	hfkgq	62	verb	list	1	8	nomatch	parader	-1	1	y	1.0957
599.5945	0.0	+	62	verb	list	1	9	nomatch	parader	-1	1	y	1.0957
599.9943	0.2	voyager	62	verb	list	1	10	nomatch	parader	-1	1	y	1.0957
600.1942	0.0	+	62	verb	list	1	11	nomatch	parader	-1	1	y	1.0957
600.5939999999999	0.0	+	62	verb	list	1	12	nomatch	parader	-1	1	y	1.0957
602.6099	0.0	PARADER	62	verb	list	1	13	nomatch	parader	-1	1	y	1.0957
603.7592	0.0	+	62	verb	list	1	14	nomatch	parader	-1	1	y	1.0957
603.7056000000001	0.0	[response]	62	verb	list	1	15	nomatch	parader	-1	1	y	1.0957
604.992	0.0	+	63	noun	phrase	3	1	match	nouveau	4	0	y	1.796
605.5418	0.2	blgjz	63	noun	phrase	3	2	match	nouveau	4	0	y	1.796
605.759	0.0	+	63	noun	phrase	3	3	match	nouveau	4	0	y	1.796
606.1417	0.2	lbvx	63	noun	phrase	3	4	match	nouveau	4	0	y	1.796
606.3419	0.0	+	63	noun	phrase	3	5	match	nouveau	4	0	y	1.796
606.7415	0.2	mon	63	noun	phrase	3	6	match	nouveau	4	0	y	1.796
606.9415	0.0	+	63	noun	phrase	3	7	match	nouveau	4	0	y	1.796
607.341	0.2	nouveau	63	noun	phrase	3	8	match	nouveau	4	0	y	1.796
607.5409	0.0	+	63	noun	phrase	3	9	match	nouveau	4	0	y	1.796
607.9407	0.2	boîtier	63	noun	phrase	3	10	match	nouveau	4	0	y	1.796
608.1406	0.0	+	63	noun	phrase	3	11	match	nouveau	4	0	y	1.796
608.5404	0.0	+	63	noun	phrase	3	12	match	nouveau	4	0	y	1.796
610.5395	0.0	NOUVEAU	63	noun	phrase	3	13	match	nouveau	4	0	y	1.796
612.3887	0.0	+	63	noun	phrase	3	14	match	nouveau	4	0	y	1.796
612.3356000000001	0.0	[response]	63	noun	phrase	3	15	match	nouveau	4	0	y	1.796
612.9385	0.0	+	64	verb	phrase	3	1	nomatch	nager	-1	1	y	4.3234
613.4882	0.2	jqg	64	verb	phrase	3	2	nomatch	nager	-1	1	y	4.3234
613.6881	0.0	+	64	verb	phrase	3	3	nomatch	nager	-1	1	y	4.3234
614.0879	0.2	bnmr	64	verb	phrase	3	4	nomatch	nager	-1	1	y	4.3234
614.2878	0.0	+	64	verb	phrase	3	5	nomatch	nager	-1	1	y	4.3234
614.6877	0.2	doit	64	verb	phrase	3	6	nomatch	nager	-1	1	y	4.3234
614.8876	0.0	+	64	verb	phrase	3	7	nomatch	nager	-1	1	y	4.3234
615.2873999999999	0.2	mieux	64	verb	phrase	3	8	nomatch	nager	-1	1	y	4.3234
615.4873	0.0	+	64	verb	phrase	3	9	nomatch	nager	-1	1	y	4.3234
615.8871	0.2	voyager	64	verb	phrase	3	10	nomatch	nager	-1	1	y	4.3234
616.087	0.0	+	64	verb	phrase	3	11	nomatch	nager	-1	1	y	4.3234
616.4875	0.0	+	64	verb	phrase	3	12	nomatch	nager	-1	1	y	4.3234
618.486	0.0	NAGER	64	verb	phrase	3	13	nomatch	nager	-1	1	y	4.3234
622.8673	0.0	+	64	verb	phrase	3	14	nomatch	nager	-1	1	y	4.3234
622.8094	0.0	[response]	64	verb	phrase	3	15	nomatch	nager	-1	1	y	4.3234
628.8978999999999	0.0	+	65	verb	phrase	2	1	match	moins	4	1	p	1.3126
629.4476999999999	0.2	rdv	65	verb	phrase	2	2	match	moins	4	1	p	1.3126
629.6476	0.0	+	65	verb	phrase	2	3	match	moins	4	1	p	1.3126
630.0474	0.2	sqxk	65	verb	phrase	2	4	match	moins	4	1	p	1.3126
630.2473	0.0	+	65	verb	phrase	2	5	match	moins	4	1	p	1.3126
630.6471	0.2	qcpb	65	verb	phrase	2	6	match	moins	4	1	p	1.3126
630.8471	0.0	+	65	verb	phrase	2	7	match	moins	4	1	p	1.3126
631.2476	0.2	moins	65	verb	phrase	2	8	match	moins	4	1	p	1.3126
631.4474	0.0	+	65	verb	phrase	2	9	match	moins	4	1	p	1.3126
631.8473	0.2	jongler	65	verb	phrase	2	10	match	moins	4	1	p	1.3126
632.0471	0.0	+	65	verb	phrase	2	11	match	moins	4	1	p	1.3126
632.4463	0.0	+	65	verb	phrase	2	12	match	moins	4	1	p	1.3126
634.4454	0.0	MOINS	65	verb	phrase	2	13	match	moins	4	1	p	1.3126
635.8115	0.0	+	65	verb	phrase	2	14	match	moins	4	1	p	1.3126
635.7581	0.0	[response]	65	verb	phrase	2	15	match	moins	4	1	p	1.3126
636.8444	0.0	+	66	noun	phrase	4	1	nomatch	rouge	-1	1	y	0.75596
637.3941	0.2	mhclk	66	noun	phrase	4	2	nomatch	rouge	-1	1	y	0.75596
637.5939999999999	0.0	+	66	noun	phrase	4	3	nomatch	rouge	-1	1	y	0.75596
637.9938	0.2	vers	66	noun	phrase	4	4	nomatch	rouge	-1	1	y	0.75596
638.1937	0.0	+	66	noun	phrase	4	5	nomatch	rouge	-1	1	y	0.75596
638.5936	0.2	leur	66	noun	phrase	4	6	nomatch	rouge	-1	1	y	0.75596
638.7935	0.0	+	66	noun	phrase	4	7	nomatch	rouge	-1	1	y	0.75596
639.1933	0.2	panier	66	noun	phrase	4	8	nomatch	rouge	-1	1	y	0.75596
639.3932	0.0	+	66	noun	phrase	4	9	nomatch	rouge	-1	1	y	0.75596
639.7936	0.2	noir	66	noun	phrase	4	10	nomatch	rouge	-1	1	y	0.75596
639.9934999999999	0.0	+	66	noun	phrase	4	11	nomatch	rouge	-1	1	y	0.75596
640.3928	0.0	+	66	noun	phrase	4	12	nomatch	rouge	-1	1	y	0.75596
642.3919999999999	0.0	ROUGE	66	noun	phrase	4	13	nomatch	rouge	-1	1	y	0.75596
643.2082	0.0	+	66	noun	phrase	4	14	nomatch	rouge	-1	1	y	0.75596
643.1480000000001	0.0	[response]	66	noun	phrase	4	15	nomatch	rouge	-1	1	y	0.75596
644.7908	0.0	+	67	verb	phrase	4	1	nomatch	blanc	-1	1	y	0.77655
645.3405	0.2	lgcw	67	verb	phrase	4	2	nomatch	blanc	-1	1	y	0.77655
645.5405	0.0	+	67	verb	phrase	4	3	nomatch	blanc	-1	1	y	0.77655
645.9403	0.2	luc	67	verb	phrase	4	4	nomatch	blanc	-1	1	y	0.77655
646.1401999999999	0.0	+	67	verb	phrase	4	5	nomatch	blanc	-1	1	y	0.77655
646.5400999999999	0.2	peut	67	verb	phrase	4	6	nomatch	blanc	-1	1	y	0.77655
646.7406	0.0	+	67	verb	phrase	4	7	nomatch	blanc	-1	1	y	0.77655
647.1397	0.2	plus	67	verb	phrase	4	8	nomatch	blanc	-1	1	y	0.77655
647.3397	0.0	+	67	verb	phrase	4	9	nomatch	blanc	-1	1	y	0.77655
647.7395	0.2	danser	67	verb	phrase	4	10	nomatch	blanc	-1	1	y	0.77655
647.9394	0.0	+	67	verb	phrase	4	11	nomatch	blanc	-1	1	y	0.77655
648.3392	0.0	+	67	verb	phrase	4	12	nomatch	blanc	-1	1	y	0.77655
650.3383	0.0	BLANC	67	verb	phrase	4	13	nomatch	blanc	-1	1	y	0.77655
651.1712	0.0	+	67	verb	phrase	4	14	nomatch	blanc	-1	1	y	0.77655
651.1148	0.0	[response]	67	verb	phrase	4	15	nomatch	blanc	-1	1	y	0.77655
652.7372	0.0	+	68	noun	list	4	1	match	tard	5	0	y	1.0055
653.287	0.2	zswgx	68	noun	list	4	2	match	tard	5	0	y	1.0055
653.4869	0.0	+	68	noun	list	4	3	match	tard	5	0	y	1.0055
653.8867	0.2	avec	68	noun	list	4	4	match	tard	5	0	y	1.0055
654.0866	0.0	+	68	noun	list	4	5	match	tard	5	0	y	1.0055
654.4864	0.2	va	68	noun	list	4	6	match	tard	5	0	y	1.0055
654.6863	0.0	+	68	noun	list	4	7	match	tard	5	0	y	1.0055
655.0862	0.2	sablier	68	noun	list	4	8	match	tard	5	0	y	1.0055
655.2861	0.0	+	68	noun	list	4	9	match	tard	5	0	y	1.0055
655.7031	0.2	tard	68	noun	list	4	10	match	tard	5	0	y	1.0055
655.8864	0.0	+	68	noun	list	4	11	match	tard	5	0	y	1.0055
656.286	0.0	+	68	noun	list	4	12	match	tard	5	0	y	1.0055
658.2846999999999	0.0	TARD	68	noun	list	4	13	match	tard	5	0	y	1.0055
659.3509	0.0	+	68	noun	list	4	14	match	tard	5	0	y	1.0055
659.2902	0.0	[response]	68	noun	list	4	15	match	tard	5	0	y	1.0055
660.6836	0.0	+	69	verb	phrase	1	1	match	plus	5	0	y	0.87022
661.2501	0.2	jvdgp	69	verb	phrase	1	2	match	plus	5	0	y	0.87022
661.4499999999999	0.0	+	69	verb	phrase	1	3	match	plus	5	0	y	0.87022
661.8498	0.2	ckfr	69	verb	phrase	1	4	match	plus	5	0	y	0.87022
662.0497	0.0	+	69	verb	phrase	1	5	match	plus	5	0	y	0.87022
662.4495	0.2	pv	69	verb	phrase	1	6	match	plus	5	0	y	0.87022
662.6494	0.0	+	69	verb	phrase	1	7	match	plus	5	0	y	0.87022
663.0493	0.2	rgfchbj	69	verb	phrase	1	8	match	plus	5	0	y	0.87022
663.2491	0.0	+	69	verb	phrase	1	9	match	plus	5	0	y	0.87022
663.6495	0.2	plus	69	verb	phrase	1	10	match	plus	5	0	y	0.87022
663.8494	0.0	+	69	verb	phrase	1	11	match	plus	5	0	y	0.87022
664.2487	0.0	+	69	verb	phrase	1	12	match	plus	5	0	y	0.87022
666.265	0.0	PLUS	69	verb	phrase	1	13	match	plus	5	0	y	0.87022
667.2147	0.0	+	69	verb	phrase	1	14	match	plus	5	0	y	0.87022
667.1351999999999	0.0	[response]	69	verb	phrase	1	15	match	plus	5	0	y	0.87022
676.6605	0.0	+	70	verb	phrase	1	1	nomatch	nager	-1	1	y	0.61353
677.1933	0.2	rnkc	70	verb	phrase	1	2	nomatch	nager	-1	1	y	0.61353
677.393	0.0	+	70	verb	phrase	1	3	nomatch	nager	-1	1	y	0.61353
677.7926	0.2	qlzg	70	verb	phrase	1	4	nomatch	nager	-1	1	y	0.61353
677.9929999999999	0.0	+	70	verb	phrase	1	5	nomatch	nager	-1	1	y	0.61353
678.3923	0.2	xnhd	70	verb	phrase	1	6	nomatch	nager	-1	1	y	0.61353
678.5921999999999	0.0	+	70	verb	phrase	1	7	nomatch	nager	-1	1	y	0.61353
678.9920999999999	0.2	khb	70	verb	phrase	1	8	nomatch	nager	-1	1	y	0.61353
679.192	0.0	+	70	verb	phrase	1	9	nomatch	nager	-1	1	y	0.61353
679.5918	0.2	jongler	70	verb	phrase	1	10	nomatch	nager	-1	1	y	0.61353
679.7917	0.0	+	70	verb	phrase	1	11	nomatch	nager	-1	1	y	0.61353
680.1919	0.0	+	70	verb	phrase	1	12	nomatch	nager	-1	1	y	0.61353
682.1906	0.0	NAGER	70	verb	phrase	1	13	nomatch	nager	-1	1	y	0.61353
682.857	0.0	+	70	verb	phrase	1	14	nomatch	nager	-1	1	y	0.61353
682.8042	0.0	[response]	70	verb	phrase	1	15	nomatch	nager	-1	1	y	0.61353
684.5894999999999	0.0	+	71	verb	list	1	1	match	blanc	5	1	p	1.5663
685.1392999999999	0.2	vntm	71	verb	list	1	2	match	blanc	5	1	p	1.5663
685.3392	0.0	+	71	verb	list	1	3	match	blanc	5	1	p	1.5663
685.739	0.2	bnmr	71	verb	list	1	4	match	blanc	5	1	p	1.5663
685.9390999999999	0.0	+	71	verb	list	1	5	match	blanc	5	1	p	1.5663
686.3394	0.2	vfcg	71	verb	list	1	6	match	blanc	5	1	p	1.5663
686.5391999999999	0.0	+	71	verb	list	1	7	match	blanc	5	1	p	1.5663
686.9388	0.2	xlphzs	71	verb	list	1	8	match	blanc	5	1	p	1.5663
687.139	0.0	+	71	verb	list	1	9	match	blanc	5	1	p	1.5663
687.5382	0.2	blanc	71	verb	list	1	10	match	blanc	5	1	p	1.5663
687.7381	0.0	+	71	verb	list	1	11	match	blanc	5	1	p	1.5663
688.1383	0.0	+	71	verb	list	1	12	match	blanc	5	1	p	1.5663
690.1371	0.0	BLANC	71	verb	list	1	13	match	blanc	5	1	p	1.5663
691.7697	0.0	+	71	verb	list	1	14	match	blanc	5	1	p	1.5663
691.7033	0.0	[response]	71	verb	list	1	15	match	blanc	5	1	p	1.5663
692.536	0.0	+	72	verb	phrase	1	1	match	danser	5	1	p	0.72441
693.0857	0.2	pnlftxw	72	verb	phrase	1	2	match	danser	5	1	p	0.72441
693.2855999999999	0.0	+	72	verb	phrase	1	3	match	danser	5	1	p	0.72441
693.6854999999999	0.2	sqxk	72	verb	phrase	1	4	match	danser	5	1	p	0.72441
693.8854	0.0	+	72	verb	phrase	1	5	match	danser	5	1	p	0.72441
694.2852	0.2	xnhd	72	verb	phrase	1	6	match	danser	5	1	p	0.72441
694.4851	0.0	+	72	verb	phrase	1	7	match	danser	5	1	p	0.72441
694.8849	0.2	dlgn	72	verb	phrase	1	8	match	danser	5	1	p	0.72441
695.0848	0.0	+	72	verb	phrase	1	9	match	danser	5	1	p	0.72441
695.4846	0.2	danser	72	verb	phrase	1	10	match	danser	5	1	p	0.72441
695.6851	0.0	+	72	verb	phrase	1	11	match	danser	5	1	p	0.72441
696.1015	0.0	+	72	verb	phrase	1	12	match	danser	5	1	p	0.72441
698.1001	0.0	DANSER	72	verb	phrase	1	13	match	danser	5	1	p	0.72441
698.8831	0.0	+	72	verb	phrase	1	14	match	danser	5	1	p	0.72441
698.8245	0.0	[response]	72	verb	phrase	1	15	match	danser	5	1	p	0.72441
700.4991	0.0	+	73	verb	list	2	1	match	jongler	5	1	p	0.5424800000000001
701.0488	0.2	pzch	73	verb	list	2	2	match	jongler	5	1	p	0.5424800000000001
701.2494	0.0	+	73	verb	list	2	3	match	jongler	5	1	p	0.5424800000000001
701.6489	0.2	dxvn	73	verb	list	2	4	match	jongler	5	1	p	0.5424800000000001
701.8489	0.0	+	73	verb	list	2	5	match	jongler	5	1	p	0.5424800000000001
702.2483	0.2	pv	73	verb	list	2	6	match	jongler	5	1	p	0.5424800000000001
702.4481999999999	0.0	+	73	verb	list	2	7	match	jongler	5	1	p	0.5424800000000001
702.848	0.2	petit	73	verb	list	2	8	match	jongler	5	1	p	0.5424800000000001
703.0479	0.0	+	73	verb	list	2	9	match	jongler	5	1	p	0.5424800000000001
703.4476999999999	0.2	jongler	73	verb	list	2	10	match	jongler	5	1	p	0.5424800000000001
703.6476	0.0	+	73	verb	list	2	11	match	jongler	5	1	p	0.5424800000000001
704.0475	0.0	+	73	verb	list	2	12	match	jongler	5	1	p	0.5424800000000001
706.0466	0.0	JONGLER	73	verb	list	2	13	match	jongler	5	1	p	0.5424800000000001
706.6463	0.0	+	73	verb	list	2	14	match	jongler	5	1	p	0.5424800000000001
706.5889999999999	0.0	[response]	73	verb	list	2	15	match	jongler	5	1	p	0.5424800000000001
708.4455	0.0	+	74	verb	phrase	2	1	nomatch	marc	-1	1	y	0.72999
708.9952	0.2	txh	74	verb	phrase	2	2	nomatch	marc	-1	1	y	0.72999
709.1951	0.0	+	74	verb	phrase	2	3	nomatch	marc	-1	1	y	0.72999
709.595	0.2	tjxp	74	verb	phrase	2	4	nomatch	marc	-1	1	y	0.72999
709.7949	0.0	+	74	verb	phrase	2	5	nomatch	marc	-1	1	y	0.72999
710.1947	0.2	xnhd	74	verb	phrase	2	6	nomatch	marc	-1	1	y	0.72999
710.3947	0.0	+	74	verb	phrase	2	7	nomatch	marc	-1	1	y	0.72999
710.795	0.2	trop	74	verb	phrase	2	8	nomatch	marc	-1	1	y	0.72999
710.995	0.0	+	74	verb	phrase	2	9	nomatch	marc	-1	1	y	0.72999
711.3942	0.2	patiner	74	verb	phrase	2	10	nomatch	marc	-1	1	y	0.72999
711.5941	0.0	+	74	verb	phrase	2	11	nomatch	marc	-1	1	y	0.72999
711.9938999999999	0.0	+	74	verb	phrase	2	12	nomatch	marc	-1	1	y	0.72999
713.9929999999999	0.0	MARC	74	verb	phrase	2	13	nomatch	marc	-1	1	y	0.72999
714.776	0.0	+	74	verb	phrase	2	14	nomatch	marc	-1	1	y	0.72999
714.723	0.0	[response]	74	verb	phrase	2	15	nomatch	marc	-1	1	y	0.72999
716.3919	0.0	+	75	verb	list	1	1	match	nouveau	5	1	p	1.2054
716.9417	0.2	jbz	75	verb	list	1	2	match	nouveau	5	1	p	1.2054
717.1415999999999	0.0	+	75	verb	list	1	3	match	nouveau	5	1	p	1.2054
717.542	0.2	lbvx	75	verb	list	1	4	match	nouveau	5	1	p	1.2054
717.7416	0.0	+	75	verb	list	1	5	match	nouveau	5	1	p	1.2054
718.1410999999999	0.2	qcpb	75	verb	list	1	6	match	nouveau	5	1	p	1.2054
718.341	0.0	+	75	verb	list	1	7	match	nouveau	5	1	p	1.2054
718.7409	0.2	rgfchbj	75	verb	list	1	8	match	nouveau	5	1	p	1.2054
718.9408	0.0	+	75	verb	list	1	9	match	nouveau	5	1	p	1.2054
719.3406	0.2	nouveau	75	verb	list	1	10	match	nouveau	5	1	p	1.2054
719.5405	0.0	+	75	verb	list	1	11	match	nouveau	5	1	p	1.2054
719.9403	0.0	+	75	verb	list	1	12	match	nouveau	5	1	p	1.2054
721.9394	0.0	NOUVEAU	75	verb	list	1	13	match	nouveau	5	1	p	1.2054
723.2055	0.0	+	75	verb	list	1	14	match	nouveau	5	1	p	1.2054
723.1448	0.0	[response]	75	verb	list	1	15	match	nouveau	5	1	p	1.2054
724.3383	0.0	+	76	noun	list	1	1	match	sablier	5	1	p	0.7587100000000001
724.8881	0.2	wmkf	76	noun	list	1	2	match	sablier	5	1	p	0.7587100000000001
725.088	0.0	+	76	noun	list	1	3	match	sablier	5	1	p	0.7587100000000001
725.4878	0.2	tjxp	76	noun	list	1	4	match	sablier	5	1	p	0.7587100000000001
725.6877	0.0	+	76	noun	list	1	5	match	sablier	5	1	p	0.7587100000000001
726.0876999999999	0.2	tqd	76	noun	list	1	6	match	sablier	5	1	p	0.7587100000000001
726.2879	0.0	+	76	noun	list	1	7	match	sablier	5	1	p	0.7587100000000001
726.7040999999999	0.2	tvhgl	76	noun	list	1	8	match	sablier	5	1	p	0.7587100000000001
726.9046	0.0	+	76	noun	list	1	9	match	sablier	5	1	p	0.7587100000000001
727.287	0.2	sablier	76	noun	list	1	10	match	sablier	5	1	p	0.7587100000000001
727.4869	0.0	+	76	noun	list	1	11	match	sablier	5	1	p	0.7587100000000001
727.8867	0.0	+	76	noun	list	1	12	match	sablier	5	1	p	0.7587100000000001
729.8858	0.0	SABLIER	76	noun	list	1	13	match	sablier	5	1	p	0.7587100000000001
730.7021	0.0	+	76	noun	list	1	14	match	sablier	5	1	p	0.7587100000000001
730.6445	0.0	[response]	76	noun	list	1	15	match	sablier	5	1	p	0.7587100000000001
732.2846999999999	0.0	+	77	verb	list	4	1	nomatch	loin	-1	1	y	1.2483
732.8344999999999	0.2	mxtw	77	verb	list	4	2	nomatch	loin	-1	1	y	1.2483
733.0344	0.0	+	77	verb	list	4	3	nomatch	loin	-1	1	y	1.2483
733.4342	0.2	sur	77	verb	list	4	4	nomatch	loin	-1	1	y	1.2483
733.6347999999999	0.0	+	77	verb	list	4	5	nomatch	loin	-1	1	y	1.2483
734.0341999999999	0.2	doit	77	verb	list	4	6	nomatch	loin	-1	1	y	1.2483
734.234	0.0	+	77	verb	list	4	7	nomatch	loin	-1	1	y	1.2483
734.6342999999999	0.2	grand	77	verb	list	4	8	nomatch	loin	-1	1	y	1.2483
734.8337	0.0	+	77	verb	list	4	9	nomatch	loin	-1	1	y	1.2483
735.2501	0.2	patiner	77	verb	list	4	10	nomatch	loin	-1	1	y	1.2483
735.4499999999999	0.0	+	77	verb	list	4	11	nomatch	loin	-1	1	y	1.2483
735.8498	0.0	+	77	verb	list	4	12	nomatch	loin	-1	1	y	1.2483
737.8489	0.0	LOIN	77	verb	list	4	13	nomatch	loin	-1	1	y	1.2483
739.215	0.0	+	77	verb	list	4	14	nomatch	loin	-1	1	y	1.2483
739.0971999999999	0.0	[response]	77	verb	list	4	15	nomatch	loin	-1	1	y	1.2483
740.2478	0.0	+	78	verb	list	4	1	match	danser	5	1	p	1.0678000000000003
740.7976	0.2	kdbmr	78	verb	list	4	2	match	danser	5	1	p	1.0678000000000003
740.9975	0.0	+	78	verb	list	4	3	match	danser	5	1	p	1.0678000000000003
741.3973	0.2	sous	78	verb	list	4	4	match	danser	5	1	p	1.0678000000000003
741.5971999999999	0.0	+	78	verb	list	4	5	match	danser	5	1	p	1.0678000000000003
741.997	0.2	va	78	verb	list	4	6	match	danser	5	1	p	1.0678000000000003
742.197	0.0	+	78	verb	list	4	7	match	danser	5	1	p	1.0678000000000003
742.5968	0.2	nouveau	78	verb	list	4	8	match	danser	5	1	p	1.0678000000000003
742.7968	0.0	+	78	verb	list	4	9	match	danser	5	1	p	1.0678000000000003
743.1966	0.2	danser	78	verb	list	4	10	match	danser	5	1	p	1.0678000000000003
743.3971	0.0	+	78	verb	list	4	11	match	danser	5	1	p	1.0678000000000003
743.7966	0.0	+	78	verb	list	4	12	match	danser	5	1	p	1.0678000000000003
745.7959	0.0	DANSER	78	verb	list	4	13	match	danser	5	1	p	1.0678000000000003
746.9282	0.0	+	78	verb	list	4	14	match	danser	5	1	p	1.0678000000000003
746.8637	0.0	[response]	78	verb	list	4	15	match	danser	5	1	p	1.0678000000000003
748.1943	0.0	+	79	verb	phrase	3	1	nomatch	parader	-1	1	y	0.78312
748.744	0.2	npw	79	verb	phrase	3	2	nomatch	parader	-1	1	y	0.78312
748.9439	0.0	+	79	verb	phrase	3	3	nomatch	parader	-1	1	y	0.78312
749.3438	0.2	sqxk	79	verb	phrase	3	4	nomatch	parader	-1	1	y	0.78312
749.5437	0.0	+	79	verb	phrase	3	5	nomatch	parader	-1	1	y	0.78312
749.9439	0.2	doit	79	verb	phrase	3	6	nomatch	parader	-1	1	y	0.78312
750.1436	0.0	+	79	verb	phrase	3	7	nomatch	parader	-1	1	y	0.78312
750.5432999999999	0.2	plonger	79	verb	phrase	3	8	nomatch	parader	-1	1	y	0.78312
750.7434	0.0	+	79	verb	phrase	3	9	nomatch	parader	-1	1	y	0.78312
751.1433	0.2	tôt	79	verb	phrase	3	10	nomatch	parader	-1	1	y	0.78312
751.3429	0.0	+	79	verb	phrase	3	11	nomatch	parader	-1	1	y	0.78312
751.7427	0.0	+	79	verb	phrase	3	12	nomatch	parader	-1	1	y	0.78312
753.7418	0.0	PARADER	79	verb	phrase	3	13	nomatch	parader	-1	1	y	0.78312
754.5914	0.0	+	79	verb	phrase	3	14	nomatch	parader	-1	1	y	0.78312
754.5249	0.0	[response]	79	verb	phrase	3	15	nomatch	parader	-1	1	y	0.78312
756.1407	0.0	+	80	verb	list	4	1	match	vert	5	0	y	0.89245
756.6904	0.2	jrv	80	verb	list	4	2	match	vert	5	0	y	0.89245
756.8904	0.0	+	80	verb	list	4	3	match	vert	5	0	y	0.89245
757.2902	0.2	jean	80	verb	list	4	4	match	vert	5	0	y	0.89245
757.4904	0.0	+	80	verb	list	4	5	match	vert	5	0	y	0.89245
757.8899	0.2	mon	80	verb	list	4	6	match	vert	5	0	y	0.89245
758.0898	0.0	+	80	verb	list	4	7	match	vert	5	0	y	0.89245
758.4902	0.2	nager	80	verb	list	4	8	match	vert	5	0	y	0.89245
758.6902	0.0	+	80	verb	list	4	9	match	vert	5	0	y	0.89245
759.0894	0.2	vert	80	verb	list	4	10	match	vert	5	0	y	0.89245
759.2893	0.0	+	80	verb	list	4	11	match	vert	5	0	y	0.89245
759.6890999999999	0.0	+	80	verb	list	4	12	match	vert	5	0	y	0.89245
761.6883	0.0	VERT	80	verb	list	4	13	match	vert	5	0	y	0.89245
762.6378	0.0	+	80	verb	list	4	14	match	vert	5	0	y	0.89245
764.0871	0.0	+	80	verb	list	4	15	match	vert	5	0	y	0.89245
765.0033999999999	0.0	+	80	verb	list	4	16	match	vert	5	0	y	0.89245
765.1033	0.0	+	80	verb	list	4	17	match	vert	5	0	y	0.89245
766.5027	0.0	+	80	verb	list	4	18	match	vert	5	0	y	0.89245
766.6025999999999	0.0	+	80	verb	list	4	19	match	vert	5	0	y	0.89245
768.002	0.0	+	80	verb	list	4	20	match	vert	5	0	y	0.89245
768.102	0.0	+	80	verb	list	4	21	match	vert	5	0	y	0.89245
769.5013	0.0	+	80	verb	list	4	22	match	vert	5	0	y	0.89245
769.6013	0.0	+	80	verb	list	4	23	match	vert	5	0	y	0.89245
771.0006999999999	0.0	+	80	verb	list	4	24	match	vert	5	0	y	0.89245
771.1006	0.0	+	80	verb	list	4	25	match	vert	5	0	y	0.89245
772.5	0.0	+	80	verb	list	4	26	match	vert	5	0	y	0.89245
772.6	0.0	+	80	verb	list	4	27	match	vert	5	0	y	0.89245
773.9993	0.0	+	80	verb	list	4	28	match	vert	5	0	y	0.89245
774.0993	0.0	+	80	verb	list	4	29	match	vert	5	0	y	0.89245
775.5153	0.0	+	80	verb	list	4	30	match	vert	5	0	y	0.89245
775.6152999999999	0.0	+	80	verb	list	4	31	match	vert	5	0	y	0.89245
776.9979999999999	0.0	+	80	verb	list	4	32	match	vert	5	0	y	0.89245
777.0979	0.0	+	80	verb	list	4	33	match	vert	5	0	y	0.89245
778.5139	0.0	+	80	verb	list	4	34	match	vert	5	0	y	0.89245
778.6139	0.0	+	80	verb	list	4	35	match	vert	5	0	y	0.89245
782.4621999999999	0.0	+	80	verb	list	4	36	match	vert	5	0	y	0.89245
762.5808000000001	0.0	[response]	80	verb	list	4	37	match	vert	5	0	y	0.89245
