onset	duration	stim	trial_number	trial_type	trial_structure	trial_length	sequential_position	probe_type	probe	probe_position	response_correct	response_key	response_time
0.0549000000000035	0.0	+	1	noun	list	1	1	match	grenier	5	1	p	0.78633
0.5381	0.2	xwnz	1	noun	list	1	2	match	grenier	5	1	p	0.78633
0.7380000000000138	0.0	+	1	noun	list	1	3	match	grenier	5	1	p	0.78633
1.1378000000000128	0.2	fwdp	1	noun	list	1	4	match	grenier	5	1	p	0.78633
1.3377000000000123	0.0	+	1	noun	list	1	5	match	grenier	5	1	p	0.78633
1.7375000000000114	0.2	pv	1	noun	list	1	6	match	grenier	5	1	p	0.78633
1.937400000000011	0.0	+	1	noun	list	1	7	match	grenier	5	1	p	0.78633
2.33720000000001	0.2	vwdx	1	noun	list	1	8	match	grenier	5	1	p	0.78633
2.537200000000013	0.0	+	1	noun	list	1	9	match	grenier	5	1	p	0.78633
2.937000000000012	0.2	grenier	1	noun	list	1	10	match	grenier	5	1	p	0.78633
3.1369000000000113	0.0	+	1	noun	list	1	11	match	grenier	5	1	p	0.78633
3.536900000000003	0.0	+	1	noun	list	1	12	match	grenier	5	1	p	0.78633
5.535800000000009	0.0	GRENIER	1	noun	list	1	13	match	grenier	5	1	p	0.78633
6.385400000000004	0.0	+	1	noun	list	1	14	match	grenier	5	1	p	0.78633
6.32210000000002	0.0	[response]	1	noun	list	1	15	match	grenier	5	1	p	0.78633
7.9347000000000065	0.0	+	2	verb	phrase	2	1	match	nager	5	1	p	0.84774
8.484500000000011	0.2	jwsrmzh	2	verb	phrase	2	2	match	nager	5	1	p	0.84774
8.68440000000001	0.0	+	2	verb	phrase	2	3	match	nager	5	1	p	0.84774
9.08420000000001	0.2	qlzg	2	verb	phrase	2	4	match	nager	5	1	p	0.84774
9.28410000000001	0.0	+	2	verb	phrase	2	5	match	nager	5	1	p	0.84774
9.683900000000008	0.2	xnhd	2	verb	phrase	2	6	match	nager	5	1	p	0.84774
9.884500000000003	0.0	+	2	verb	phrase	2	7	match	nager	5	1	p	0.84774
10.283800000000014	0.2	mieux	2	verb	phrase	2	8	match	nager	5	1	p	0.84774
10.483700000000013	0.0	+	2	verb	phrase	2	9	match	nager	5	1	p	0.84774
10.900100000000009	0.2	nager	2	verb	phrase	2	10	match	nager	5	1	p	0.84774
11.100300000000004	0.0	+	2	verb	phrase	2	11	match	nager	5	1	p	0.84774
11.499800000000008	0.0	+	2	verb	phrase	2	12	match	nager	5	1	p	0.84774
13.498900000000006	0.0	NAGER	2	verb	phrase	2	13	match	nager	5	1	p	0.84774
14.415700000000001	0.0	+	2	verb	phrase	2	14	match	nager	5	1	p	0.84774
14.34660000000001	0.0	[response]	2	verb	phrase	2	15	match	nager	5	1	p	0.84774
23.927900000000008	0.0	+	3	noun	phrase	2	1	nomatch	sur	-1	1	y	1.1864
24.460800000000006	0.2	xsm	3	noun	phrase	2	2	nomatch	sur	-1	1	y	1.1864
24.643900000000002	0.0	+	3	noun	phrase	2	3	nomatch	sur	-1	1	y	1.1864
25.0437	0.2	zbvr	3	noun	phrase	2	4	nomatch	sur	-1	1	y	1.1864
25.2436	0.0	+	3	noun	phrase	2	5	nomatch	sur	-1	1	y	1.1864
25.643400000000014	0.2	rfc	3	noun	phrase	2	6	nomatch	sur	-1	1	y	1.1864
25.843300000000013	0.0	+	3	noun	phrase	2	7	nomatch	sur	-1	1	y	1.1864
26.243100000000013	0.2	panier	3	noun	phrase	2	8	nomatch	sur	-1	1	y	1.1864
26.4431	0.0	+	3	noun	phrase	2	9	nomatch	sur	-1	1	y	1.1864
26.8429	0.2	bleu	3	noun	phrase	2	10	nomatch	sur	-1	1	y	1.1864
27.042800000000014	0.0	+	3	noun	phrase	2	11	nomatch	sur	-1	1	y	1.1864
27.442600000000013	0.0	+	3	noun	phrase	2	12	nomatch	sur	-1	1	y	1.1864
29.44170000000001	0.0	SUR	3	noun	phrase	2	13	nomatch	sur	-1	1	y	1.1864
30.69120000000001	0.0	+	3	noun	phrase	2	14	nomatch	sur	-1	1	y	1.1864
30.628100000000003	0.0	[response]	3	noun	phrase	2	15	nomatch	sur	-1	1	y	1.1864
31.840700000000012	0.0	+	4	noun	list	1	1	nomatch	leur	-1	1	y	0.91016
32.390400000000014	0.2	hmngq	4	noun	list	1	2	nomatch	leur	-1	1	y	0.91016
32.59030000000001	0.0	+	4	noun	list	1	3	nomatch	leur	-1	1	y	0.91016
32.99010000000001	0.2	dxvn	4	noun	list	1	4	nomatch	leur	-1	1	y	0.91016
33.19000000000001	0.0	+	4	noun	list	1	5	nomatch	leur	-1	1	y	0.91016
33.5899	0.2	qcpb	4	noun	list	1	6	nomatch	leur	-1	1	y	0.91016
33.789800000000014	0.0	+	4	noun	list	1	7	nomatch	leur	-1	1	y	0.91016
34.18960000000001	0.2	cglqzs	4	noun	list	1	8	nomatch	leur	-1	1	y	0.91016
34.39	0.0	+	4	noun	list	1	9	nomatch	leur	-1	1	y	0.91016
34.8066	0.2	ainsi	4	noun	list	1	10	nomatch	leur	-1	1	y	0.91016
34.9894	0.0	+	4	noun	list	1	11	nomatch	leur	-1	1	y	0.91016
35.38940000000001	0.0	+	4	noun	list	1	12	nomatch	leur	-1	1	y	0.91016
37.38810000000001	0.0	LEUR	4	noun	list	1	13	nomatch	leur	-1	1	y	0.91016
38.388400000000004	0.0	+	4	noun	list	1	14	nomatch	leur	-1	1	y	0.91016
38.29830000000001	0.0	[response]	4	noun	list	1	15	nomatch	leur	-1	1	y	0.91016
39.78710000000001	0.0	+	5	noun	list	4	1	nomatch	voyager	-1	1	y	1.5931
40.33680000000001	0.2	bprwc	5	noun	list	4	2	nomatch	voyager	-1	1	y	1.5931
40.53670000000001	0.0	+	5	noun	list	4	3	nomatch	voyager	-1	1	y	1.5931
40.93650000000001	0.2	luc	5	noun	list	4	4	nomatch	voyager	-1	1	y	1.5931
41.13640000000001	0.0	+	5	noun	list	4	5	nomatch	voyager	-1	1	y	1.5931
41.53630000000001	0.2	son	5	noun	list	4	6	nomatch	voyager	-1	1	y	1.5931
41.73620000000001	0.0	+	5	noun	list	4	7	nomatch	voyager	-1	1	y	1.5931
42.13600000000001	0.2	mieux	5	noun	list	4	8	nomatch	voyager	-1	1	y	1.5931
42.336600000000004	0.0	+	5	noun	list	4	9	nomatch	voyager	-1	1	y	1.5931
42.7359	0.2	rocher	5	noun	list	4	10	nomatch	voyager	-1	1	y	1.5931
42.93610000000001	0.0	+	5	noun	list	4	11	nomatch	voyager	-1	1	y	1.5931
43.3361	0.0	+	5	noun	list	4	12	nomatch	voyager	-1	1	y	1.5931
45.33510000000001	0.0	VOYAGER	5	noun	list	4	13	nomatch	voyager	-1	1	y	1.5931
46.9838	0.0	+	5	noun	list	4	14	nomatch	voyager	-1	1	y	1.5931
46.928200000000004	0.0	[response]	5	noun	list	4	15	nomatch	voyager	-1	1	y	1.5931
47.73350000000001	0.0	+	6	noun	list	1	1	nomatch	parader	-1	1	y	0.8662
48.29990000000001	0.2	jdtn	6	noun	list	1	2	nomatch	parader	-1	1	y	0.8662
48.49980000000001	0.0	+	6	noun	list	1	3	nomatch	parader	-1	1	y	0.8662
48.89960000000001	0.2	cqgv	6	noun	list	1	4	nomatch	parader	-1	1	y	0.8662
49.099500000000006	0.0	+	6	noun	list	1	5	nomatch	parader	-1	1	y	0.8662
49.49940000000001	0.2	pv	6	noun	list	1	6	nomatch	parader	-1	1	y	0.8662
49.69930000000001	0.0	+	6	noun	list	1	7	nomatch	parader	-1	1	y	0.8662
50.09910000000001	0.2	hsmdfnc	6	noun	list	1	8	nomatch	parader	-1	1	y	0.8662
50.29900000000001	0.0	+	6	noun	list	1	9	nomatch	parader	-1	1	y	0.8662
50.7162	0.2	loin	6	noun	list	1	10	nomatch	parader	-1	1	y	0.8662
50.89920000000001	0.0	+	6	noun	list	1	11	nomatch	parader	-1	1	y	0.8662
51.298500000000004	0.0	+	6	noun	list	1	12	nomatch	parader	-1	1	y	0.8662
53.2976	0.0	PARADER	6	noun	list	1	13	nomatch	parader	-1	1	y	0.8662
54.2479	0.0	+	6	noun	list	1	14	nomatch	parader	-1	1	y	0.8662
54.16380000000001	0.0	[response]	6	noun	list	1	15	nomatch	parader	-1	1	y	0.8662
55.696600000000004	0.0	+	7	noun	phrase	1	1	match	vert	5	1	p	0.80305
56.246300000000005	0.2	xkzmdt	7	noun	phrase	1	2	match	vert	5	1	p	0.80305
56.446200000000005	0.0	+	7	noun	phrase	1	3	match	vert	5	1	p	0.80305
56.846000000000004	0.2	lbvx	7	noun	phrase	1	4	match	vert	5	1	p	0.80305
57.04600000000001	0.0	+	7	noun	phrase	1	5	match	vert	5	1	p	0.80305
57.445800000000006	0.2	rfc	7	noun	phrase	1	6	match	vert	5	1	p	0.80305
57.645700000000005	0.0	+	7	noun	phrase	1	7	match	vert	5	1	p	0.80305
58.045500000000004	0.2	vfwspz	7	noun	phrase	1	8	match	vert	5	1	p	0.80305
58.245400000000004	0.0	+	7	noun	phrase	1	9	match	vert	5	1	p	0.80305
58.64550000000001	0.2	vert	7	noun	phrase	1	10	match	vert	5	1	p	0.80305
58.845200000000006	0.0	+	7	noun	phrase	1	11	match	vert	5	1	p	0.80305
59.24560000000001	0.0	+	7	noun	phrase	1	12	match	vert	5	1	p	0.80305
61.2441	0.0	VERT	7	noun	phrase	1	13	match	vert	5	1	p	0.80305
62.11040000000001	0.0	+	7	noun	phrase	1	14	match	vert	5	1	p	0.80305
62.0471	0.0	[response]	7	noun	phrase	1	15	match	vert	5	1	p	0.80305
63.643	0.0	+	8	noun	list	2	1	match	ainsi	5	1	p	0.7095200000000002
64.1927	0.2	sdkc	8	noun	list	2	2	match	ainsi	5	1	p	0.7095200000000002
64.39260000000002	0.0	+	8	noun	list	2	3	match	ainsi	5	1	p	0.7095200000000002
64.793	0.2	zbvr	8	noun	list	2	4	match	ainsi	5	1	p	0.7095200000000002
64.99290000000002	0.0	+	8	noun	list	2	5	match	ainsi	5	1	p	0.7095200000000002
65.3922	0.2	xnhd	8	noun	list	2	6	match	ainsi	5	1	p	0.7095200000000002
65.59210000000002	0.0	+	8	noun	list	2	7	match	ainsi	5	1	p	0.7095200000000002
65.99190000000002	0.2	casier	8	noun	list	2	8	match	ainsi	5	1	p	0.7095200000000002
66.1919	0.0	+	8	noun	list	2	9	match	ainsi	5	1	p	0.7095200000000002
66.5917	0.2	ainsi	8	noun	list	2	10	match	ainsi	5	1	p	0.7095200000000002
66.79160000000002	0.0	+	8	noun	list	2	11	match	ainsi	5	1	p	0.7095200000000002
67.19140000000002	0.0	+	8	noun	list	2	12	match	ainsi	5	1	p	0.7095200000000002
69.19050000000001	0.0	AINSI	8	noun	list	2	13	match	ainsi	5	1	p	0.7095200000000002
69.95680000000002	0.0	+	8	noun	list	2	14	match	ainsi	5	1	p	0.7095200000000002
69.9	0.0	[response]	8	noun	list	2	15	match	ainsi	5	1	p	0.7095200000000002
71.58940000000001	0.0	+	9	noun	phrase	3	1	match	vieux	4	0	y	0.7936300000000001
72.13920000000002	0.2	sdlnqcx	9	noun	phrase	3	2	match	vieux	4	0	y	0.7936300000000001
72.3391	0.0	+	9	noun	phrase	3	3	match	vieux	4	0	y	0.7936300000000001
72.7389	0.2	wpc	9	noun	phrase	3	4	match	vieux	4	0	y	0.7936300000000001
72.93880000000001	0.0	+	9	noun	phrase	3	5	match	vieux	4	0	y	0.7936300000000001
73.33860000000001	0.2	leur	9	noun	phrase	3	6	match	vieux	4	0	y	0.7936300000000001
73.5385	0.0	+	9	noun	phrase	3	7	match	vieux	4	0	y	0.7936300000000001
73.9385	0.2	vieux	9	noun	phrase	3	8	match	vieux	4	0	y	0.7936300000000001
74.13830000000002	0.0	+	9	noun	phrase	3	9	match	vieux	4	0	y	0.7936300000000001
74.53810000000001	0.2	tablier	9	noun	phrase	3	10	match	vieux	4	0	y	0.7936300000000001
74.738	0.0	+	9	noun	phrase	3	11	match	vieux	4	0	y	0.7936300000000001
75.1378	0.0	+	9	noun	phrase	3	12	match	vieux	4	0	y	0.7936300000000001
77.13760000000002	0.0	VIEUX	9	noun	phrase	3	13	match	vieux	4	0	y	0.7936300000000001
77.9865	0.0	+	9	noun	phrase	3	14	match	vieux	4	0	y	0.7936300000000001
77.93120000000002	0.0	[response]	9	noun	phrase	3	15	match	vieux	4	0	y	0.7936300000000001
79.5359	0.0	+	10	noun	list	1	1	nomatch	boîtier	-1	1	y	1.5413
80.0856	0.2	mpld	10	noun	list	1	2	nomatch	boîtier	-1	1	y	1.5413
80.28550000000001	0.0	+	10	noun	list	1	3	nomatch	boîtier	-1	1	y	1.5413
80.68530000000001	0.2	zrb	10	noun	list	1	4	nomatch	boîtier	-1	1	y	1.5413
80.9025	0.0	+	10	noun	list	1	5	nomatch	boîtier	-1	1	y	1.5413
81.28550000000001	0.2	tqd	10	noun	list	1	6	nomatch	boîtier	-1	1	y	1.5413
81.48500000000001	0.0	+	10	noun	list	1	7	nomatch	boîtier	-1	1	y	1.5413
81.88480000000001	0.2	pjtckmqb	10	noun	list	1	8	nomatch	boîtier	-1	1	y	1.5413
82.0847	0.0	+	10	noun	list	1	9	nomatch	boîtier	-1	1	y	1.5413
82.48490000000001	0.2	rocher	10	noun	list	1	10	nomatch	boîtier	-1	1	y	1.5413
82.6851	0.0	+	10	noun	list	1	11	nomatch	boîtier	-1	1	y	1.5413
83.0847	0.0	+	10	noun	list	1	12	nomatch	boîtier	-1	1	y	1.5413
85.1	0.0	BOÎTIER	10	noun	list	1	13	nomatch	boîtier	-1	1	y	1.5413
86.6993	0.0	+	10	noun	list	1	14	nomatch	boîtier	-1	1	y	1.5413
86.6413	0.0	[response]	10	noun	list	1	15	nomatch	boîtier	-1	1	y	1.5413
87.49890000000002	0.0	+	11	verb	list	1	1	match	grand	5	1	p	0.63703
88.0487	0.2	pdwfn	11	verb	list	1	2	match	grand	5	1	p	0.63703
88.24860000000001	0.0	+	11	verb	list	1	3	match	grand	5	1	p	0.63703
88.64840000000001	0.2	crtd	11	verb	list	1	4	match	grand	5	1	p	0.63703
88.8483	0.0	+	11	verb	list	1	5	match	grand	5	1	p	0.63703
89.2481	0.2	pv	11	verb	list	1	6	match	grand	5	1	p	0.63703
89.44800000000001	0.0	+	11	verb	list	1	7	match	grand	5	1	p	0.63703
89.84790000000001	0.2	xlphzs	11	verb	list	1	8	match	grand	5	1	p	0.63703
90.0478	0.0	+	11	verb	list	1	9	match	grand	5	1	p	0.63703
90.4476	0.2	grand	11	verb	list	1	10	match	grand	5	1	p	0.63703
90.648	0.0	+	11	verb	list	1	11	match	grand	5	1	p	0.63703
91.0479	0.0	+	11	verb	list	1	12	match	grand	5	1	p	0.63703
93.0464	0.0	GRAND	11	verb	list	1	13	match	grand	5	1	p	0.63703
93.74690000000001	0.0	+	11	verb	list	1	14	match	grand	5	1	p	0.63703
93.68350000000001	0.0	[response]	11	verb	list	1	15	match	grand	5	1	p	0.63703
95.4454	0.0	+	12	noun	list	1	1	match	tablier	5	1	p	0.56928
95.99510000000001	0.2	qjgskhm	12	noun	list	1	2	match	tablier	5	1	p	0.56928
96.195	0.0	+	12	noun	list	1	3	match	tablier	5	1	p	0.56928
96.59480000000002	0.2	tjxp	12	noun	list	1	4	match	tablier	5	1	p	0.56928
96.79480000000001	0.0	+	12	noun	list	1	5	match	tablier	5	1	p	0.56928
97.195	0.2	rfc	12	noun	list	1	6	match	tablier	5	1	p	0.56928
97.39440000000002	0.0	+	12	noun	list	1	7	match	tablier	5	1	p	0.56928
97.7944	0.2	bvmxj	12	noun	list	1	8	match	tablier	5	1	p	0.56928
98.01150000000001	0.0	+	12	noun	list	1	9	match	tablier	5	1	p	0.56928
98.394	0.2	tablier	12	noun	list	1	10	match	tablier	5	1	p	0.56928
98.59390000000002	0.0	+	12	noun	list	1	11	match	tablier	5	1	p	0.56928
98.99450000000002	0.0	+	12	noun	list	1	12	match	tablier	5	1	p	0.56928
100.99290000000002	0.0	TABLIER	12	noun	list	1	13	match	tablier	5	1	p	0.56928
101.6599	0.0	+	12	noun	list	1	14	match	tablier	5	1	p	0.56928
101.56220000000002	0.0	[response]	12	noun	list	1	15	match	tablier	5	1	p	0.56928
103.39180000000002	0.0	+	13	noun	phrase	4	1	nomatch	petit	-1	1	y	0.82156
103.94150000000002	0.2	gckrz	13	noun	phrase	4	2	nomatch	petit	-1	1	y	0.82156
104.14150000000001	0.0	+	13	noun	phrase	4	3	nomatch	petit	-1	1	y	0.82156
104.54170000000002	0.2	sans	13	noun	phrase	4	4	nomatch	petit	-1	1	y	0.82156
104.74170000000001	0.0	+	13	noun	phrase	4	5	nomatch	petit	-1	1	y	0.82156
105.14150000000001	0.2	mon	13	noun	phrase	4	6	nomatch	petit	-1	1	y	0.82156
105.3417	0.0	+	13	noun	phrase	4	7	nomatch	petit	-1	1	y	0.82156
105.7407	0.2	sablier	13	noun	phrase	4	8	nomatch	petit	-1	1	y	0.82156
105.94060000000002	0.0	+	13	noun	phrase	4	9	nomatch	petit	-1	1	y	0.82156
106.34050000000002	0.2	vert	13	noun	phrase	4	10	nomatch	petit	-1	1	y	0.82156
106.5404	0.0	+	13	noun	phrase	4	11	nomatch	petit	-1	1	y	0.82156
106.9402	0.0	+	13	noun	phrase	4	12	nomatch	petit	-1	1	y	0.82156
108.9393	0.0	PETIT	13	noun	phrase	4	13	nomatch	petit	-1	1	y	0.82156
109.82220000000001	0.0	+	13	noun	phrase	4	14	nomatch	petit	-1	1	y	0.82156
109.76090000000002	0.0	[response]	13	noun	phrase	4	15	nomatch	petit	-1	1	y	0.82156
119.3346	0.0	+	14	noun	list	2	1	nomatch	beaucoup	-1	1	y	0.9926800000000001
119.8844	0.2	hrpmwxq	14	noun	list	2	2	nomatch	beaucoup	-1	1	y	0.9926800000000001
120.08430000000001	0.0	+	14	noun	list	2	3	nomatch	beaucoup	-1	1	y	0.9926800000000001
120.4847	0.2	nxwc	14	noun	list	2	4	nomatch	beaucoup	-1	1	y	0.9926800000000001
120.68440000000001	0.0	+	14	noun	list	2	5	nomatch	beaucoup	-1	1	y	0.9926800000000001
121.1009	0.2	tqd	14	noun	list	2	6	nomatch	beaucoup	-1	1	y	0.9926800000000001
121.30090000000001	0.0	+	14	noun	list	2	7	nomatch	beaucoup	-1	1	y	0.9926800000000001
121.68360000000001	0.2	mieux	14	noun	list	2	8	nomatch	beaucoup	-1	1	y	0.9926800000000001
121.90010000000001	0.0	+	14	noun	list	2	9	nomatch	beaucoup	-1	1	y	0.9926800000000001
122.29990000000001	0.2	casier	14	noun	list	2	10	nomatch	beaucoup	-1	1	y	0.9926800000000001
122.4999	0.0	+	14	noun	list	2	11	nomatch	beaucoup	-1	1	y	0.9926800000000001
122.8997	0.0	+	14	noun	list	2	12	nomatch	beaucoup	-1	1	y	0.9926800000000001
124.8988	0.0	BEAUCOUP	14	noun	list	2	13	nomatch	beaucoup	-1	1	y	0.9926800000000001
125.96520000000001	0.0	+	14	noun	list	2	14	nomatch	beaucoup	-1	1	y	0.9926800000000001
125.89150000000001	0.0	[response]	14	noun	list	2	15	nomatch	beaucoup	-1	1	y	0.9926800000000001
127.29840000000002	0.0	+	15	noun	phrase	4	1	match	mon	3	0	y	0.73861
127.84810000000002	0.2	mpgls	15	noun	phrase	4	2	match	mon	3	0	y	0.73861
128.0642	0.0	+	15	noun	phrase	4	3	match	mon	3	0	y	0.73861
128.4479	0.2	dans	15	noun	phrase	4	4	match	mon	3	0	y	0.73861
128.6471	0.0	+	15	noun	phrase	4	5	match	mon	3	0	y	0.73861
129.0469	0.2	mon	15	noun	phrase	4	6	match	mon	3	0	y	0.73861
129.2468	0.0	+	15	noun	phrase	4	7	match	mon	3	0	y	0.73861
129.6466	0.2	grand	15	noun	phrase	4	8	match	mon	3	0	y	0.73861
129.8466	0.0	+	15	noun	phrase	4	9	match	mon	3	0	y	0.73861
130.2464	0.2	panier	15	noun	phrase	4	10	match	mon	3	0	y	0.73861
130.4463	0.0	+	15	noun	phrase	4	11	match	mon	3	0	y	0.73861
130.8462	0.0	+	15	noun	phrase	4	12	match	mon	3	0	y	0.73861
132.8458	0.0	MON	15	noun	phrase	4	13	match	mon	3	0	y	0.73861
133.6448	0.0	+	15	noun	phrase	4	14	match	mon	3	0	y	0.73861
133.58440000000004	0.0	[response]	15	noun	phrase	4	15	match	mon	3	0	y	0.73861
143.2405	0.0	+	16	noun	list	4	1	nomatch	beaucoup	-1	1	y	0.7864
143.8076	0.2	cvqlxfh	16	noun	list	4	2	nomatch	beaucoup	-1	1	y	0.7864
143.9908	0.0	+	16	noun	list	4	3	nomatch	beaucoup	-1	1	y	0.7864
144.39000000000001	0.2	sans	16	noun	list	4	4	nomatch	beaucoup	-1	1	y	0.7864
144.59050000000002	0.0	+	16	noun	list	4	5	nomatch	beaucoup	-1	1	y	0.7864
144.9897	0.2	peut	16	noun	list	4	6	nomatch	beaucoup	-1	1	y	0.7864
145.1896	0.0	+	16	noun	list	4	7	nomatch	beaucoup	-1	1	y	0.7864
145.58950000000002	0.2	clavier	16	noun	list	4	8	nomatch	beaucoup	-1	1	y	0.7864
145.7894	0.0	+	16	noun	list	4	9	nomatch	beaucoup	-1	1	y	0.7864
146.1892	0.2	tôt	16	noun	list	4	10	nomatch	beaucoup	-1	1	y	0.7864
146.3891	0.0	+	16	noun	list	4	11	nomatch	beaucoup	-1	1	y	0.7864
146.7889	0.0	+	16	noun	list	4	12	nomatch	beaucoup	-1	1	y	0.7864
148.7884	0.0	BEAUCOUP	16	noun	list	4	13	nomatch	beaucoup	-1	1	y	0.7864
149.6715	0.0	+	16	noun	list	4	14	nomatch	beaucoup	-1	1	y	0.7864
149.57480000000004	0.0	[response]	16	noun	list	4	15	nomatch	beaucoup	-1	1	y	0.7864
159.2501	0.0	+	17	noun	phrase	3	1	match	son	3	1	p	0.57757
159.7498	0.2	rvdgc	17	noun	phrase	3	2	match	son	3	1	p	0.57757
159.9497	0.0	+	17	noun	phrase	3	3	match	son	3	1	p	0.57757
160.35	0.2	cqgv	17	noun	phrase	3	4	match	son	3	1	p	0.57757
160.5497	0.0	+	17	noun	phrase	3	5	match	son	3	1	p	0.57757
160.9499	0.2	son	17	noun	phrase	3	6	match	son	3	1	p	0.57757
161.14960000000002	0.0	+	17	noun	phrase	3	7	match	son	3	1	p	0.57757
161.5492	0.2	tablier	17	noun	phrase	3	8	match	son	3	1	p	0.57757
161.74890000000002	0.0	+	17	noun	phrase	3	9	match	son	3	1	p	0.57757
162.14870000000002	0.2	blanc	17	noun	phrase	3	10	match	son	3	1	p	0.57757
162.3486	0.0	+	17	noun	phrase	3	11	match	son	3	1	p	0.57757
162.7484	0.0	+	17	noun	phrase	3	12	match	son	3	1	p	0.57757
164.7475	0.0	SON	17	noun	phrase	3	13	match	son	3	1	p	0.57757
165.4143	0.0	+	17	noun	phrase	3	14	match	son	3	1	p	0.57757
165.32510000000002	0.0	[response]	17	noun	phrase	3	15	match	son	3	1	p	0.57757
175.143	0.0	+	18	noun	list	4	1	match	adam	2	1	p	0.81628
175.6926	0.2	bxrzmk	18	noun	list	4	2	match	adam	2	1	p	0.81628
175.8925	0.0	+	18	noun	list	4	3	match	adam	2	1	p	0.81628
176.2923	0.2	adam	18	noun	list	4	4	match	adam	2	1	p	0.81628
176.4922	0.0	+	18	noun	list	4	5	match	adam	2	1	p	0.81628
176.8921	0.2	mon	18	noun	list	4	6	match	adam	2	1	p	0.81628
177.092	0.0	+	18	noun	list	4	7	match	adam	2	1	p	0.81628
177.4918	0.2	trop	18	noun	list	4	8	match	adam	2	1	p	0.81628
177.6917	0.0	+	18	noun	list	4	9	match	adam	2	1	p	0.81628
178.0915	0.2	grenier	18	noun	list	4	10	match	adam	2	1	p	0.81628
178.2914	0.0	+	18	noun	list	4	11	match	adam	2	1	p	0.81628
178.6912	0.0	+	18	noun	list	4	12	match	adam	2	1	p	0.81628
180.6903	0.0	ADAM	18	noun	list	4	13	match	adam	2	1	p	0.81628
181.57330000000002	0.0	+	18	noun	list	4	14	match	adam	2	1	p	0.81628
181.50660000000002	0.0	[response]	18	noun	list	4	15	match	adam	2	1	p	0.81628
183.0893	0.0	+	19	noun	phrase	4	1	nomatch	jean	-1	1	y	0.7718
183.639	0.2	tpmhkrd	19	noun	phrase	4	2	nomatch	jean	-1	1	y	0.7718
183.8389	0.0	+	19	noun	phrase	4	3	nomatch	jean	-1	1	y	0.7718
184.2387	0.2	vers	19	noun	phrase	4	4	nomatch	jean	-1	1	y	0.7718
184.4387	0.0	+	19	noun	phrase	4	5	nomatch	jean	-1	1	y	0.7718
184.8385	0.2	son	19	noun	phrase	4	6	nomatch	jean	-1	1	y	0.7718
185.0384	0.0	+	19	noun	phrase	4	7	nomatch	jean	-1	1	y	0.7718
185.4382	0.2	clavier	19	noun	phrase	4	8	nomatch	jean	-1	1	y	0.7718
185.6388	0.0	+	19	noun	phrase	4	9	nomatch	jean	-1	1	y	0.7718
186.03830000000002	0.2	rouge	19	noun	phrase	4	10	nomatch	jean	-1	1	y	0.7718
186.2379	0.0	+	19	noun	phrase	4	11	nomatch	jean	-1	1	y	0.7718
186.6377	0.0	+	19	noun	phrase	4	12	nomatch	jean	-1	1	y	0.7718
188.6373	0.0	JEAN	19	noun	phrase	4	13	nomatch	jean	-1	1	y	0.7718
189.5033	0.0	+	19	noun	phrase	4	14	nomatch	jean	-1	1	y	0.7718
189.4091	0.0	[response]	19	noun	phrase	4	15	nomatch	jean	-1	1	y	0.7718
191.03570000000002	0.0	+	20	verb	phrase	1	1	nomatch	plonger	-1	1	y	1.2802
191.58540000000002	0.2	fct	20	verb	phrase	1	2	nomatch	plonger	-1	1	y	1.2802
191.7853	0.0	+	20	verb	phrase	1	3	nomatch	plonger	-1	1	y	1.2802
192.18519999999998	0.2	nxwc	20	verb	phrase	1	4	nomatch	plonger	-1	1	y	1.2802
192.3851	0.0	+	20	verb	phrase	1	5	nomatch	plonger	-1	1	y	1.2802
192.78490000000002	0.2	xnhd	20	verb	phrase	1	6	nomatch	plonger	-1	1	y	1.2802
192.98480000000004	0.0	+	20	verb	phrase	1	7	nomatch	plonger	-1	1	y	1.2802
193.40189999999998	0.2	vwdx	20	verb	phrase	1	8	nomatch	plonger	-1	1	y	1.2802
193.6018	0.0	+	20	verb	phrase	1	9	nomatch	plonger	-1	1	y	1.2802
193.98440000000002	0.2	patiner	20	verb	phrase	1	10	nomatch	plonger	-1	1	y	1.2802
194.1849	0.0	+	20	verb	phrase	1	11	nomatch	plonger	-1	1	y	1.2802
194.58450000000002	0.0	+	20	verb	phrase	1	12	nomatch	plonger	-1	1	y	1.2802
196.59990000000002	0.0	PLONGER	20	verb	phrase	1	13	nomatch	plonger	-1	1	y	1.2802
197.9326	0.0	+	20	verb	phrase	1	14	nomatch	plonger	-1	1	y	1.2802
197.88000000000002	0.0	[response]	20	verb	phrase	1	15	nomatch	plonger	-1	1	y	1.2802
198.9988	0.0	+	21	noun	list	3	1	match	va	3	0	y	0.99438
199.54850000000002	0.2	slr	21	noun	list	3	2	match	va	3	0	y	0.99438
199.74840000000003	0.0	+	21	noun	list	3	3	match	va	3	0	y	0.99438
200.14830000000003	0.2	fwdp	21	noun	list	3	4	match	va	3	0	y	0.99438
200.3482	0.0	+	21	noun	list	3	5	match	va	3	0	y	0.99438
200.74800000000002	0.2	va	21	noun	list	3	6	match	va	3	0	y	0.99438
200.94790000000003	0.0	+	21	noun	list	3	7	match	va	3	0	y	0.99438
201.3477	0.2	rocher	21	noun	list	3	8	match	va	3	0	y	0.99438
201.54760000000002	0.0	+	21	noun	list	3	9	match	va	3	0	y	0.99438
201.94770000000003	0.2	vite	21	noun	list	3	10	match	va	3	0	y	0.99438
202.148	0.0	+	21	noun	list	3	11	match	va	3	0	y	0.99438
202.5472	0.0	+	21	noun	list	3	12	match	va	3	0	y	0.99438
204.5468	0.0	VA	21	noun	list	3	13	match	va	3	0	y	0.99438
205.59580000000003	0.0	+	21	noun	list	3	14	match	va	3	0	y	0.99438
205.54120000000003	0.0	[response]	21	noun	list	3	15	match	va	3	0	y	0.99438
206.94520000000003	0.0	+	22	noun	phrase	4	1	match	casier	4	0	y	0.75827
207.49500000000003	0.2	jvnz	22	noun	phrase	4	2	match	casier	4	0	y	0.75827
207.6949	0.0	+	22	noun	phrase	4	3	match	casier	4	0	y	0.75827
208.09470000000002	0.2	dans	22	noun	phrase	4	4	match	casier	4	0	y	0.75827
208.29460000000003	0.0	+	22	noun	phrase	4	5	match	casier	4	0	y	0.75827
208.6944	0.2	son	22	noun	phrase	4	6	match	casier	4	0	y	0.75827
208.8948	0.0	+	22	noun	phrase	4	7	match	casier	4	0	y	0.75827
209.2945	0.2	casier	22	noun	phrase	4	8	match	casier	4	0	y	0.75827
209.494	0.0	+	22	noun	phrase	4	9	match	casier	4	0	y	0.75827
209.8939	0.2	blanc	22	noun	phrase	4	10	match	casier	4	0	y	0.75827
210.09380000000002	0.0	+	22	noun	phrase	4	11	match	casier	4	0	y	0.75827
210.4936	0.0	+	22	noun	phrase	4	12	match	casier	4	0	y	0.75827
212.49269999999999	0.0	CASIER	22	noun	phrase	4	13	match	casier	4	0	y	0.75827
213.309	0.0	+	22	noun	phrase	4	14	match	casier	4	0	y	0.75827
213.251	0.0	[response]	22	noun	phrase	4	15	match	casier	4	0	y	0.75827
214.8916	0.0	+	23	noun	phrase	2	1	nomatch	plus	-1	1	y	0.7237
215.44140000000002	0.2	lgbrqm	23	noun	phrase	2	2	nomatch	plus	-1	1	y	0.7237
215.64130000000003	0.0	+	23	noun	phrase	2	3	nomatch	plus	-1	1	y	0.7237
216.04170000000002	0.2	fwdp	23	noun	phrase	2	4	nomatch	plus	-1	1	y	0.7237
216.2417	0.0	+	23	noun	phrase	2	5	nomatch	plus	-1	1	y	0.7237
216.64079999999998	0.2	tqd	23	noun	phrase	2	6	nomatch	plus	-1	1	y	0.7237
216.8407	0.0	+	23	noun	phrase	2	7	nomatch	plus	-1	1	y	0.7237
217.24089999999998	0.2	grand	23	noun	phrase	2	8	nomatch	plus	-1	1	y	0.7237
217.4406	0.0	+	23	noun	phrase	2	9	nomatch	plus	-1	1	y	0.7237
217.84099999999998	0.2	grenier	23	noun	phrase	2	10	nomatch	plus	-1	1	y	0.7237
218.0404	0.0	+	23	noun	phrase	2	11	nomatch	plus	-1	1	y	0.7237
218.4571	0.0	+	23	noun	phrase	2	12	nomatch	plus	-1	1	y	0.7237
220.43910000000002	0.0	PLUS	23	noun	phrase	2	13	nomatch	plus	-1	1	y	0.7237
221.22209999999998	0.0	+	23	noun	phrase	2	14	nomatch	plus	-1	1	y	0.7237
221.16280000000003	0.0	[response]	23	noun	phrase	2	15	nomatch	plus	-1	1	y	0.7237
222.838	0.0	+	24	noun	list	3	1	match	sablier	5	1	p	1.2942
223.3878	0.2	knfs	24	noun	list	3	2	match	sablier	5	1	p	1.2942
223.5877	0.0	+	24	noun	list	3	3	match	sablier	5	1	p	1.2942
223.98749999999998	0.2	zrb	24	noun	list	3	4	match	sablier	5	1	p	1.2942
224.1874	0.0	+	24	noun	list	3	5	match	sablier	5	1	p	1.2942
224.5873	0.2	son	24	noun	list	3	6	match	sablier	5	1	p	1.2942
224.7872	0.0	+	24	noun	list	3	7	match	sablier	5	1	p	1.2942
225.18699999999998	0.2	mieux	24	noun	list	3	8	match	sablier	5	1	p	1.2942
225.3869	0.0	+	24	noun	list	3	9	match	sablier	5	1	p	1.2942
225.78670000000002	0.2	sablier	24	noun	list	3	10	match	sablier	5	1	p	1.2942
225.98659999999998	0.0	+	24	noun	list	3	11	match	sablier	5	1	p	1.2942
226.3864	0.0	+	24	noun	list	3	12	match	sablier	5	1	p	1.2942
228.3857	0.0	SABLIER	24	noun	list	3	13	match	sablier	5	1	p	1.2942
229.7349	0.0	+	24	noun	list	3	14	match	sablier	5	1	p	1.2942
229.67990000000006	0.0	[response]	24	noun	list	3	15	match	sablier	5	1	p	1.2942
230.7845	0.0	+	25	noun	list	3	1	match	clavier	4	1	p	2.7872
231.33419999999998	0.2	gtx	25	noun	list	3	2	match	clavier	4	1	p	2.7872
231.5341	0.0	+	25	noun	list	3	3	match	clavier	4	1	p	2.7872
231.934	0.2	lbvx	25	noun	list	3	4	match	clavier	4	1	p	2.7872
232.1339	0.0	+	25	noun	list	3	5	match	clavier	4	1	p	2.7872
232.55030000000002	0.2	peut	25	noun	list	3	6	match	clavier	4	1	p	2.7872
232.73370000000003	0.0	+	25	noun	list	3	7	match	clavier	4	1	p	2.7872
233.15009999999998	0.2	clavier	25	noun	list	3	8	match	clavier	4	1	p	2.7872
233.35	0.0	+	25	noun	list	3	9	match	clavier	4	1	p	2.7872
233.75020000000004	0.2	ainsi	25	noun	list	3	10	match	clavier	4	1	p	2.7872
233.95000000000002	0.0	+	25	noun	list	3	11	match	clavier	4	1	p	2.7872
234.35030000000003	0.0	+	25	noun	list	3	12	match	clavier	4	1	p	2.7872
236.3486	0.0	CLAVIER	25	noun	list	3	13	match	clavier	4	1	p	2.7872
239.1974	0.0	+	25	noun	list	3	14	match	clavier	4	1	p	2.7872
239.13590000000002	0.0	[response]	25	noun	list	3	15	match	clavier	4	1	p	2.7872
246.744	0.0	+	26	verb	list	1	1	nomatch	loin	-1	1	y	0.93193
247.29370000000003	0.2	ndgbfks	26	verb	list	1	2	nomatch	loin	-1	1	y	0.93193
247.4938	0.0	+	26	verb	list	1	3	nomatch	loin	-1	1	y	0.93193
247.8935	0.2	crtd	26	verb	list	1	4	nomatch	loin	-1	1	y	0.93193
248.09330000000003	0.0	+	26	verb	list	1	5	nomatch	loin	-1	1	y	0.93193
248.49320000000003	0.2	xnhd	26	verb	list	1	6	nomatch	loin	-1	1	y	0.93193
248.6931	0.0	+	26	verb	list	1	7	nomatch	loin	-1	1	y	0.93193
249.09290000000001	0.2	cvwk	26	verb	list	1	8	nomatch	loin	-1	1	y	0.93193
249.29280000000003	0.0	+	26	verb	list	1	9	nomatch	loin	-1	1	y	0.93193
249.6926	0.2	danser	26	verb	list	1	10	nomatch	loin	-1	1	y	0.93193
249.8926	0.0	+	26	verb	list	1	11	nomatch	loin	-1	1	y	0.93193
250.29240000000001	0.0	+	26	verb	list	1	12	nomatch	loin	-1	1	y	0.93193
252.2915	0.0	LOIN	26	verb	list	1	13	nomatch	loin	-1	1	y	0.93193
253.29100000000003	0.0	+	26	verb	list	1	14	nomatch	loin	-1	1	y	0.93193
253.2234	0.0	[response]	26	verb	list	1	15	nomatch	loin	-1	1	y	0.93193
254.69039999999998	0.0	+	27	verb	list	1	1	match	noir	5	1	p	0.75144
255.2401	0.2	rpx	27	verb	list	1	2	match	noir	5	1	p	0.75144
255.4401	0.0	+	27	verb	list	1	3	match	noir	5	1	p	0.75144
255.83990000000003	0.2	sqxk	27	verb	list	1	4	match	noir	5	1	p	0.75144
256.0398	0.0	+	27	verb	list	1	5	match	noir	5	1	p	0.75144
256.43960000000004	0.2	tqd	27	verb	list	1	6	match	noir	5	1	p	0.75144
256.64020000000005	0.0	+	27	verb	list	1	7	match	noir	5	1	p	0.75144
257.0566	0.2	rgfchbj	27	verb	list	1	8	match	noir	5	1	p	0.75144
257.23969999999997	0.0	+	27	verb	list	1	9	match	noir	5	1	p	0.75144
257.6391	0.2	noir	27	verb	list	1	10	match	noir	5	1	p	0.75144
257.83900000000006	0.0	+	27	verb	list	1	11	match	noir	5	1	p	0.75144
258.23879999999997	0.0	+	27	verb	list	1	12	match	noir	5	1	p	0.75144
260.2386	0.0	NOIR	27	verb	list	1	13	match	noir	5	1	p	0.75144
261.05420000000004	0.0	+	27	verb	list	1	14	match	noir	5	1	p	0.75144
260.9901	0.0	[response]	27	verb	list	1	15	match	noir	5	1	p	0.75144
270.6838	0.0	+	28	verb	phrase	1	1	nomatch	loin	-1	1	y	0.7173100000000001
271.20000000000005	0.2	mklfjvn	28	verb	phrase	1	2	nomatch	loin	-1	1	y	0.7173100000000001
271.39959999999996	0.0	+	28	verb	phrase	1	3	nomatch	loin	-1	1	y	0.7173100000000001
271.7994	0.2	zrb	28	verb	phrase	1	4	nomatch	loin	-1	1	y	0.7173100000000001
271.99930000000006	0.0	+	28	verb	phrase	1	5	nomatch	loin	-1	1	y	0.7173100000000001
272.3991	0.2	qcpb	28	verb	phrase	1	6	nomatch	loin	-1	1	y	0.7173100000000001
272.59900000000005	0.0	+	28	verb	phrase	1	7	nomatch	loin	-1	1	y	0.7173100000000001
272.99879999999996	0.2	jwtzlhb	28	verb	phrase	1	8	nomatch	loin	-1	1	y	0.7173100000000001
273.19870000000003	0.0	+	28	verb	phrase	1	9	nomatch	loin	-1	1	y	0.7173100000000001
273.5988	0.2	vite	28	verb	phrase	1	10	nomatch	loin	-1	1	y	0.7173100000000001
273.7988	0.0	+	28	verb	phrase	1	11	nomatch	loin	-1	1	y	0.7173100000000001
274.21569999999997	0.0	+	28	verb	phrase	1	12	nomatch	loin	-1	1	y	0.7173100000000001
276.1974	0.0	LOIN	28	verb	phrase	1	13	nomatch	loin	-1	1	y	0.7173100000000001
276.98109999999997	0.0	+	28	verb	phrase	1	14	nomatch	loin	-1	1	y	0.7173100000000001
276.91470000000004	0.0	[response]	28	verb	phrase	1	15	nomatch	loin	-1	1	y	0.7173100000000001
278.59630000000004	0.0	+	29	noun	phrase	1	1	match	rouge	5	0	y	0.92535
279.14610000000005	0.2	tvbcqk	29	noun	phrase	1	2	match	rouge	5	0	y	0.92535
279.346	0.0	+	29	noun	phrase	1	3	match	rouge	5	0	y	0.92535
279.74580000000003	0.2	wpc	29	noun	phrase	1	4	match	rouge	5	0	y	0.92535
279.9457	0.0	+	29	noun	phrase	1	5	match	rouge	5	0	y	0.92535
280.3455	0.2	vfcg	29	noun	phrase	1	6	match	rouge	5	0	y	0.92535
280.5454	0.0	+	29	noun	phrase	1	7	match	rouge	5	0	y	0.92535
280.9453	0.2	nxcgbhw	29	noun	phrase	1	8	match	rouge	5	0	y	0.92535
281.14520000000005	0.0	+	29	noun	phrase	1	9	match	rouge	5	0	y	0.92535
281.54510000000005	0.2	rouge	29	noun	phrase	1	10	match	rouge	5	0	y	0.92535
281.7455	0.0	+	29	noun	phrase	1	11	match	rouge	5	0	y	0.92535
282.1449	0.0	+	29	noun	phrase	1	12	match	rouge	5	0	y	0.92535
284.14430000000004	0.0	ROUGE	29	noun	phrase	1	13	match	rouge	5	0	y	0.92535
285.1267	0.0	+	29	noun	phrase	1	14	match	rouge	5	0	y	0.92535
285.0697	0.0	[response]	29	noun	phrase	1	15	match	rouge	5	0	y	0.92535
286.54269999999997	0.0	+	30	noun	list	3	1	nomatch	jade	-1	1	y	1.3775
287.0925	0.2	hlpmwc	30	noun	list	3	2	nomatch	jade	-1	1	y	1.3775
287.29240000000004	0.0	+	30	noun	list	3	3	nomatch	jade	-1	1	y	1.3775
287.69219999999996	0.2	zbvr	30	noun	list	3	4	nomatch	jade	-1	1	y	1.3775
287.8921	0.0	+	30	noun	list	3	5	nomatch	jade	-1	1	y	1.3775
288.29200000000003	0.2	va	30	noun	list	3	6	nomatch	jade	-1	1	y	1.3775
288.4923	0.0	+	30	noun	list	3	7	nomatch	jade	-1	1	y	1.3775
288.8918	0.2	casier	30	noun	list	3	8	nomatch	jade	-1	1	y	1.3775
289.09209999999996	0.0	+	30	noun	list	3	9	nomatch	jade	-1	1	y	1.3775
289.49210000000005	0.2	tôt	30	noun	list	3	10	nomatch	jade	-1	1	y	1.3775
289.69129999999996	0.0	+	30	noun	list	3	11	nomatch	jade	-1	1	y	1.3775
290.0911	0.0	+	30	noun	list	3	12	nomatch	jade	-1	1	y	1.3775
292.0902	0.0	JADE	30	noun	list	3	13	nomatch	jade	-1	1	y	1.3775
293.5902	0.0	+	30	noun	list	3	14	nomatch	jade	-1	1	y	1.3775
293.46770000000004	0.0	[response]	30	noun	list	3	15	nomatch	jade	-1	1	y	1.3775
294.4892	0.0	+	31	verb	list	2	1	nomatch	son	-1	1	y	0.78133
295.0389	0.2	txcld	31	verb	list	2	2	nomatch	son	-1	1	y	0.78133
295.23879999999997	0.0	+	31	verb	list	2	3	nomatch	son	-1	1	y	0.78133
295.6386	0.2	ckfr	31	verb	list	2	4	nomatch	son	-1	1	y	0.78133
295.83849999999995	0.0	+	31	verb	list	2	5	nomatch	son	-1	1	y	0.78133
296.2386	0.2	vfcg	31	verb	list	2	6	nomatch	son	-1	1	y	0.78133
296.4384	0.0	+	31	verb	list	2	7	nomatch	son	-1	1	y	0.78133
296.83860000000004	0.2	patiner	31	verb	list	2	8	nomatch	son	-1	1	y	0.78133
297.03830000000005	0.0	+	31	verb	list	2	9	nomatch	son	-1	1	y	0.78133
297.43780000000004	0.2	noir	31	verb	list	2	10	nomatch	son	-1	1	y	0.78133
297.6377	0.0	+	31	verb	list	2	11	nomatch	son	-1	1	y	0.78133
298.0376	0.0	+	31	verb	list	2	12	nomatch	son	-1	1	y	0.78133
300.03700000000003	0.0	SON	31	verb	list	2	13	nomatch	son	-1	1	y	0.78133
300.8863	0.0	+	31	verb	list	2	14	nomatch	son	-1	1	y	0.78133
300.8183	0.0	[response]	31	verb	list	2	15	nomatch	son	-1	1	y	0.78133
302.4356	0.0	+	32	noun	list	1	1	match	mieux	5	1	p	0.72772
302.986	0.2	qlf	32	noun	list	1	2	match	mieux	5	1	p	0.72772
303.18590000000006	0.0	+	32	noun	list	1	3	match	mieux	5	1	p	0.72772
303.5857	0.2	nxwc	32	noun	list	1	4	match	mieux	5	1	p	0.72772
303.78549999999996	0.0	+	32	noun	list	1	5	match	mieux	5	1	p	0.72772
304.18550000000005	0.2	rfc	32	noun	list	1	6	match	mieux	5	1	p	0.72772
304.38469999999995	0.0	+	32	noun	list	1	7	match	mieux	5	1	p	0.72772
304.7845	0.2	vfwspz	32	noun	list	1	8	match	mieux	5	1	p	0.72772
304.98440000000005	0.0	+	32	noun	list	1	9	match	mieux	5	1	p	0.72772
305.38419999999996	0.2	mieux	32	noun	list	1	10	match	mieux	5	1	p	0.72772
305.5842	0.0	+	32	noun	list	1	11	match	mieux	5	1	p	0.72772
305.98400000000004	0.0	+	32	noun	list	1	12	match	mieux	5	1	p	0.72772
307.99969999999996	0.0	MIEUX	32	noun	list	1	13	match	mieux	5	1	p	0.72772
308.7827	0.0	+	32	noun	list	1	14	match	mieux	5	1	p	0.72772
308.72749999999996	0.0	[response]	32	noun	list	1	15	match	mieux	5	1	p	0.72772
318.4122	0.0	+	33	verb	phrase	1	1	match	moins	5	1	p	0.55898
318.9448	0.2	lcgtf	33	verb	phrase	1	2	match	moins	5	1	p	0.55898
319.14470000000006	0.0	+	33	verb	phrase	1	3	match	moins	5	1	p	0.55898
319.54460000000006	0.2	tjxp	33	verb	phrase	1	4	match	moins	5	1	p	0.55898
319.7445	0.0	+	33	verb	phrase	1	5	match	moins	5	1	p	0.55898
320.14430000000004	0.2	pv	33	verb	phrase	1	6	match	moins	5	1	p	0.55898
320.3442	0.0	+	33	verb	phrase	1	7	match	moins	5	1	p	0.55898
320.744	0.2	xlphzs	33	verb	phrase	1	8	match	moins	5	1	p	0.55898
320.9439	0.0	+	33	verb	phrase	1	9	match	moins	5	1	p	0.55898
321.3437	0.2	moins	33	verb	phrase	1	10	match	moins	5	1	p	0.55898
321.54359999999997	0.0	+	33	verb	phrase	1	11	match	moins	5	1	p	0.55898
321.9435	0.0	+	33	verb	phrase	1	12	match	moins	5	1	p	0.55898
323.94259999999997	0.0	MOINS	33	verb	phrase	1	13	match	moins	5	1	p	0.55898
324.55899999999997	0.0	+	33	verb	phrase	1	14	match	moins	5	1	p	0.55898
324.50149999999996	0.0	[response]	33	verb	phrase	1	15	match	moins	5	1	p	0.55898
326.34220000000005	0.0	+	34	verb	phrase	4	1	match	beaucoup	4	1	p	1.0138
326.8913	0.2	kqxw	34	verb	phrase	4	2	match	beaucoup	4	1	p	1.0138
327.09119999999996	0.0	+	34	verb	phrase	4	3	match	beaucoup	4	1	p	1.0138
327.491	0.2	jean	34	verb	phrase	4	4	match	beaucoup	4	1	p	1.0138
327.69090000000006	0.0	+	34	verb	phrase	4	5	match	beaucoup	4	1	p	1.0138
328.09069999999997	0.2	va	34	verb	phrase	4	6	match	beaucoup	4	1	p	1.0138
328.29060000000004	0.0	+	34	verb	phrase	4	7	match	beaucoup	4	1	p	1.0138
328.69050000000004	0.2	beaucoup	34	verb	phrase	4	8	match	beaucoup	4	1	p	1.0138
328.8903	0.0	+	34	verb	phrase	4	9	match	beaucoup	4	1	p	1.0138
329.29060000000004	0.2	nager	34	verb	phrase	4	10	match	beaucoup	4	1	p	1.0138
329.49019999999996	0.0	+	34	verb	phrase	4	11	match	beaucoup	4	1	p	1.0138
329.8899	0.0	+	34	verb	phrase	4	12	match	beaucoup	4	1	p	1.0138
331.889	0.0	BEAUCOUP	34	verb	phrase	4	13	match	beaucoup	4	1	p	1.0138
332.95579999999995	0.0	+	34	verb	phrase	4	14	match	beaucoup	4	1	p	1.0138
332.90279999999996	0.0	[response]	34	verb	phrase	4	15	match	beaucoup	4	1	p	1.0138
334.28790000000004	0.0	+	35	verb	list	1	1	match	parader	5	1	p	1.0967
334.83770000000004	0.2	mkwhj	35	verb	list	1	2	match	parader	5	1	p	1.0967
335.0376	0.0	+	35	verb	list	1	3	match	parader	5	1	p	1.0967
335.4542	0.2	qlzg	35	verb	list	1	4	match	parader	5	1	p	1.0967
335.65470000000005	0.0	+	35	verb	list	1	5	match	parader	5	1	p	1.0967
336.03729999999996	0.2	rfc	35	verb	list	1	6	match	parader	5	1	p	1.0967
336.23720000000003	0.0	+	35	verb	list	1	7	match	parader	5	1	p	1.0967
336.65420000000006	0.2	dhgl	35	verb	list	1	8	match	parader	5	1	p	1.0967
336.83680000000004	0.0	+	35	verb	list	1	9	match	parader	5	1	p	1.0967
337.23659999999995	0.2	parader	35	verb	list	1	10	match	parader	5	1	p	1.0967
337.4365	0.0	+	35	verb	list	1	11	match	parader	5	1	p	1.0967
337.83630000000005	0.0	+	35	verb	list	1	12	match	parader	5	1	p	1.0967
339.83540000000005	0.0	PARADER	35	verb	list	1	13	match	parader	5	1	p	1.0967
340.985	0.0	+	35	verb	list	1	14	match	parader	5	1	p	1.0967
340.9321000000001	0.0	[response]	35	verb	list	1	15	match	parader	5	1	p	1.0967
342.23429999999996	0.0	+	36	verb	phrase	4	1	match	marc	2	0	y	1.2917
342.78409999999997	0.2	qbgvw	36	verb	phrase	4	2	match	marc	2	0	y	1.2917
342.98400000000004	0.0	+	36	verb	phrase	4	3	match	marc	2	0	y	1.2917
343.38379999999995	0.2	marc	36	verb	phrase	4	4	match	marc	2	0	y	1.2917
343.5837	0.0	+	36	verb	phrase	4	5	match	marc	2	0	y	1.2917
343.9836	0.2	va	36	verb	phrase	4	6	match	marc	2	0	y	1.2917
344.2001	0.0	+	36	verb	phrase	4	7	match	marc	2	0	y	1.2917
344.6	0.2	plonger	36	verb	phrase	4	8	match	marc	2	0	y	1.2917
344.7999	0.0	+	36	verb	phrase	4	9	match	marc	2	0	y	1.2917
345.20040000000006	0.2	ainsi	36	verb	phrase	4	10	match	marc	2	0	y	1.2917
345.41679999999997	0.0	+	36	verb	phrase	4	11	match	marc	2	0	y	1.2917
345.80010000000004	0.0	+	36	verb	phrase	4	12	match	marc	2	0	y	1.2917
347.7985	0.0	MARC	36	verb	phrase	4	13	match	marc	2	0	y	1.2917
349.14790000000005	0.0	+	36	verb	phrase	4	14	match	marc	2	0	y	1.2917
349.0902	0.0	[response]	36	verb	phrase	4	15	match	marc	2	0	y	1.2917
350.1974	0.0	+	37	noun	phrase	3	1	match	clavier	5	1	p	1.2992
350.7472	0.2	zsc	37	noun	phrase	3	2	match	clavier	5	1	p	1.2992
350.9471	0.0	+	37	noun	phrase	3	3	match	clavier	5	1	p	1.2992
351.3469	0.2	zbvr	37	noun	phrase	3	4	match	clavier	5	1	p	1.2992
351.54679999999996	0.0	+	37	noun	phrase	3	5	match	clavier	5	1	p	1.2992
351.9466	0.2	son	37	noun	phrase	3	6	match	clavier	5	1	p	1.2992
352.14650000000006	0.0	+	37	noun	phrase	3	7	match	clavier	5	1	p	1.2992
352.54640000000006	0.2	petit	37	noun	phrase	3	8	match	clavier	5	1	p	1.2992
352.7463	0.0	+	37	noun	phrase	3	9	match	clavier	5	1	p	1.2992
353.14660000000003	0.2	clavier	37	noun	phrase	3	10	match	clavier	5	1	p	1.2992
353.34670000000006	0.0	+	37	noun	phrase	3	11	match	clavier	5	1	p	1.2992
353.7632	0.0	+	37	noun	phrase	3	12	match	clavier	5	1	p	1.2992
355.74490000000003	0.0	CLAVIER	37	noun	phrase	3	13	match	clavier	5	1	p	1.2992
357.111	0.0	+	37	noun	phrase	3	14	match	clavier	5	1	p	1.2992
357.04409999999996	0.0	[response]	37	noun	phrase	3	15	match	clavier	5	1	p	1.2992
358.14390000000003	0.0	+	38	noun	phrase	2	1	nomatch	noir	-1	1	y	0.76018
358.69360000000006	0.2	sld	38	noun	phrase	2	2	nomatch	noir	-1	1	y	0.76018
358.8935	0.0	+	38	noun	phrase	2	3	nomatch	noir	-1	1	y	0.76018
359.29330000000004	0.2	crtd	38	noun	phrase	2	4	nomatch	noir	-1	1	y	0.76018
359.4932	0.0	+	38	noun	phrase	2	5	nomatch	noir	-1	1	y	0.76018
359.8931	0.2	vfcg	38	noun	phrase	2	6	nomatch	noir	-1	1	y	0.76018
360.09299999999996	0.0	+	38	noun	phrase	2	7	nomatch	noir	-1	1	y	0.76018
360.4928	0.2	casier	38	noun	phrase	2	8	nomatch	noir	-1	1	y	0.76018
360.6929	0.0	+	38	noun	phrase	2	9	nomatch	noir	-1	1	y	0.76018
361.0928	0.2	blanc	38	noun	phrase	2	10	nomatch	noir	-1	1	y	0.76018
361.29280000000006	0.0	+	38	noun	phrase	2	11	nomatch	noir	-1	1	y	0.76018
361.69230000000005	0.0	+	38	noun	phrase	2	12	nomatch	noir	-1	1	y	0.76018
363.6921	0.0	NOIR	38	noun	phrase	2	13	nomatch	noir	-1	1	y	0.76018
364.5248	0.0	+	38	noun	phrase	2	14	nomatch	noir	-1	1	y	0.76018
364.45230000000004	0.0	[response]	38	noun	phrase	2	15	nomatch	noir	-1	1	y	0.76018
366.09029999999996	0.0	+	39	verb	phrase	2	1	match	beaucoup	4	1	p	0.91365
366.64	0.2	lmrvnk	39	verb	phrase	2	2	match	beaucoup	4	1	p	0.91365
366.83990000000006	0.0	+	39	verb	phrase	2	3	match	beaucoup	4	1	p	0.91365
367.25700000000006	0.2	bnmr	39	verb	phrase	2	4	match	beaucoup	4	1	p	0.91365
367.4402	0.0	+	39	verb	phrase	2	5	match	beaucoup	4	1	p	0.91365
367.8401	0.2	pv	39	verb	phrase	2	6	match	beaucoup	4	1	p	0.91365
368.03999999999996	0.0	+	39	verb	phrase	2	7	match	beaucoup	4	1	p	0.91365
368.4392	0.2	beaucoup	39	verb	phrase	2	8	match	beaucoup	4	1	p	0.91365
368.6391	0.0	+	39	verb	phrase	2	9	match	beaucoup	4	1	p	0.91365
369.039	0.2	parader	39	verb	phrase	2	10	match	beaucoup	4	1	p	0.91365
369.23890000000006	0.0	+	39	verb	phrase	2	11	match	beaucoup	4	1	p	0.91365
369.6387	0.0	+	39	verb	phrase	2	12	match	beaucoup	4	1	p	0.91365
371.65520000000004	0.0	BEAUCOUP	39	verb	phrase	2	13	match	beaucoup	4	1	p	0.91365
372.62070000000006	0.0	+	39	verb	phrase	2	14	match	beaucoup	4	1	p	0.91365
372.5688	0.0	[response]	39	verb	phrase	2	15	match	beaucoup	4	1	p	0.91365
382.0834	0.0	+	40	verb	phrase	4	1	nomatch	vieux	-1	1	y	1.2102000000000002
382.59950000000003	0.2	gwdnqp	40	verb	phrase	4	2	nomatch	vieux	-1	1	y	1.2102000000000002
382.7994	0.0	+	40	verb	phrase	4	3	nomatch	vieux	-1	1	y	1.2102000000000002
383.1993	0.2	yves	40	verb	phrase	4	4	nomatch	vieux	-1	1	y	1.2102000000000002
383.39919999999995	0.0	+	40	verb	phrase	4	5	nomatch	vieux	-1	1	y	1.2102000000000002
383.799	0.2	va	40	verb	phrase	4	6	nomatch	vieux	-1	1	y	1.2102000000000002
383.99890000000005	0.0	+	40	verb	phrase	4	7	nomatch	vieux	-1	1	y	1.2102000000000002
384.39869999999996	0.2	moins	40	verb	phrase	4	8	nomatch	vieux	-1	1	y	1.2102000000000002
384.59889999999996	0.0	+	40	verb	phrase	4	9	nomatch	vieux	-1	1	y	1.2102000000000002
384.9991	0.2	patiner	40	verb	phrase	4	10	nomatch	vieux	-1	1	y	1.2102000000000002
385.21569999999997	0.0	+	40	verb	phrase	4	11	nomatch	vieux	-1	1	y	1.2102000000000002
385.5982	0.0	+	40	verb	phrase	4	12	nomatch	vieux	-1	1	y	1.2102000000000002
387.59749999999997	0.0	VIEUX	40	verb	phrase	4	13	nomatch	vieux	-1	1	y	1.2102000000000002
388.86339999999996	0.0	+	40	verb	phrase	4	14	nomatch	vieux	-1	1	y	1.2102000000000002
388.80769999999995	0.0	[response]	40	verb	phrase	4	15	nomatch	vieux	-1	1	y	1.2102000000000002
389.99620000000004	0.0	+	41	verb	list	1	1	nomatch	casier	-1	1	y	1.6074
390.54589999999996	0.2	jqgpnfw	41	verb	list	1	2	nomatch	casier	-1	1	y	1.6074
390.7459	0.0	+	41	verb	list	1	3	nomatch	casier	-1	1	y	1.6074
391.14570000000003	0.2	fwdp	41	verb	list	1	4	nomatch	casier	-1	1	y	1.6074
391.3456	0.0	+	41	verb	list	1	5	nomatch	casier	-1	1	y	1.6074
391.7455	0.2	qcpb	41	verb	list	1	6	nomatch	casier	-1	1	y	1.6074
391.94540000000006	0.0	+	41	verb	list	1	7	nomatch	casier	-1	1	y	1.6074
392.34529999999995	0.2	zqwxd	41	verb	list	1	8	nomatch	casier	-1	1	y	1.6074
392.5457	0.0	+	41	verb	list	1	9	nomatch	casier	-1	1	y	1.6074
392.94550000000004	0.2	parader	41	verb	list	1	10	nomatch	casier	-1	1	y	1.6074
393.16200000000003	0.0	+	41	verb	list	1	11	nomatch	casier	-1	1	y	1.6074
393.562	0.0	+	41	verb	list	1	12	nomatch	casier	-1	1	y	1.6074
395.54370000000006	0.0	CASIER	41	verb	list	1	13	nomatch	casier	-1	1	y	1.6074
397.2096	0.0	+	41	verb	list	1	14	nomatch	casier	-1	1	y	1.6074
397.15110000000004	0.0	[response]	41	verb	list	1	15	nomatch	casier	-1	1	y	1.6074
397.94259999999997	0.0	+	42	noun	phrase	3	1	nomatch	blanc	-1	1	y	1.272
398.4924	0.2	hxzbwfl	42	noun	phrase	3	2	nomatch	blanc	-1	1	y	1.272
398.69230000000005	0.0	+	42	noun	phrase	3	3	nomatch	blanc	-1	1	y	1.272
399.09209999999996	0.2	crtd	42	noun	phrase	3	4	nomatch	blanc	-1	1	y	1.272
399.29200000000003	0.0	+	42	noun	phrase	3	5	nomatch	blanc	-1	1	y	1.272
399.69180000000006	0.2	leur	42	noun	phrase	3	6	nomatch	blanc	-1	1	y	1.272
399.8917	0.0	+	42	noun	phrase	3	7	nomatch	blanc	-1	1	y	1.272
400.2916	0.2	rocher	42	noun	phrase	3	8	nomatch	blanc	-1	1	y	1.272
400.4915	0.0	+	42	noun	phrase	3	9	nomatch	blanc	-1	1	y	1.272
400.89189999999996	0.2	bleu	42	noun	phrase	3	10	nomatch	blanc	-1	1	y	1.272
401.09180000000003	0.0	+	42	noun	phrase	3	11	nomatch	blanc	-1	1	y	1.272
401.491	0.0	+	42	noun	phrase	3	12	nomatch	blanc	-1	1	y	1.272
403.4901	0.0	BLANC	42	noun	phrase	3	13	nomatch	blanc	-1	1	y	1.272
404.8229	0.0	+	42	noun	phrase	3	14	nomatch	blanc	-1	1	y	1.272
404.76210000000003	0.0	[response]	42	noun	phrase	3	15	nomatch	blanc	-1	1	y	1.272
405.88919999999996	0.0	+	43	verb	list	4	1	match	rouler	4	0	y	0.68649
406.4388	0.2	jwhzktq	43	verb	list	4	2	match	rouler	4	0	y	0.68649
406.6387	0.0	+	43	verb	list	4	3	match	rouler	4	0	y	0.68649
407.0385	0.2	marc	43	verb	list	4	4	match	rouler	4	0	y	0.68649
407.23839999999996	0.0	+	43	verb	list	4	5	match	rouler	4	0	y	0.68649
407.63829999999996	0.2	mon	43	verb	list	4	6	match	rouler	4	0	y	0.68649
407.83820000000003	0.0	+	43	verb	list	4	7	match	rouler	4	0	y	0.68649
408.23800000000006	0.2	rouler	43	verb	list	4	8	match	rouler	4	0	y	0.68649
408.4385	0.0	+	43	verb	list	4	9	match	rouler	4	0	y	0.68649
408.83820000000003	0.2	noir	43	verb	list	4	10	match	rouler	4	0	y	0.68649
409.03819999999996	0.0	+	43	verb	list	4	11	match	rouler	4	0	y	0.68649
409.4376	0.0	+	43	verb	list	4	12	match	rouler	4	0	y	0.68649
411.4365	0.0	ROULER	43	verb	list	4	13	match	rouler	4	0	y	0.68649
412.20320000000004	0.0	+	43	verb	list	4	14	match	rouler	4	0	y	0.68649
412.12300000000005	0.0	[response]	43	verb	list	4	15	match	rouler	4	0	y	0.68649
413.8355	0.0	+	44	verb	phrase	3	1	nomatch	adam	-1	1	y	0.90353
414.38520000000005	0.2	dbvrthp	44	verb	phrase	3	2	nomatch	adam	-1	1	y	0.90353
414.5851	0.0	+	44	verb	phrase	3	3	nomatch	adam	-1	1	y	0.90353
414.98490000000004	0.2	nxwc	44	verb	phrase	3	4	nomatch	adam	-1	1	y	0.90353
415.18489999999997	0.0	+	44	verb	phrase	3	5	nomatch	adam	-1	1	y	0.90353
415.5847	0.2	doit	44	verb	phrase	3	6	nomatch	adam	-1	1	y	0.90353
415.78459999999995	0.0	+	44	verb	phrase	3	7	nomatch	adam	-1	1	y	0.90353
416.1844	0.2	moins	44	verb	phrase	3	8	nomatch	adam	-1	1	y	0.90353
416.3849	0.0	+	44	verb	phrase	3	9	nomatch	adam	-1	1	y	0.90353
416.78430000000003	0.2	patiner	44	verb	phrase	3	10	nomatch	adam	-1	1	y	0.90353
416.9845	0.0	+	44	verb	phrase	3	11	nomatch	adam	-1	1	y	0.90353
417.3844	0.0	+	44	verb	phrase	3	12	nomatch	adam	-1	1	y	0.90353
419.39959999999996	0.0	ADAM	44	verb	phrase	3	13	nomatch	adam	-1	1	y	0.90353
420.3659	0.0	+	44	verb	phrase	3	14	nomatch	adam	-1	1	y	0.90353
420.30320000000006	0.0	[response]	44	verb	phrase	3	15	nomatch	adam	-1	1	y	0.90353
429.79499999999996	0.0	+	45	verb	phrase	3	1	nomatch	jongler	-1	1	y	0.7718
430.3447	0.2	nbpkhf	45	verb	phrase	3	2	nomatch	jongler	-1	1	y	0.7718
430.54460000000006	0.0	+	45	verb	phrase	3	3	nomatch	jongler	-1	1	y	0.7718
430.9444	0.2	sqxk	45	verb	phrase	3	4	nomatch	jongler	-1	1	y	0.7718
431.1617	0.0	+	45	verb	phrase	3	5	nomatch	jongler	-1	1	y	0.7718
431.5449	0.2	va	45	verb	phrase	3	6	nomatch	jongler	-1	1	y	0.7718
431.74469999999997	0.0	+	45	verb	phrase	3	7	nomatch	jongler	-1	1	y	0.7718
432.1608	0.2	beaucoup	45	verb	phrase	3	8	nomatch	jongler	-1	1	y	0.7718
432.3438	0.0	+	45	verb	phrase	3	9	nomatch	jongler	-1	1	y	0.7718
432.7436	0.2	parader	45	verb	phrase	3	10	nomatch	jongler	-1	1	y	0.7718
432.9435	0.0	+	45	verb	phrase	3	11	nomatch	jongler	-1	1	y	0.7718
433.3434	0.0	+	45	verb	phrase	3	12	nomatch	jongler	-1	1	y	0.7718
435.3428	0.0	JONGLER	45	verb	phrase	3	13	nomatch	jongler	-1	1	y	0.7718
436.17539999999997	0.0	+	45	verb	phrase	3	14	nomatch	jongler	-1	1	y	0.7718
436.1146	0.0	[response]	45	verb	phrase	3	15	nomatch	jongler	-1	1	y	0.7718
437.7414	0.0	+	46	noun	list	1	1	nomatch	tablier	-1	1	y	1.0459
438.2917	0.2	fnq	46	noun	list	1	2	nomatch	tablier	-1	1	y	1.0459
438.49170000000004	0.0	+	46	noun	list	1	3	nomatch	tablier	-1	1	y	1.0459
438.89149999999995	0.2	zbvr	46	noun	list	1	4	nomatch	tablier	-1	1	y	1.0459
439.1082	0.0	+	46	noun	list	1	5	nomatch	tablier	-1	1	y	1.0459
439.4906	0.2	xnhd	46	noun	list	1	6	nomatch	tablier	-1	1	y	1.0459
439.69050000000004	0.0	+	46	noun	list	1	7	nomatch	tablier	-1	1	y	1.0459
440.09029999999996	0.2	vwdx	46	noun	list	1	8	nomatch	tablier	-1	1	y	1.0459
440.2902	0.0	+	46	noun	list	1	9	nomatch	tablier	-1	1	y	1.0459
440.69010000000003	0.2	boîtier	46	noun	list	1	10	nomatch	tablier	-1	1	y	1.0459
440.89	0.0	+	46	noun	list	1	11	nomatch	tablier	-1	1	y	1.0459
441.2898	0.0	+	46	noun	list	1	12	nomatch	tablier	-1	1	y	1.0459
443.2889	0.0	TABLIER	46	noun	list	1	13	nomatch	tablier	-1	1	y	1.0459
444.38840000000005	0.0	+	46	noun	list	1	14	nomatch	tablier	-1	1	y	1.0459
444.3348	0.0	[response]	46	noun	list	1	15	nomatch	tablier	-1	1	y	1.0459
445.68780000000004	0.0	+	47	noun	phrase	1	1	nomatch	grand	-1	1	y	0.91543
446.23760000000004	0.2	vkfstln	47	noun	phrase	1	2	nomatch	grand	-1	1	y	0.91543
446.4375	0.0	+	47	noun	phrase	1	3	nomatch	grand	-1	1	y	0.91543
446.8373	0.2	fwdp	47	noun	phrase	1	4	nomatch	grand	-1	1	y	0.91543
447.0372	0.0	+	47	noun	phrase	1	5	nomatch	grand	-1	1	y	0.91543
447.437	0.2	rfc	47	noun	phrase	1	6	nomatch	grand	-1	1	y	0.91543
447.63689999999997	0.0	+	47	noun	phrase	1	7	nomatch	grand	-1	1	y	0.91543
448.0367	0.2	ljtbrx	47	noun	phrase	1	8	nomatch	grand	-1	1	y	0.91543
448.23670000000004	0.0	+	47	noun	phrase	1	9	nomatch	grand	-1	1	y	0.91543
448.63710000000003	0.2	petit	47	noun	phrase	1	10	nomatch	grand	-1	1	y	0.91543
448.85360000000003	0.0	+	47	noun	phrase	1	11	nomatch	grand	-1	1	y	0.91543
449.23620000000005	0.0	+	47	noun	phrase	1	12	nomatch	grand	-1	1	y	0.91543
451.23530000000005	0.0	GRAND	47	noun	phrase	1	13	nomatch	grand	-1	1	y	0.91543
452.26830000000007	0.0	+	47	noun	phrase	1	14	nomatch	grand	-1	1	y	0.91543
452.15070000000003	0.0	[response]	47	noun	phrase	1	15	nomatch	grand	-1	1	y	0.91543
453.6342000000001	0.0	+	48	verb	list	4	1	nomatch	dans	-1	1	y	1.1791000000000003
454.1840000000001	0.2	vkbdpg	48	verb	list	4	2	nomatch	dans	-1	1	y	1.1791000000000003
454.38390000000004	0.0	+	48	verb	list	4	3	nomatch	dans	-1	1	y	1.1791000000000003
454.78370000000007	0.2	paul	48	verb	list	4	4	nomatch	dans	-1	1	y	1.1791000000000003
454.9836	0.0	+	48	verb	list	4	5	nomatch	dans	-1	1	y	1.1791000000000003
455.40010000000007	0.2	mon	48	verb	list	4	6	nomatch	dans	-1	1	y	1.1791000000000003
455.6	0.0	+	48	verb	list	4	7	nomatch	dans	-1	1	y	1.1791000000000003
455.99980000000005	0.2	jongler	48	verb	list	4	8	nomatch	dans	-1	1	y	1.1791000000000003
456.1998	0.0	+	48	verb	list	4	9	nomatch	dans	-1	1	y	1.1791000000000003
456.59990000000005	0.2	blanc	48	verb	list	4	10	nomatch	dans	-1	1	y	1.1791000000000003
456.80010000000004	0.0	+	48	verb	list	4	11	nomatch	dans	-1	1	y	1.1791000000000003
457.19990000000007	0.0	+	48	verb	list	4	12	nomatch	dans	-1	1	y	1.1791000000000003
459.1984	0.0	DANS	48	verb	list	4	13	nomatch	dans	-1	1	y	1.1791000000000003
460.4312	0.0	+	48	verb	list	4	14	nomatch	dans	-1	1	y	1.1791000000000003
460.37750000000005	0.0	[response]	48	verb	list	4	15	nomatch	dans	-1	1	y	1.1791000000000003
461.5973	0.0	+	49	noun	list	4	1	nomatch	clavier	-1	1	y	0.91149
462.1471	0.2	hwjvc	49	noun	list	4	2	nomatch	clavier	-1	1	y	0.91149
462.347	0.0	+	49	noun	list	4	3	nomatch	clavier	-1	1	y	0.91149
462.7468	0.2	sous	49	noun	list	4	4	nomatch	clavier	-1	1	y	0.91149
462.9467000000001	0.0	+	49	noun	list	4	5	nomatch	clavier	-1	1	y	0.91149
463.3465	0.2	peut	49	noun	list	4	6	nomatch	clavier	-1	1	y	0.91149
463.54650000000004	0.0	+	49	noun	list	4	7	nomatch	clavier	-1	1	y	0.91149
463.94630000000006	0.2	panier	49	noun	list	4	8	nomatch	clavier	-1	1	y	0.91149
464.14650000000006	0.0	+	49	noun	list	4	9	nomatch	clavier	-1	1	y	0.91149
464.54650000000004	0.2	vite	49	noun	list	4	10	nomatch	clavier	-1	1	y	0.91149
464.7465000000001	0.0	+	49	noun	list	4	11	nomatch	clavier	-1	1	y	0.91149
465.1460000000001	0.0	+	49	noun	list	4	12	nomatch	clavier	-1	1	y	0.91149
467.14480000000003	0.0	CLAVIER	49	noun	list	4	13	nomatch	clavier	-1	1	y	0.91149
468.12840000000006	0.0	+	49	noun	list	4	14	nomatch	clavier	-1	1	y	0.91149
468.0563000000001	0.0	[response]	49	noun	list	4	15	nomatch	clavier	-1	1	y	0.91149
469.54370000000006	0.0	+	50	verb	list	3	1	match	mon	3	0	y	1.1573
470.09350000000006	0.2	gnztkf	50	verb	list	3	2	match	mon	3	0	y	1.1573
470.2934	0.0	+	50	verb	list	3	3	match	mon	3	0	y	1.1573
470.6934	0.2	bnmr	50	verb	list	3	4	match	mon	3	0	y	1.1573
470.89330000000007	0.0	+	50	verb	list	3	5	match	mon	3	0	y	1.1573
471.29320000000007	0.2	mon	50	verb	list	3	6	match	mon	3	0	y	1.1573
471.49340000000007	0.0	+	50	verb	list	3	7	match	mon	3	0	y	1.1573
471.8927	0.2	voyager	50	verb	list	3	8	match	mon	3	0	y	1.1573
472.09260000000006	0.0	+	50	verb	list	3	9	match	mon	3	0	y	1.1573
472.4924000000001	0.2	noir	50	verb	list	3	10	match	mon	3	0	y	1.1573
472.69230000000005	0.0	+	50	verb	list	3	11	match	mon	3	0	y	1.1573
473.09220000000005	0.0	+	50	verb	list	3	12	match	mon	3	0	y	1.1573
475.0912000000001	0.0	MON	50	verb	list	3	13	match	mon	3	0	y	1.1573
476.35810000000004	0.0	+	50	verb	list	3	14	match	mon	3	0	y	1.1573
476.24850000000004	0.0	[response]	50	verb	list	3	15	match	mon	3	0	y	1.1573
477.4902000000001	0.0	+	51	verb	list	1	1	match	grand	5	1	p	0.53413
478.0399	0.2	lvc	51	verb	list	1	2	match	grand	5	1	p	0.53413
478.23980000000006	0.0	+	51	verb	list	1	3	match	grand	5	1	p	0.53413
478.63970000000006	0.2	crtd	51	verb	list	1	4	match	grand	5	1	p	0.53413
478.8396	0.0	+	51	verb	list	1	5	match	grand	5	1	p	0.53413
479.23940000000005	0.2	xnhd	51	verb	list	1	6	match	grand	5	1	p	0.53413
479.4393	0.0	+	51	verb	list	1	7	match	grand	5	1	p	0.53413
479.83910000000003	0.2	wmrbjtl	51	verb	list	1	8	match	grand	5	1	p	0.53413
480.039	0.0	+	51	verb	list	1	9	match	grand	5	1	p	0.53413
480.43950000000007	0.2	grand	51	verb	list	1	10	match	grand	5	1	p	0.53413
480.6394	0.0	+	51	verb	list	1	11	match	grand	5	1	p	0.53413
481.0391000000001	0.0	+	51	verb	list	1	12	match	grand	5	1	p	0.53413
483.0382000000001	0.0	GRAND	51	verb	list	1	13	match	grand	5	1	p	0.53413
483.6541000000001	0.0	+	51	verb	list	1	14	match	grand	5	1	p	0.53413
483.57230000000004	0.0	[response]	51	verb	list	1	15	match	grand	5	1	p	0.53413
493.4501	0.0	+	52	noun	phrase	1	1	match	grenier	5	1	p	0.82992
493.99940000000004	0.2	hjm	52	noun	phrase	1	2	match	grenier	5	1	p	0.82992
494.1993	0.0	+	52	noun	phrase	1	3	match	grenier	5	1	p	0.82992
494.5991	0.2	zbvr	52	noun	phrase	1	4	match	grenier	5	1	p	0.82992
494.7990000000001	0.0	+	52	noun	phrase	1	5	match	grenier	5	1	p	0.82992
495.1989	0.2	rfc	52	noun	phrase	1	6	match	grenier	5	1	p	0.82992
495.39880000000005	0.0	+	52	noun	phrase	1	7	match	grenier	5	1	p	0.82992
495.7986000000001	0.2	bsnmt	52	noun	phrase	1	8	match	grenier	5	1	p	0.82992
495.99850000000004	0.0	+	52	noun	phrase	1	9	match	grenier	5	1	p	0.82992
496.39830000000006	0.2	grenier	52	noun	phrase	1	10	match	grenier	5	1	p	0.82992
496.5982	0.0	+	52	noun	phrase	1	11	match	grenier	5	1	p	0.82992
496.9981	0.0	+	52	noun	phrase	1	12	match	grenier	5	1	p	0.82992
498.9972	0.0	GRENIER	52	noun	phrase	1	13	match	grenier	5	1	p	0.82992
499.8801000000001	0.0	+	52	noun	phrase	1	14	match	grenier	5	1	p	0.82992
499.8271000000001	0.0	[response]	52	noun	phrase	1	15	match	grenier	5	1	p	0.82992
517.3889	0.0	+	53	noun	list	2	1	match	tablier	4	1	p	0.8182
517.9386000000001	0.2	tnlks	53	noun	list	2	2	match	tablier	4	1	p	0.8182
518.1554	0.0	+	53	noun	list	2	3	match	tablier	4	1	p	0.8182
518.5387000000001	0.2	fwdp	53	noun	list	2	4	match	tablier	4	1	p	0.8182
518.7385	0.0	+	53	noun	list	2	5	match	tablier	4	1	p	0.8182
519.1385	0.2	xnhd	53	noun	list	2	6	match	tablier	4	1	p	0.8182
519.3380000000001	0.0	+	53	noun	list	2	7	match	tablier	4	1	p	0.8182
519.7378	0.2	tablier	53	noun	list	2	8	match	tablier	4	1	p	0.8182
519.9377000000001	0.0	+	53	noun	list	2	9	match	tablier	4	1	p	0.8182
520.3376000000001	0.2	tôt	53	noun	list	2	10	match	tablier	4	1	p	0.8182
520.5375	0.0	+	53	noun	list	2	11	match	tablier	4	1	p	0.8182
520.9373	0.0	+	53	noun	list	2	12	match	tablier	4	1	p	0.8182
522.9364	0.0	TABLIER	53	noun	list	2	13	match	tablier	4	1	p	0.8182
523.8361	0.0	+	53	noun	list	2	14	match	tablier	4	1	p	0.8182
523.7546	0.0	[response]	53	noun	list	2	15	match	tablier	4	1	p	0.8182
525.3353000000001	0.0	+	54	noun	phrase	2	1	match	beau	4	0	y	1.9216
525.8851000000001	0.2	spdtlq	54	noun	phrase	2	2	match	beau	4	0	y	1.9216
526.085	0.0	+	54	noun	phrase	2	3	match	beau	4	0	y	1.9216
526.4848000000001	0.2	lbvx	54	noun	phrase	2	4	match	beau	4	0	y	1.9216
526.6854000000001	0.0	+	54	noun	phrase	2	5	match	beau	4	0	y	1.9216
527.0849000000001	0.2	tqd	54	noun	phrase	2	6	match	beau	4	0	y	1.9216
527.2844	0.0	+	54	noun	phrase	2	7	match	beau	4	0	y	1.9216
527.6843	0.2	beau	54	noun	phrase	2	8	match	beau	4	0	y	1.9216
527.8842000000001	0.0	+	54	noun	phrase	2	9	match	beau	4	0	y	1.9216
528.284	0.2	panier	54	noun	phrase	2	10	match	beau	4	0	y	1.9216
528.4839000000001	0.0	+	54	noun	phrase	2	11	match	beau	4	0	y	1.9216
528.8837000000001	0.0	+	54	noun	phrase	2	12	match	beau	4	0	y	1.9216
530.8995	0.0	BEAU	54	noun	phrase	2	13	match	beau	4	0	y	1.9216
532.8819000000001	0.0	+	54	noun	phrase	2	14	match	beau	4	0	y	1.9216
532.8211	0.0	[response]	54	noun	phrase	2	15	match	beau	4	0	y	1.9216
533.2984	0.0	+	55	noun	list	2	1	nomatch	grenier	-1	1	y	0.75812
533.8482	0.2	sdg	55	noun	list	2	2	nomatch	grenier	-1	1	y	0.75812
534.0481000000001	0.0	+	55	noun	list	2	3	nomatch	grenier	-1	1	y	0.75812
534.4479	0.2	zbvr	55	noun	list	2	4	nomatch	grenier	-1	1	y	0.75812
534.6478000000001	0.0	+	55	noun	list	2	5	nomatch	grenier	-1	1	y	0.75812
535.0476	0.2	pv	55	noun	list	2	6	nomatch	grenier	-1	1	y	0.75812
535.2475000000001	0.0	+	55	noun	list	2	7	nomatch	grenier	-1	1	y	0.75812
535.6473000000001	0.2	sablier	55	noun	list	2	8	nomatch	grenier	-1	1	y	0.75812
535.8473	0.0	+	55	noun	list	2	9	nomatch	grenier	-1	1	y	0.75812
536.2471	0.2	loin	55	noun	list	2	10	nomatch	grenier	-1	1	y	0.75812
536.4644000000001	0.0	+	55	noun	list	2	11	nomatch	grenier	-1	1	y	0.75812
536.847	0.0	+	55	noun	list	2	12	nomatch	grenier	-1	1	y	0.75812
538.8459	0.0	GRENIER	55	noun	list	2	13	nomatch	grenier	-1	1	y	0.75812
539.6622	0.0	+	55	noun	list	2	14	nomatch	grenier	-1	1	y	0.75812
539.604	0.0	[response]	55	noun	list	2	15	nomatch	grenier	-1	1	y	0.75812
541.2448	0.0	+	56	verb	list	1	1	match	bleu	5	1	p	0.93531
541.7946000000001	0.2	trdzmq	56	verb	list	1	2	match	bleu	5	1	p	0.93531
541.9945	0.0	+	56	verb	list	1	3	match	bleu	5	1	p	0.93531
542.3943	0.2	sqxk	56	verb	list	1	4	match	bleu	5	1	p	0.93531
542.5942	0.0	+	56	verb	list	1	5	match	bleu	5	1	p	0.93531
542.994	0.2	rfc	56	verb	list	1	6	match	bleu	5	1	p	0.93531
543.1939	0.0	+	56	verb	list	1	7	match	bleu	5	1	p	0.93531
543.5938	0.2	qlvrfsd	56	verb	list	1	8	match	bleu	5	1	p	0.93531
543.7937000000001	0.0	+	56	verb	list	1	9	match	bleu	5	1	p	0.93531
544.2107000000001	0.2	bleu	56	verb	list	1	10	match	bleu	5	1	p	0.93531
544.3939	0.0	+	56	verb	list	1	11	match	bleu	5	1	p	0.93531
544.8106	0.0	+	56	verb	list	1	12	match	bleu	5	1	p	0.93531
546.7929	0.0	BLEU	56	verb	list	1	13	match	bleu	5	1	p	0.93531
547.7919	0.0	+	56	verb	list	1	14	match	bleu	5	1	p	0.93531
547.7282	0.0	[response]	56	verb	list	1	15	match	bleu	5	1	p	0.93531
549.1912	0.0	+	57	verb	list	3	1	nomatch	rocher	-1	1	y	0.8514000000000002
549.741	0.2	pkqc	57	verb	list	3	2	nomatch	rocher	-1	1	y	0.8514000000000002
549.9409	0.0	+	57	verb	list	3	3	nomatch	rocher	-1	1	y	0.8514000000000002
550.3407000000001	0.2	fwdp	57	verb	list	3	4	nomatch	rocher	-1	1	y	0.8514000000000002
550.5407	0.0	+	57	verb	list	3	5	nomatch	rocher	-1	1	y	0.8514000000000002
550.9405	0.2	va	57	verb	list	3	6	nomatch	rocher	-1	1	y	0.8514000000000002
551.1404	0.0	+	57	verb	list	3	7	nomatch	rocher	-1	1	y	0.8514000000000002
551.5407	0.2	grand	57	verb	list	3	8	nomatch	rocher	-1	1	y	0.8514000000000002
551.7572	0.0	+	57	verb	list	3	9	nomatch	rocher	-1	1	y	0.8514000000000002
552.1402	0.2	rouler	57	verb	list	3	10	nomatch	rocher	-1	1	y	0.8514000000000002
552.3403000000001	0.0	+	57	verb	list	3	11	nomatch	rocher	-1	1	y	0.8514000000000002
552.7396	0.0	+	57	verb	list	3	12	nomatch	rocher	-1	1	y	0.8514000000000002
554.7388000000001	0.0	ROCHER	57	verb	list	3	13	nomatch	rocher	-1	1	y	0.8514000000000002
555.6550000000001	0.0	+	57	verb	list	3	14	nomatch	rocher	-1	1	y	0.8514000000000002
555.5902	0.0	[response]	57	verb	list	3	15	nomatch	rocher	-1	1	y	0.8514000000000002
557.1377	0.0	+	58	verb	phrase	1	1	match	mieux	5	1	p	0.92122
557.6874	0.2	kpbwcqm	58	verb	phrase	1	2	match	mieux	5	1	p	0.92122
557.8873	0.0	+	58	verb	phrase	1	3	match	mieux	5	1	p	0.92122
558.2872	0.2	tjxp	58	verb	phrase	1	4	match	mieux	5	1	p	0.92122
558.4871	0.0	+	58	verb	phrase	1	5	match	mieux	5	1	p	0.92122
558.8869000000001	0.2	pv	58	verb	phrase	1	6	match	mieux	5	1	p	0.92122
559.0868	0.0	+	58	verb	phrase	1	7	match	mieux	5	1	p	0.92122
559.4866000000001	0.2	qlvrfsd	58	verb	phrase	1	8	match	mieux	5	1	p	0.92122
559.687	0.0	+	58	verb	phrase	1	9	match	mieux	5	1	p	0.92122
560.0866000000001	0.2	mieux	58	verb	phrase	1	10	match	mieux	5	1	p	0.92122
560.2868000000001	0.0	+	58	verb	phrase	1	11	match	mieux	5	1	p	0.92122
560.6861	0.0	+	58	verb	phrase	1	12	match	mieux	5	1	p	0.92122
562.6856	0.0	MIEUX	58	verb	phrase	1	13	match	mieux	5	1	p	0.92122
563.6851	0.0	+	58	verb	phrase	1	14	match	mieux	5	1	p	0.92122
563.6068	0.0	[response]	58	verb	phrase	1	15	match	mieux	5	1	p	0.92122
565.0841	0.0	+	59	noun	phrase	1	1	match	panier	5	0	y	1.1396
565.6338000000001	0.2	xdbzlk	59	noun	phrase	1	2	match	panier	5	0	y	1.1396
565.8338	0.0	+	59	noun	phrase	1	3	match	panier	5	0	y	1.1396
566.2336	0.2	crtd	59	noun	phrase	1	4	match	panier	5	0	y	1.1396
566.4504000000001	0.0	+	59	noun	phrase	1	5	match	panier	5	0	y	1.1396
566.8672	0.2	rfc	59	noun	phrase	1	6	match	panier	5	0	y	1.1396
567.0506	0.0	+	59	noun	phrase	1	7	match	panier	5	0	y	1.1396
567.4499000000001	0.2	cvwk	59	noun	phrase	1	8	match	panier	5	0	y	1.1396
567.6496000000001	0.0	+	59	noun	phrase	1	9	match	panier	5	0	y	1.1396
568.0494	0.2	panier	59	noun	phrase	1	10	match	panier	5	0	y	1.1396
568.2493000000001	0.0	+	59	noun	phrase	1	11	match	panier	5	0	y	1.1396
568.6492000000001	0.0	+	59	noun	phrase	1	12	match	panier	5	0	y	1.1396
570.6489	0.0	PANIER	59	noun	phrase	1	13	match	panier	5	0	y	1.1396
571.8477	0.0	+	59	noun	phrase	1	14	match	panier	5	0	y	1.1396
571.7885	0.0	[response]	59	noun	phrase	1	15	match	panier	5	0	y	1.1396
573.0472000000001	0.0	+	60	noun	list	1	1	nomatch	yves	-1	1	y	0.91723
573.5969	0.2	jvbkc	60	noun	list	1	2	nomatch	yves	-1	1	y	0.91723
573.7968000000001	0.0	+	60	noun	list	1	3	nomatch	yves	-1	1	y	0.91723
574.1967000000001	0.2	zrb	60	noun	list	1	4	nomatch	yves	-1	1	y	0.91723
574.3966	0.0	+	60	noun	list	1	5	nomatch	yves	-1	1	y	0.91723
574.7964000000001	0.2	vfcg	60	noun	list	1	6	nomatch	yves	-1	1	y	0.91723
574.9963	0.0	+	60	noun	list	1	7	nomatch	yves	-1	1	y	0.91723
575.3961	0.2	ljtbrx	60	noun	list	1	8	nomatch	yves	-1	1	y	0.91723
575.596	0.0	+	60	noun	list	1	9	nomatch	yves	-1	1	y	0.91723
575.9964	0.2	moins	60	noun	list	1	10	nomatch	yves	-1	1	y	0.91723
576.1962000000001	0.0	+	60	noun	list	1	11	nomatch	yves	-1	1	y	0.91723
576.5956	0.0	+	60	noun	list	1	12	nomatch	yves	-1	1	y	0.91723
578.5947	0.0	YVES	60	noun	list	1	13	nomatch	yves	-1	1	y	0.91723
579.5776000000001	0.0	+	60	noun	list	1	14	nomatch	yves	-1	1	y	0.91723
579.5119000000001	0.0	[response]	60	noun	list	1	15	nomatch	yves	-1	1	y	0.91723
580.9936	0.0	+	61	verb	list	1	1	nomatch	trop	-1	1	y	1.0979
581.5434	0.2	ctx	61	verb	list	1	2	nomatch	trop	-1	1	y	1.0979
581.7433000000001	0.0	+	61	verb	list	1	3	nomatch	trop	-1	1	y	1.0979
582.1431	0.2	fwdp	61	verb	list	1	4	nomatch	trop	-1	1	y	1.0979
582.3430000000001	0.0	+	61	verb	list	1	5	nomatch	trop	-1	1	y	1.0979
582.7428	0.2	qcpb	61	verb	list	1	6	nomatch	trop	-1	1	y	1.0979
582.9427000000001	0.0	+	61	verb	list	1	7	nomatch	trop	-1	1	y	1.0979
583.3426000000001	0.2	vzckn	61	verb	list	1	8	nomatch	trop	-1	1	y	1.0979
583.5431	0.0	+	61	verb	list	1	9	nomatch	trop	-1	1	y	1.0979
583.943	0.2	beau	61	verb	list	1	10	nomatch	trop	-1	1	y	1.0979
584.159	0.0	+	61	verb	list	1	11	nomatch	trop	-1	1	y	1.0979
584.542	0.0	+	61	verb	list	1	12	nomatch	trop	-1	1	y	1.0979
586.5412	0.0	TROP	61	verb	list	1	13	nomatch	trop	-1	1	y	1.0979
587.7406000000001	0.0	+	61	verb	list	1	14	nomatch	trop	-1	1	y	1.0979
587.6391	0.0	[response]	61	verb	list	1	15	nomatch	trop	-1	1	y	1.0979
588.94	0.0	+	62	noun	phrase	1	1	nomatch	rouge	-1	1	y	0.6881500000000002
589.4898000000001	0.2	mkbnf	62	noun	phrase	1	2	nomatch	rouge	-1	1	y	0.6881500000000002
589.6897	0.0	+	62	noun	phrase	1	3	nomatch	rouge	-1	1	y	0.6881500000000002
590.0895	0.2	cqgv	62	noun	phrase	1	4	nomatch	rouge	-1	1	y	0.6881500000000002
590.2894	0.0	+	62	noun	phrase	1	5	nomatch	rouge	-1	1	y	0.6881500000000002
590.6892	0.2	tqd	62	noun	phrase	1	6	nomatch	rouge	-1	1	y	0.6881500000000002
590.8892000000001	0.0	+	62	noun	phrase	1	7	nomatch	rouge	-1	1	y	0.6881500000000002
591.2895000000001	0.2	shnvprc	62	noun	phrase	1	8	nomatch	rouge	-1	1	y	0.6881500000000002
591.4892	0.0	+	62	noun	phrase	1	9	nomatch	rouge	-1	1	y	0.6881500000000002
591.8891	0.2	blanc	62	noun	phrase	1	10	nomatch	rouge	-1	1	y	0.6881500000000002
592.0892	0.0	+	62	noun	phrase	1	11	nomatch	rouge	-1	1	y	0.6881500000000002
592.489	0.0	+	62	noun	phrase	1	12	nomatch	rouge	-1	1	y	0.6881500000000002
594.4875000000001	0.0	ROUGE	62	noun	phrase	1	13	nomatch	rouge	-1	1	y	0.6881500000000002
595.2372	0.0	+	62	noun	phrase	1	14	nomatch	rouge	-1	1	y	0.6881500000000002
595.1757	0.0	[response]	62	noun	phrase	1	15	nomatch	rouge	-1	1	y	0.6881500000000002
604.9167	0.0	+	63	verb	phrase	2	1	match	plonger	5	1	p	0.84399
605.4493	0.2	pkjlnmt	63	verb	phrase	2	2	match	plonger	5	1	p	0.84399
605.6492000000001	0.0	+	63	verb	phrase	2	3	match	plonger	5	1	p	0.84399
606.0490000000001	0.2	bnmr	63	verb	phrase	2	4	match	plonger	5	1	p	0.84399
606.2489	0.0	+	63	verb	phrase	2	5	match	plonger	5	1	p	0.84399
606.6487000000001	0.2	xnhd	63	verb	phrase	2	6	match	plonger	5	1	p	0.84399
606.8487	0.0	+	63	verb	phrase	2	7	match	plonger	5	1	p	0.84399
607.2485	0.2	plus	63	verb	phrase	2	8	match	plonger	5	1	p	0.84399
607.4490000000001	0.0	+	63	verb	phrase	2	9	match	plonger	5	1	p	0.84399
607.8488	0.2	plonger	63	verb	phrase	2	10	match	plonger	5	1	p	0.84399
608.0485	0.0	+	63	verb	phrase	2	11	match	plonger	5	1	p	0.84399
608.4652	0.0	+	63	verb	phrase	2	12	match	plonger	5	1	p	0.84399
610.447	0.0	PLONGER	63	verb	phrase	2	13	match	plonger	5	1	p	0.84399
611.3807	0.0	+	63	verb	phrase	2	14	match	plonger	5	1	p	0.84399
611.291	0.0	[response]	63	verb	phrase	2	15	match	plonger	5	1	p	0.84399
612.8459	0.0	+	64	verb	phrase	4	1	match	jongler	5	1	p	1.0879
613.3957	0.2	wqdngr	64	verb	phrase	4	2	match	jongler	5	1	p	1.0879
613.5956	0.0	+	64	verb	phrase	4	3	match	jongler	5	1	p	1.0879
613.9954	0.2	jade	64	verb	phrase	4	4	match	jongler	5	1	p	1.0879
614.1953000000001	0.0	+	64	verb	phrase	4	5	match	jongler	5	1	p	1.0879
614.5952000000001	0.2	doit	64	verb	phrase	4	6	match	jongler	5	1	p	1.0879
614.7951	0.0	+	64	verb	phrase	4	7	match	jongler	5	1	p	1.0879
615.2121000000001	0.2	beaucoup	64	verb	phrase	4	8	match	jongler	5	1	p	1.0879
615.3951000000001	0.0	+	64	verb	phrase	4	9	match	jongler	5	1	p	1.0879
615.7948	0.2	jongler	64	verb	phrase	4	10	match	jongler	5	1	p	1.0879
615.9951	0.0	+	64	verb	phrase	4	11	match	jongler	5	1	p	1.0879
616.3951000000001	0.0	+	64	verb	phrase	4	12	match	jongler	5	1	p	1.0879
618.3936	0.0	JONGLER	64	verb	phrase	4	13	match	jongler	5	1	p	1.0879
619.5429	0.0	+	64	verb	phrase	4	14	match	jongler	5	1	p	1.0879
619.4815000000001	0.0	[response]	64	verb	phrase	4	15	match	jongler	5	1	p	1.0879
620.7924	0.0	+	65	verb	phrase	1	1	match	rouler	5	0	y	0.8635
621.3421000000001	0.2	btpdxc	65	verb	phrase	1	2	match	rouler	5	0	y	0.8635
621.542	0.0	+	65	verb	phrase	1	3	match	rouler	5	0	y	0.8635
621.9419	0.2	ckfr	65	verb	phrase	1	4	match	rouler	5	0	y	0.8635
622.1418	0.0	+	65	verb	phrase	1	5	match	rouler	5	0	y	0.8635
622.5416	0.2	pv	65	verb	phrase	1	6	match	rouler	5	0	y	0.8635
622.7415000000001	0.0	+	65	verb	phrase	1	7	match	rouler	5	0	y	0.8635
623.1413	0.2	tvhgl	65	verb	phrase	1	8	match	rouler	5	0	y	0.8635
623.3412000000001	0.0	+	65	verb	phrase	1	9	match	rouler	5	0	y	0.8635
623.7414	0.2	rouler	65	verb	phrase	1	10	match	rouler	5	0	y	0.8635
623.9581000000001	0.0	+	65	verb	phrase	1	11	match	rouler	5	0	y	0.8635
624.3408000000001	0.0	+	65	verb	phrase	1	12	match	rouler	5	0	y	0.8635
626.3399000000001	0.0	ROULER	65	verb	phrase	1	13	match	rouler	5	0	y	0.8635
627.2899	0.0	+	65	verb	phrase	1	14	match	rouler	5	0	y	0.8635
627.2034	0.0	[response]	65	verb	phrase	1	15	match	rouler	5	0	y	0.8635
628.7388000000001	0.0	+	66	verb	list	4	1	match	vers	2	1	p	1.0622
629.2885	0.2	fmsn	66	verb	list	4	2	match	vers	2	1	p	1.0622
629.4885	0.0	+	66	verb	list	4	3	match	vers	2	1	p	1.0622
629.8883000000001	0.2	vers	66	verb	list	4	4	match	vers	2	1	p	1.0622
630.0887	0.0	+	66	verb	list	4	5	match	vers	2	1	p	1.0622
630.4884000000001	0.2	peut	66	verb	list	4	6	match	vers	2	1	p	1.0622
630.6885000000001	0.0	+	66	verb	list	4	7	match	vers	2	1	p	1.0622
631.0883	0.2	beau	66	verb	list	4	8	match	vers	2	1	p	1.0622
631.288	0.0	+	66	verb	list	4	9	match	vers	2	1	p	1.0622
631.6875	0.2	jongler	66	verb	list	4	10	match	vers	2	1	p	1.0622
631.8874000000001	0.0	+	66	verb	list	4	11	match	vers	2	1	p	1.0622
632.2872	0.0	+	66	verb	list	4	12	match	vers	2	1	p	1.0622
634.2863	0.0	VERS	66	verb	list	4	13	match	vers	2	1	p	1.0622
635.4025	0.0	+	66	verb	list	4	14	match	vers	2	1	p	1.0622
635.3485000000001	0.0	[response]	66	verb	list	4	15	match	vers	2	1	p	1.0622
636.6852	0.0	+	67	verb	phrase	2	1	nomatch	loin	-1	1	y	0.97299
637.2356000000001	0.2	bcfvtw	67	verb	phrase	2	2	nomatch	loin	-1	1	y	0.97299
637.4516	0.0	+	67	verb	phrase	2	3	nomatch	loin	-1	1	y	0.97299
637.8354	0.2	tjxp	67	verb	phrase	2	4	nomatch	loin	-1	1	y	0.97299
638.0348	0.0	+	67	verb	phrase	2	5	nomatch	loin	-1	1	y	0.97299
638.4344	0.2	qcpb	67	verb	phrase	2	6	nomatch	loin	-1	1	y	0.97299
638.6343	0.0	+	67	verb	phrase	2	7	nomatch	loin	-1	1	y	0.97299
639.0342	0.2	patiner	67	verb	phrase	2	8	nomatch	loin	-1	1	y	0.97299
639.2341	0.0	+	67	verb	phrase	2	9	nomatch	loin	-1	1	y	0.97299
639.6339	0.2	ainsi	67	verb	phrase	2	10	nomatch	loin	-1	1	y	0.97299
639.8338	0.0	+	67	verb	phrase	2	11	nomatch	loin	-1	1	y	0.97299
640.2336	0.0	+	67	verb	phrase	2	12	nomatch	loin	-1	1	y	0.97299
642.2494	0.0	LOIN	67	verb	phrase	2	13	nomatch	loin	-1	1	y	0.97299
643.2823000000001	0.0	+	67	verb	phrase	2	14	nomatch	loin	-1	1	y	0.97299
643.2224	0.0	[response]	67	verb	phrase	2	15	nomatch	loin	-1	1	y	0.97299
644.6483000000001	0.0	+	68	noun	phrase	1	1	nomatch	casier	-1	1	y	0.9711900000000001
645.1981000000001	0.2	dkctgxr	68	noun	phrase	1	2	nomatch	casier	-1	1	y	0.9711900000000001
645.398	0.0	+	68	noun	phrase	1	3	nomatch	casier	-1	1	y	0.9711900000000001
645.7984	0.2	fwdp	68	noun	phrase	1	4	nomatch	casier	-1	1	y	0.9711900000000001
645.9977	0.0	+	68	noun	phrase	1	5	nomatch	casier	-1	1	y	0.9711900000000001
646.3983000000001	0.2	rfc	68	noun	phrase	1	6	nomatch	casier	-1	1	y	0.9711900000000001
646.5974	0.0	+	68	noun	phrase	1	7	nomatch	casier	-1	1	y	0.9711900000000001
646.9979000000001	0.2	shnvprc	68	noun	phrase	1	8	nomatch	casier	-1	1	y	0.9711900000000001
647.2144000000001	0.0	+	68	noun	phrase	1	9	nomatch	casier	-1	1	y	0.9711900000000001
647.597	0.2	grand	68	noun	phrase	1	10	nomatch	casier	-1	1	y	0.9711900000000001
647.7969	0.0	+	68	noun	phrase	1	11	nomatch	casier	-1	1	y	0.9711900000000001
648.1967000000001	0.0	+	68	noun	phrase	1	12	nomatch	casier	-1	1	y	0.9711900000000001
650.1958000000001	0.0	CASIER	68	noun	phrase	1	13	nomatch	casier	-1	1	y	0.9711900000000001
651.2627	0.0	+	68	noun	phrase	1	14	nomatch	casier	-1	1	y	0.9711900000000001
651.167	0.0	[response]	68	noun	phrase	1	15	nomatch	casier	-1	1	y	0.9711900000000001
668.5875000000001	0.0	+	69	verb	list	3	1	match	voyager	5	1	p	0.7897200000000001
669.1373	0.2	drcsjw	69	verb	list	3	2	match	voyager	5	1	p	0.7897200000000001
669.3372	0.0	+	69	verb	list	3	3	match	voyager	5	1	p	0.7897200000000001
669.7370000000001	0.2	wpc	69	verb	list	3	4	match	voyager	5	1	p	0.7897200000000001
669.9369	0.0	+	69	verb	list	3	5	match	voyager	5	1	p	0.7897200000000001
670.3368	0.2	doit	69	verb	list	3	6	match	voyager	5	1	p	0.7897200000000001
670.5367	0.0	+	69	verb	list	3	7	match	voyager	5	1	p	0.7897200000000001
670.9365	0.2	beau	69	verb	list	3	8	match	voyager	5	1	p	0.7897200000000001
671.1364	0.0	+	69	verb	list	3	9	match	voyager	5	1	p	0.7897200000000001
671.5362	0.2	voyager	69	verb	list	3	10	match	voyager	5	1	p	0.7897200000000001
671.7361000000001	0.0	+	69	verb	list	3	11	match	voyager	5	1	p	0.7897200000000001
672.1365000000001	0.0	+	69	verb	list	3	12	match	voyager	5	1	p	0.7897200000000001
674.135	0.0	VOYAGER	69	verb	list	3	13	match	voyager	5	1	p	0.7897200000000001
675.0349	0.0	+	69	verb	list	3	14	match	voyager	5	1	p	0.7897200000000001
674.9248	0.0	[response]	69	verb	list	3	15	match	voyager	5	1	p	0.7897200000000001
676.534	0.0	+	70	verb	phrase	1	1	match	vite	5	1	p	2.2973
677.0838	0.2	pxh	70	verb	phrase	1	2	match	vite	5	1	p	2.2973
677.2836000000001	0.0	+	70	verb	phrase	1	3	match	vite	5	1	p	2.2973
677.7002	0.2	bnmr	70	verb	phrase	1	4	match	vite	5	1	p	2.2973
677.9001000000001	0.0	+	70	verb	phrase	1	5	match	vite	5	1	p	2.2973
678.2998	0.2	qcpb	70	verb	phrase	1	6	match	vite	5	1	p	2.2973
678.4998	0.0	+	70	verb	phrase	1	7	match	vite	5	1	p	2.2973
678.8997	0.2	sdwnlp	70	verb	phrase	1	8	match	vite	5	1	p	2.2973
679.0995	0.0	+	70	verb	phrase	1	9	match	vite	5	1	p	2.2973
679.4993000000001	0.2	vite	70	verb	phrase	1	10	match	vite	5	1	p	2.2973
679.6998	0.0	+	70	verb	phrase	1	11	match	vite	5	1	p	2.2973
680.1164	0.0	+	70	verb	phrase	1	12	match	vite	5	1	p	2.2973
682.0983	0.0	VITE	70	verb	phrase	1	13	match	vite	5	1	p	2.2973
684.4471000000001	0.0	+	70	verb	phrase	1	14	match	vite	5	1	p	2.2973
684.3957	0.0	[response]	70	verb	phrase	1	15	match	vite	5	1	p	2.2973
684.5137000000001	0.0	+	71	verb	phrase	3	1	match	beaucoup	4	1	p	0.60651
685.0468000000001	0.2	sdzwch	71	verb	phrase	3	2	match	beaucoup	4	1	p	0.60651
685.2467	0.0	+	71	verb	phrase	3	3	match	beaucoup	4	1	p	0.60651
685.6465000000001	0.2	tjxp	71	verb	phrase	3	4	match	beaucoup	4	1	p	0.60651
685.8465	0.0	+	71	verb	phrase	3	5	match	beaucoup	4	1	p	0.60651
686.2463	0.2	peut	71	verb	phrase	3	6	match	beaucoup	4	1	p	0.60651
686.4462000000001	0.0	+	71	verb	phrase	3	7	match	beaucoup	4	1	p	0.60651
686.846	0.2	beaucoup	71	verb	phrase	3	8	match	beaucoup	4	1	p	0.60651
687.0459000000001	0.0	+	71	verb	phrase	3	9	match	beaucoup	4	1	p	0.60651
687.4457	0.2	plonger	71	verb	phrase	3	10	match	beaucoup	4	1	p	0.60651
687.6456000000001	0.0	+	71	verb	phrase	3	11	match	beaucoup	4	1	p	0.60651
688.0454000000001	0.0	+	71	verb	phrase	3	12	match	beaucoup	4	1	p	0.60651
690.0446000000001	0.0	BEAUCOUP	71	verb	phrase	3	13	match	beaucoup	4	1	p	0.60651
690.7109	0.0	+	71	verb	phrase	3	14	match	beaucoup	4	1	p	0.60651
690.6511	0.0	[response]	71	verb	phrase	3	15	match	beaucoup	4	1	p	0.60651
692.4435000000001	0.0	+	72	verb	list	2	1	match	grand	4	1	p	1.2750000000000001
692.9937	0.2	kds	72	verb	list	2	2	match	grand	4	1	p	1.2750000000000001
693.1931000000001	0.0	+	72	verb	list	2	3	match	grand	4	1	p	1.2750000000000001
693.5930000000001	0.2	wpc	72	verb	list	2	4	match	grand	4	1	p	1.2750000000000001
693.7929	0.0	+	72	verb	list	2	5	match	grand	4	1	p	1.2750000000000001
694.1927000000001	0.2	qcpb	72	verb	list	2	6	match	grand	4	1	p	1.2750000000000001
694.3926	0.0	+	72	verb	list	2	7	match	grand	4	1	p	1.2750000000000001
694.7931	0.2	grand	72	verb	list	2	8	match	grand	4	1	p	1.2750000000000001
695.0096000000001	0.0	+	72	verb	list	2	9	match	grand	4	1	p	1.2750000000000001
695.3921	0.2	nager	72	verb	list	2	10	match	grand	4	1	p	1.2750000000000001
695.5921000000001	0.0	+	72	verb	list	2	11	match	grand	4	1	p	1.2750000000000001
695.9919	0.0	+	72	verb	list	2	12	match	grand	4	1	p	1.2750000000000001
698.0082	0.0	GRAND	72	verb	list	2	13	match	grand	4	1	p	1.2750000000000001
699.3404	0.0	+	72	verb	list	2	14	match	grand	4	1	p	1.2750000000000001
699.2832000000001	0.0	[response]	72	verb	list	2	15	match	grand	4	1	p	1.2750000000000001
700.3899	0.0	+	73	verb	list	3	1	nomatch	son	-1	1	y	0.82058
700.9397	0.2	zfdg	73	verb	list	3	2	nomatch	son	-1	1	y	0.82058
701.14	0.0	+	73	verb	list	3	3	nomatch	son	-1	1	y	0.82058
701.5566	0.2	fwdp	73	verb	list	3	4	nomatch	son	-1	1	y	0.82058
701.7396	0.0	+	73	verb	list	3	5	nomatch	son	-1	1	y	0.82058
702.1393	0.2	doit	73	verb	list	3	6	nomatch	son	-1	1	y	0.82058
702.339	0.0	+	73	verb	list	3	7	nomatch	son	-1	1	y	0.82058
702.7389000000001	0.2	nouveau	73	verb	list	3	8	nomatch	son	-1	1	y	0.82058
702.9388	0.0	+	73	verb	list	3	9	nomatch	son	-1	1	y	0.82058
703.3386	0.2	parader	73	verb	list	3	10	nomatch	son	-1	1	y	0.82058
703.5385	0.0	+	73	verb	list	3	11	nomatch	son	-1	1	y	0.82058
703.9383	0.0	+	73	verb	list	3	12	nomatch	son	-1	1	y	0.82058
705.9374	0.0	SON	73	verb	list	3	13	nomatch	son	-1	1	y	0.82058
706.8203000000001	0.0	+	73	verb	list	3	14	nomatch	son	-1	1	y	0.82058
706.758	0.0	[response]	73	verb	list	3	15	nomatch	son	-1	1	y	0.82058
708.3363	0.0	+	74	verb	phrase	3	1	match	peut	3	0	y	1.5995000000000001
708.8861	0.2	tvk	74	verb	phrase	3	2	match	peut	3	0	y	1.5995000000000001
709.086	0.0	+	74	verb	phrase	3	3	match	peut	3	0	y	1.5995000000000001
709.4858	0.2	bnmr	74	verb	phrase	3	4	match	peut	3	0	y	1.5995000000000001
709.6857	0.0	+	74	verb	phrase	3	5	match	peut	3	0	y	1.5995000000000001
710.0855	0.2	peut	74	verb	phrase	3	6	match	peut	3	0	y	1.5995000000000001
710.2855000000001	0.0	+	74	verb	phrase	3	7	match	peut	3	0	y	1.5995000000000001
710.6853	0.2	plus	74	verb	phrase	3	8	match	peut	3	0	y	1.5995000000000001
710.8856000000001	0.0	+	74	verb	phrase	3	9	match	peut	3	0	y	1.5995000000000001
711.2854	0.2	jongler	74	verb	phrase	3	10	match	peut	3	0	y	1.5995000000000001
711.4849	0.0	+	74	verb	phrase	3	11	match	peut	3	0	y	1.5995000000000001
711.8847000000001	0.0	+	74	verb	phrase	3	12	match	peut	3	0	y	1.5995000000000001
713.8838000000001	0.0	PEUT	74	verb	phrase	3	13	match	peut	3	0	y	1.5995000000000001
715.5497	0.0	+	74	verb	phrase	3	14	match	peut	3	0	y	1.5995000000000001
715.4834000000001	0.0	[response]	74	verb	phrase	3	15	match	peut	3	0	y	1.5995000000000001
716.2994	0.0	+	75	verb	phrase	1	1	match	tard	5	1	p	0.65052
716.8492	0.2	dmxrwtz	75	verb	phrase	1	2	match	tard	5	1	p	0.65052
717.0491000000001	0.0	+	75	verb	phrase	1	3	match	tard	5	1	p	0.65052
717.4489	0.2	qlzg	75	verb	phrase	1	4	match	tard	5	1	p	0.65052
717.6488	0.0	+	75	verb	phrase	1	5	match	tard	5	1	p	0.65052
718.0486000000001	0.2	xnhd	75	verb	phrase	1	6	match	tard	5	1	p	0.65052
718.2485	0.0	+	75	verb	phrase	1	7	match	tard	5	1	p	0.65052
718.6487000000001	0.2	wmrbjtl	75	verb	phrase	1	8	match	tard	5	1	p	0.65052
718.8485000000001	0.0	+	75	verb	phrase	1	9	match	tard	5	1	p	0.65052
719.2481	0.2	tard	75	verb	phrase	1	10	match	tard	5	1	p	0.65052
719.448	0.0	+	75	verb	phrase	1	11	match	tard	5	1	p	0.65052
719.8478	0.0	+	75	verb	phrase	1	12	match	tard	5	1	p	0.65052
721.847	0.0	TARD	75	verb	phrase	1	13	match	tard	5	1	p	0.65052
722.5633	0.0	+	75	verb	phrase	1	14	match	tard	5	1	p	0.65052
722.4975000000001	0.0	[response]	75	verb	phrase	1	15	match	tard	5	1	p	0.65052
724.2458	0.0	+	76	noun	phrase	1	1	nomatch	petit	-1	0	p	1.1195
724.7956	0.2	xlwcgfb	76	noun	phrase	1	2	nomatch	petit	-1	0	p	1.1195
724.9955	0.0	+	76	noun	phrase	1	3	nomatch	petit	-1	0	p	1.1195
725.3953	0.2	dxvn	76	noun	phrase	1	4	nomatch	petit	-1	0	p	1.1195
725.5952000000001	0.0	+	76	noun	phrase	1	5	nomatch	petit	-1	0	p	1.1195
725.9951	0.2	rfc	76	noun	phrase	1	6	nomatch	petit	-1	0	p	1.1195
726.195	0.0	+	76	noun	phrase	1	7	nomatch	petit	-1	0	p	1.1195
726.6116000000001	0.2	vfwspz	76	noun	phrase	1	8	nomatch	petit	-1	0	p	1.1195
726.7954000000001	0.0	+	76	noun	phrase	1	9	nomatch	petit	-1	0	p	1.1195
727.2116000000001	0.2	vieux	76	noun	phrase	1	10	nomatch	petit	-1	0	p	1.1195
727.3946000000001	0.0	+	76	noun	phrase	1	11	nomatch	petit	-1	0	p	1.1195
727.7942	0.0	+	76	noun	phrase	1	12	nomatch	petit	-1	0	p	1.1195
729.7933	0.0	PETIT	76	noun	phrase	1	13	nomatch	petit	-1	0	p	1.1195
730.9761000000001	0.0	+	76	noun	phrase	1	14	nomatch	petit	-1	0	p	1.1195
730.9128000000001	0.0	[response]	76	noun	phrase	1	15	nomatch	petit	-1	0	p	1.1195
732.1923	0.0	+	77	verb	phrase	1	1	match	beaucoup	5	1	p	1.3138000000000003
732.7420000000001	0.2	kwrnp	77	verb	phrase	1	2	match	beaucoup	5	1	p	1.3138000000000003
732.9419	0.0	+	77	verb	phrase	1	3	match	beaucoup	5	1	p	1.3138000000000003
733.3418	0.2	nxwc	77	verb	phrase	1	4	match	beaucoup	5	1	p	1.3138000000000003
733.5417	0.0	+	77	verb	phrase	1	5	match	beaucoup	5	1	p	1.3138000000000003
733.9415	0.2	xnhd	77	verb	phrase	1	6	match	beaucoup	5	1	p	1.3138000000000003
734.1416	0.0	+	77	verb	phrase	1	7	match	beaucoup	5	1	p	1.3138000000000003
734.5417	0.2	vzckn	77	verb	phrase	1	8	match	beaucoup	5	1	p	1.3138000000000003
734.7418	0.0	+	77	verb	phrase	1	9	match	beaucoup	5	1	p	1.3138000000000003
735.1410000000001	0.2	beaucoup	77	verb	phrase	1	10	match	beaucoup	5	1	p	1.3138000000000003
735.3411	0.0	+	77	verb	phrase	1	11	match	beaucoup	5	1	p	1.3138000000000003
735.7407000000001	0.0	+	77	verb	phrase	1	12	match	beaucoup	5	1	p	1.3138000000000003
737.7403	0.0	BEAUCOUP	77	verb	phrase	1	13	match	beaucoup	5	1	p	1.3138000000000003
739.1058	0.0	+	77	verb	phrase	1	14	match	beaucoup	5	1	p	1.3138000000000003
739.0541000000001	0.0	[response]	77	verb	phrase	1	15	match	beaucoup	5	1	p	1.3138000000000003
740.1387000000001	0.0	+	78	verb	list	2	1	nomatch	plonger	-1	1	y	0.97587
740.6884	0.2	cmrwnv	78	verb	list	2	2	nomatch	plonger	-1	1	y	0.97587
740.8883000000001	0.0	+	78	verb	list	2	3	nomatch	plonger	-1	1	y	0.97587
741.2882000000001	0.2	qlzg	78	verb	list	2	4	nomatch	plonger	-1	1	y	0.97587
741.4881	0.0	+	78	verb	list	2	5	nomatch	plonger	-1	1	y	0.97587
741.8886	0.2	vfcg	78	verb	list	2	6	nomatch	plonger	-1	1	y	0.97587
742.0882	0.0	+	78	verb	list	2	7	nomatch	plonger	-1	1	y	0.97587
742.4876	0.2	jongler	78	verb	list	2	8	nomatch	plonger	-1	1	y	0.97587
742.6875	0.0	+	78	verb	list	2	9	nomatch	plonger	-1	1	y	0.97587
743.0874	0.2	bleu	78	verb	list	2	10	nomatch	plonger	-1	1	y	0.97587
743.2873000000001	0.0	+	78	verb	list	2	11	nomatch	plonger	-1	1	y	0.97587
743.6871	0.0	+	78	verb	list	2	12	nomatch	plonger	-1	1	y	0.97587
745.6862	0.0	PLONGER	78	verb	list	2	13	nomatch	plonger	-1	1	y	0.97587
746.7191	0.0	+	78	verb	list	2	14	nomatch	plonger	-1	1	y	0.97587
746.6621	0.0	[response]	78	verb	list	2	15	nomatch	plonger	-1	1	y	0.97587
748.0851	0.0	+	79	verb	list	4	1	nomatch	mon	-1	0	TIMEOUT	-1.0
748.6349	0.2	pvlcbnz	79	verb	list	4	2	nomatch	mon	-1	0	TIMEOUT	-1.0
748.8348000000001	0.0	+	79	verb	list	4	3	nomatch	mon	-1	0	TIMEOUT	-1.0
749.2346	0.2	yves	79	verb	list	4	4	nomatch	mon	-1	0	TIMEOUT	-1.0
749.4345000000001	0.0	+	79	verb	list	4	5	nomatch	mon	-1	0	TIMEOUT	-1.0
749.8343	0.2	leur	79	verb	list	4	6	nomatch	mon	-1	0	TIMEOUT	-1.0
750.0342	0.0	+	79	verb	list	4	7	nomatch	mon	-1	0	TIMEOUT	-1.0
750.4341000000001	0.2	parader	79	verb	list	4	8	nomatch	mon	-1	0	TIMEOUT	-1.0
750.634	0.0	+	79	verb	list	4	9	nomatch	mon	-1	0	TIMEOUT	-1.0
751.0341000000001	0.2	rouge	79	verb	list	4	10	nomatch	mon	-1	0	TIMEOUT	-1.0
751.2344	0.0	+	79	verb	list	4	11	nomatch	mon	-1	0	TIMEOUT	-1.0
751.6337000000001	0.0	+	79	verb	list	4	12	nomatch	mon	-1	0	TIMEOUT	-1.0
753.6493	0.0	MON	79	verb	list	4	13	nomatch	mon	-1	0	TIMEOUT	-1.0
756.0486000000001	0.0	+	80	verb	list	2	1	match	nouveau	4	1	p	0.6324700000000001
756.6479	0.2	gjf	80	verb	list	2	2	match	nouveau	4	1	p	0.6324700000000001
756.8478	0.0	+	80	verb	list	2	3	match	nouveau	4	1	p	0.6324700000000001
757.2477	0.2	fwdp	80	verb	list	2	4	match	nouveau	4	1	p	0.6324700000000001
757.4476000000001	0.0	+	80	verb	list	2	5	match	nouveau	4	1	p	0.6324700000000001
757.8474	0.2	xnhd	80	verb	list	2	6	match	nouveau	4	1	p	0.6324700000000001
758.0473000000001	0.0	+	80	verb	list	2	7	match	nouveau	4	1	p	0.6324700000000001
758.4471000000001	0.2	nouveau	80	verb	list	2	8	match	nouveau	4	1	p	0.6324700000000001
758.647	0.0	+	80	verb	list	2	9	match	nouveau	4	1	p	0.6324700000000001
759.0469	0.2	patiner	80	verb	list	2	10	match	nouveau	4	1	p	0.6324700000000001
759.2468	0.0	+	80	verb	list	2	11	match	nouveau	4	1	p	0.6324700000000001
759.6472	0.0	+	80	verb	list	2	12	match	nouveau	4	1	p	0.6324700000000001
761.6457	0.0	NOUVEAU	80	verb	list	2	13	match	nouveau	4	1	p	0.6324700000000001
762.3454	0.0	+	80	verb	list	2	14	match	nouveau	4	1	p	0.6324700000000001
764.0446000000001	0.0	+	80	verb	list	2	15	match	nouveau	4	1	p	0.6324700000000001
765.0108	0.0	+	80	verb	list	2	16	match	nouveau	4	1	p	0.6324700000000001
765.1108	0.0	+	80	verb	list	2	17	match	nouveau	4	1	p	0.6324700000000001
766.5102	0.0	+	80	verb	list	2	18	match	nouveau	4	1	p	0.6324700000000001
766.6101	0.0	+	80	verb	list	2	19	match	nouveau	4	1	p	0.6324700000000001
768.0095	0.0	+	80	verb	list	2	20	match	nouveau	4	1	p	0.6324700000000001
768.1094	0.0	+	80	verb	list	2	21	match	nouveau	4	1	p	0.6324700000000001
769.5088000000001	0.0	+	80	verb	list	2	22	match	nouveau	4	1	p	0.6324700000000001
769.6088000000001	0.0	+	80	verb	list	2	23	match	nouveau	4	1	p	0.6324700000000001
771.0081	0.0	+	80	verb	list	2	24	match	nouveau	4	1	p	0.6324700000000001
771.1081	0.0	+	80	verb	list	2	25	match	nouveau	4	1	p	0.6324700000000001
772.5075	0.0	+	80	verb	list	2	26	match	nouveau	4	1	p	0.6324700000000001
772.6074	0.0	+	80	verb	list	2	27	match	nouveau	4	1	p	0.6324700000000001
774.0068	0.0	+	80	verb	list	2	28	match	nouveau	4	1	p	0.6324700000000001
774.1067	0.0	+	80	verb	list	2	29	match	nouveau	4	1	p	0.6324700000000001
775.5062	0.0	+	80	verb	list	2	30	match	nouveau	4	1	p	0.6324700000000001
775.6061000000001	0.0	+	80	verb	list	2	31	match	nouveau	4	1	p	0.6324700000000001
777.0054	0.0	+	80	verb	list	2	32	match	nouveau	4	1	p	0.6324700000000001
777.1054	0.0	+	80	verb	list	2	33	match	nouveau	4	1	p	0.6324700000000001
778.5048	0.0	+	80	verb	list	2	34	match	nouveau	4	1	p	0.6324700000000001
778.6047	0.0	+	80	verb	list	2	35	match	nouveau	4	1	p	0.6324700000000001
781.1036	0.0	+	80	verb	list	2	36	match	nouveau	4	1	p	0.6324700000000001
762.2782000000001	0.0	[response]	80	verb	list	2	37	match	nouveau	4	1	p	0.6324700000000001
