onset	duration	stim	trial_number	trial_type	trial_structure	trial_length	sequential_position	probe_type	probe	probe_position	response_correct	response_key	response_time
0.054000000000002046	0.0	+	1	noun	list	3	1	nomatch	rouler	-1	1	y	1.1661
0.5371000000000024	0.2	nxdztrp	1	noun	list	3	2	nomatch	rouler	-1	1	y	1.1661
0.7370000000000019	0.0	+	1	noun	list	3	3	nomatch	rouler	-1	1	y	1.1661
1.136800000000001	0.2	tjxp	1	noun	list	3	4	nomatch	rouler	-1	1	y	1.1661
1.3367000000000004	0.0	+	1	noun	list	3	5	nomatch	rouler	-1	1	y	1.1661
1.7366000000000028	0.2	son	1	noun	list	3	6	nomatch	rouler	-1	1	y	1.1661
1.9365000000000023	0.0	+	1	noun	list	3	7	nomatch	rouler	-1	1	y	1.1661
2.3363000000000014	0.2	beaucoup	1	noun	list	3	8	nomatch	rouler	-1	1	y	1.1661
2.536200000000001	0.0	+	1	noun	list	3	9	nomatch	rouler	-1	1	y	1.1661
2.936	0.2	boîtier	1	noun	list	3	10	nomatch	rouler	-1	1	y	1.1661
3.1359000000000066	0.0	+	1	noun	list	3	11	nomatch	rouler	-1	1	y	1.1661
3.5357000000000056	0.0	+	1	noun	list	3	12	nomatch	rouler	-1	1	y	1.1661
5.5349	0.0	ROULER	1	noun	list	3	13	nomatch	rouler	-1	1	y	1.1661
6.767600000000009	0.0	+	1	noun	list	3	14	nomatch	rouler	-1	1	y	1.1661
6.7010000000000005	0.0	[response]	1	noun	list	3	15	nomatch	rouler	-1	1	y	1.1661
7.933799999999998	0.0	+	2	verb	phrase	3	1	match	loin	5	1	p	0.7066
8.483700000000006	0.2	vnb	2	verb	phrase	3	2	match	loin	5	1	p	0.7066
8.700099999999999	0.0	+	2	verb	phrase	3	3	match	loin	5	1	p	0.7066
9.099899999999998	0.2	ckfr	2	verb	phrase	3	4	match	loin	5	1	p	0.7066
9.299799999999998	0.0	+	2	verb	phrase	3	5	match	loin	5	1	p	0.7066
9.699599999999997	0.2	va	2	verb	phrase	3	6	match	loin	5	1	p	0.7066
9.8996	0.0	+	2	verb	phrase	3	7	match	loin	5	1	p	0.7066
10.299399999999999	0.2	patiner	2	verb	phrase	3	8	match	loin	5	1	p	0.7066
10.499299999999998	0.0	+	2	verb	phrase	3	9	match	loin	5	1	p	0.7066
10.899700000000003	0.2	loin	2	verb	phrase	3	10	match	loin	5	1	p	0.7066
11.099600000000002	0.0	+	2	verb	phrase	3	11	match	loin	5	1	p	0.7066
11.49880000000001	0.0	+	2	verb	phrase	3	12	match	loin	5	1	p	0.7066
13.497900000000008	0.0	LOIN	2	verb	phrase	3	13	match	loin	5	1	p	0.7066
14.264299999999999	0.0	+	2	verb	phrase	3	14	match	loin	5	1	p	0.7066
14.204500000000003	0.0	[response]	2	verb	phrase	3	15	match	loin	5	1	p	0.7066
15.89690000000001	0.0	+	3	noun	phrase	3	1	nomatch	rocher	-1	1	y	0.98176
16.446599999999997	0.2	knbm	3	noun	phrase	3	2	nomatch	rocher	-1	1	y	0.98176
16.646800000000006	0.0	+	3	noun	phrase	3	3	nomatch	rocher	-1	1	y	0.98176
17.04630000000001	0.2	lbvx	3	noun	phrase	3	4	nomatch	rocher	-1	1	y	0.98176
17.263600000000004	0.0	+	3	noun	phrase	3	5	nomatch	rocher	-1	1	y	0.98176
17.6462	0.2	mon	3	noun	phrase	3	6	nomatch	rocher	-1	1	y	0.98176
17.845999999999997	0.0	+	3	noun	phrase	3	7	nomatch	rocher	-1	1	y	0.98176
18.24580000000001	0.2	casier	3	noun	phrase	3	8	nomatch	rocher	-1	1	y	0.98176
18.44570000000001	0.0	+	3	noun	phrase	3	9	nomatch	rocher	-1	1	y	0.98176
18.84550000000001	0.2	noir	3	noun	phrase	3	10	nomatch	rocher	-1	1	y	0.98176
19.045400000000008	0.0	+	3	noun	phrase	3	11	nomatch	rocher	-1	1	y	0.98176
19.44530000000001	0.0	+	3	noun	phrase	3	12	nomatch	rocher	-1	1	y	0.98176
21.44440000000001	0.0	ROCHER	3	noun	phrase	3	13	nomatch	rocher	-1	1	y	0.98176
22.493900000000004	0.0	+	3	noun	phrase	3	14	nomatch	rocher	-1	1	y	0.98176
22.426099999999998	0.0	[response]	3	noun	phrase	3	15	nomatch	rocher	-1	1	y	0.98176
23.843300000000006	0.0	+	4	verb	list	1	1	match	rouler	5	1	p	0.71285
24.393000000000008	0.2	xcztfd	4	verb	list	1	2	match	rouler	5	1	p	0.71285
24.592900000000007	0.0	+	4	verb	list	1	3	match	rouler	5	1	p	0.71285
25.00990000000001	0.2	cqgv	4	verb	list	1	4	match	rouler	5	1	p	0.71285
25.19270000000001	0.0	+	4	verb	list	1	5	match	rouler	5	1	p	0.71285
25.59250000000001	0.2	qcpb	4	verb	list	1	6	match	rouler	5	1	p	0.71285
25.792400000000008	0.0	+	4	verb	list	1	7	match	rouler	5	1	p	0.71285
26.192500000000003	0.2	hfkgq	4	verb	list	1	8	match	rouler	5	1	p	0.71285
26.392100000000006	0.0	+	4	verb	list	1	9	match	rouler	5	1	p	0.71285
26.79200000000001	0.2	rouler	4	verb	list	1	10	match	rouler	5	1	p	0.71285
26.991900000000008	0.0	+	4	verb	list	1	11	match	rouler	5	1	p	0.71285
27.391700000000007	0.0	+	4	verb	list	1	12	match	rouler	5	1	p	0.71285
29.390800000000006	0.0	ROULER	4	verb	list	1	13	match	rouler	5	1	p	0.71285
30.157100000000007	0.0	+	4	verb	list	1	14	match	rouler	5	1	p	0.71285
30.103600000000007	0.0	[response]	4	verb	list	1	15	match	rouler	5	1	p	0.71285
31.789700000000003	0.0	+	5	noun	phrase	2	1	nomatch	beau	-1	1	y	0.71828
32.33950000000001	0.2	whjgt	5	noun	phrase	2	2	nomatch	beau	-1	1	y	0.71828
32.53940000000001	0.0	+	5	noun	phrase	2	3	nomatch	beau	-1	1	y	0.71828
32.93920000000001	0.2	fwdp	5	noun	phrase	2	4	nomatch	beau	-1	1	y	0.71828
33.139100000000006	0.0	+	5	noun	phrase	2	5	nomatch	beau	-1	1	y	0.71828
33.538900000000005	0.2	rfc	5	noun	phrase	2	6	nomatch	beau	-1	1	y	0.71828
33.738800000000005	0.0	+	5	noun	phrase	2	7	nomatch	beau	-1	1	y	0.71828
34.15590000000001	0.2	petit	5	noun	phrase	2	8	nomatch	beau	-1	1	y	0.71828
34.35580000000001	0.0	+	5	noun	phrase	2	9	nomatch	beau	-1	1	y	0.71828
34.738400000000006	0.2	clavier	5	noun	phrase	2	10	nomatch	beau	-1	1	y	0.71828
34.938300000000005	0.0	+	5	noun	phrase	2	11	nomatch	beau	-1	1	y	0.71828
35.338100000000004	0.0	+	5	noun	phrase	2	12	nomatch	beau	-1	1	y	0.71828
37.3372	0.0	BEAU	5	noun	phrase	2	13	nomatch	beau	-1	1	y	0.71828
38.12080000000001	0.0	+	5	noun	phrase	2	14	nomatch	beau	-1	1	y	0.71828
38.0555	0.0	[response]	5	noun	phrase	2	15	nomatch	beau	-1	1	y	0.71828
39.7361	0.0	+	6	verb	phrase	4	1	match	adam	2	0	y	0.9929
40.303000000000004	0.2	gkmt	6	verb	phrase	4	2	match	adam	2	0	y	0.9929
40.48630000000001	0.0	+	6	verb	phrase	4	3	match	adam	2	0	y	0.9929
40.886100000000006	0.2	adam	6	verb	phrase	4	4	match	adam	2	0	y	0.9929
41.1026	0.0	+	6	verb	phrase	4	5	match	adam	2	0	y	0.9929
41.4853	0.2	doit	6	verb	phrase	4	6	match	adam	2	0	y	0.9929
41.685300000000005	0.0	+	6	verb	phrase	4	7	match	adam	2	0	y	0.9929
42.085100000000004	0.2	mieux	6	verb	phrase	4	8	match	adam	2	0	y	0.9929
42.285000000000004	0.0	+	6	verb	phrase	4	9	match	adam	2	0	y	0.9929
42.6848	0.2	voyager	6	verb	phrase	4	10	match	adam	2	0	y	0.9929
42.8847	0.0	+	6	verb	phrase	4	11	match	adam	2	0	y	0.9929
43.2845	0.0	+	6	verb	phrase	4	12	match	adam	2	0	y	0.9929
45.28390000000001	0.0	ADAM	6	verb	phrase	4	13	match	adam	2	0	y	0.9929
46.38320000000001	0.0	+	6	verb	phrase	4	14	match	adam	2	0	y	0.9929
46.2768	0.0	[response]	6	verb	phrase	4	15	match	adam	2	0	y	0.9929
47.6992	0.0	+	7	noun	phrase	4	1	match	leur	3	1	p	0.80458
48.249	0.2	xdtbgn	7	noun	phrase	4	2	match	leur	3	1	p	0.80458
48.4489	0.0	+	7	noun	phrase	4	3	match	leur	3	1	p	0.80458
48.8487	0.2	pour	7	noun	phrase	4	4	match	leur	3	1	p	0.80458
49.0486	0.0	+	7	noun	phrase	4	5	match	leur	3	1	p	0.80458
49.4484	0.2	leur	7	noun	phrase	4	6	match	leur	3	1	p	0.80458
49.6483	0.0	+	7	noun	phrase	4	7	match	leur	3	1	p	0.80458
50.0482	0.2	petit	7	noun	phrase	4	8	match	leur	3	1	p	0.80458
50.2486	0.0	+	7	noun	phrase	4	9	match	leur	3	1	p	0.80458
50.6479	0.2	tablier	7	noun	phrase	4	10	match	leur	3	1	p	0.80458
50.8478	0.0	+	7	noun	phrase	4	11	match	leur	3	1	p	0.80458
51.2476	0.0	+	7	noun	phrase	4	12	match	leur	3	1	p	0.80458
53.2467	0.0	LEUR	7	noun	phrase	4	13	match	leur	3	1	p	0.80458
54.11300000000001	0.0	+	7	noun	phrase	4	14	match	leur	3	1	p	0.80458
54.051300000000005	0.0	[response]	7	noun	phrase	4	15	match	leur	3	1	p	0.80458
55.6457	0.0	+	8	noun	list	1	1	match	panier	5	1	p	0.91335
56.1954	0.2	drfcbpl	8	noun	list	1	2	match	panier	5	1	p	0.91335
56.3953	0.0	+	8	noun	list	1	3	match	panier	5	1	p	0.91335
56.7951	0.2	sqxk	8	noun	list	1	4	match	panier	5	1	p	0.91335
56.995	0.0	+	8	noun	list	1	5	match	panier	5	1	p	0.91335
57.3948	0.2	tqd	8	noun	list	1	6	match	panier	5	1	p	0.91335
57.5948	0.0	+	8	noun	list	1	7	match	panier	5	1	p	0.91335
57.9946	0.2	kvxz	8	noun	list	1	8	match	panier	5	1	p	0.91335
58.1945	0.0	+	8	noun	list	1	9	match	panier	5	1	p	0.91335
58.5943	0.2	panier	8	noun	list	1	10	match	panier	5	1	p	0.91335
58.7942	0.0	+	8	noun	list	1	11	match	panier	5	1	p	0.91335
59.19400000000001	0.0	+	8	noun	list	1	12	match	panier	5	1	p	0.91335
61.19310000000001	0.0	PANIER	8	noun	list	1	13	match	panier	5	1	p	0.91335
62.17600000000001	0.0	+	8	noun	list	1	14	match	panier	5	1	p	0.91335
62.106500000000004	0.0	[response]	8	noun	list	1	15	match	panier	5	1	p	0.91335
63.59210000000001	0.0	+	9	noun	list	3	1	nomatch	mieux	-1	1	y	1.1146000000000003
64.14179999999999	0.2	vbfhlr	9	noun	list	3	2	nomatch	mieux	-1	1	y	1.1146000000000003
64.3417	0.0	+	9	noun	list	3	3	nomatch	mieux	-1	1	y	1.1146000000000003
64.7415	0.2	lbvx	9	noun	list	3	4	nomatch	mieux	-1	1	y	1.1146000000000003
64.9419	0.0	+	9	noun	list	3	5	nomatch	mieux	-1	1	y	1.1146000000000003
65.34190000000001	0.2	doit	9	noun	list	3	6	nomatch	mieux	-1	1	y	1.1146000000000003
65.54169999999999	0.0	+	9	noun	list	3	7	nomatch	mieux	-1	1	y	1.1146000000000003
65.9411	0.2	boîtier	9	noun	list	3	8	nomatch	mieux	-1	1	y	1.1146000000000003
66.14090000000002	0.0	+	9	noun	list	3	9	nomatch	mieux	-1	1	y	1.1146000000000003
66.54070000000002	0.2	ainsi	9	noun	list	3	10	nomatch	mieux	-1	1	y	1.1146000000000003
66.7407	0.0	+	9	noun	list	3	11	nomatch	mieux	-1	1	y	1.1146000000000003
67.1405	0.0	+	9	noun	list	3	12	nomatch	mieux	-1	1	y	1.1146000000000003
69.1396	0.0	MIEUX	9	noun	list	3	13	nomatch	mieux	-1	1	y	1.1146000000000003
70.3057	0.0	+	9	noun	list	3	14	nomatch	mieux	-1	1	y	1.1146000000000003
70.2542	0.0	[response]	9	noun	list	3	15	nomatch	mieux	-1	1	y	1.1146000000000003
71.5385	0.0	+	10	noun	phrase	2	1	match	noir	5	1	p	0.84353
72.0889	0.2	gdhfbkp	10	noun	phrase	2	2	match	noir	5	1	p	0.84353
72.2887	0.0	+	10	noun	phrase	2	3	match	noir	5	1	p	0.84353
72.68799999999999	0.2	wpc	10	noun	phrase	2	4	match	noir	5	1	p	0.84353
72.8879	0.0	+	10	noun	phrase	2	5	match	noir	5	1	p	0.84353
73.2877	0.2	rfc	10	noun	phrase	2	6	match	noir	5	1	p	0.84353
73.48759999999999	0.0	+	10	noun	phrase	2	7	match	noir	5	1	p	0.84353
73.88739999999999	0.2	rocher	10	noun	phrase	2	8	match	noir	5	1	p	0.84353
74.0873	0.0	+	10	noun	phrase	2	9	match	noir	5	1	p	0.84353
74.4872	0.2	noir	10	noun	phrase	2	10	match	noir	5	1	p	0.84353
74.68709999999999	0.0	+	10	noun	phrase	2	11	match	noir	5	1	p	0.84353
75.08689999999999	0.0	+	10	noun	phrase	2	12	match	noir	5	1	p	0.84353
77.08619999999999	0.0	NOIR	10	noun	phrase	2	13	match	noir	5	1	p	0.84353
77.9856	0.0	+	10	noun	phrase	2	14	match	noir	5	1	p	0.84353
77.9297	0.0	[response]	10	noun	phrase	2	15	match	noir	5	1	p	0.84353
79.48490000000001	0.0	+	11	noun	phrase	1	1	nomatch	beaucoup	-1	1	y	0.9996800000000001
80.03469999999999	0.2	ntrxcv	11	noun	phrase	1	2	nomatch	beaucoup	-1	1	y	0.9996800000000001
80.2346	0.0	+	11	noun	phrase	1	3	nomatch	beaucoup	-1	1	y	0.9996800000000001
80.6344	0.2	zbvr	11	noun	phrase	1	4	nomatch	beaucoup	-1	1	y	0.9996800000000001
80.83429999999998	0.0	+	11	noun	phrase	1	5	nomatch	beaucoup	-1	1	y	0.9996800000000001
81.23419999999999	0.2	tqd	11	noun	phrase	1	6	nomatch	beaucoup	-1	1	y	0.9996800000000001
81.43439999999998	0.0	+	11	noun	phrase	1	7	nomatch	beaucoup	-1	1	y	0.9996800000000001
81.83439999999999	0.2	zqwxd	11	noun	phrase	1	8	nomatch	beaucoup	-1	1	y	0.9996800000000001
82.03389999999999	0.0	+	11	noun	phrase	1	9	nomatch	beaucoup	-1	1	y	0.9996800000000001
82.4341	0.2	boîtier	11	noun	phrase	1	10	nomatch	beaucoup	-1	1	y	0.9996800000000001
82.6336	0.0	+	11	noun	phrase	1	11	nomatch	beaucoup	-1	1	y	0.9996800000000001
83.04999999999998	0.0	+	11	noun	phrase	1	12	nomatch	beaucoup	-1	1	y	0.9996800000000001
85.04910000000001	0.0	BEAUCOUP	11	noun	phrase	1	13	nomatch	beaucoup	-1	1	y	0.9996800000000001
86.11529999999999	0.0	+	11	noun	phrase	1	14	nomatch	beaucoup	-1	1	y	0.9996800000000001
86.04880000000003	0.0	[response]	11	noun	phrase	1	15	nomatch	beaucoup	-1	1	y	0.9996800000000001
87.44800000000001	0.0	+	12	noun	phrase	3	1	nomatch	jongler	-1	1	y	0.68506
87.99779999999998	0.2	npvtkh	12	noun	phrase	3	2	nomatch	jongler	-1	1	y	0.68506
88.1977	0.0	+	12	noun	phrase	3	3	nomatch	jongler	-1	1	y	0.68506
88.5975	0.2	cqgv	12	noun	phrase	3	4	nomatch	jongler	-1	1	y	0.68506
88.79740000000001	0.0	+	12	noun	phrase	3	5	nomatch	jongler	-1	1	y	0.68506
89.19720000000001	0.2	son	12	noun	phrase	3	6	nomatch	jongler	-1	1	y	0.68506
89.3971	0.0	+	12	noun	phrase	3	7	nomatch	jongler	-1	1	y	0.68506
89.797	0.2	grand	12	noun	phrase	3	8	nomatch	jongler	-1	1	y	0.68506
89.99689999999998	0.0	+	12	noun	phrase	3	9	nomatch	jongler	-1	1	y	0.68506
90.39670000000001	0.2	rocher	12	noun	phrase	3	10	nomatch	jongler	-1	1	y	0.68506
90.5966	0.0	+	12	noun	phrase	3	11	nomatch	jongler	-1	1	y	0.68506
90.9965	0.0	+	12	noun	phrase	3	12	nomatch	jongler	-1	1	y	0.68506
92.99549999999999	0.0	JONGLER	12	noun	phrase	3	13	nomatch	jongler	-1	1	y	0.68506
93.74519999999998	0.0	+	12	noun	phrase	3	14	nomatch	jongler	-1	1	y	0.68506
93.6806	0.0	[response]	12	noun	phrase	3	15	nomatch	jongler	-1	1	y	0.68506
95.39439999999999	0.0	+	13	noun	phrase	4	1	nomatch	panier	-1	1	y	0.84424
95.9442	0.2	cdv	13	noun	phrase	4	2	nomatch	panier	-1	1	y	0.84424
96.14410000000001	0.0	+	13	noun	phrase	4	3	nomatch	panier	-1	1	y	0.84424
96.54390000000001	0.2	sous	13	noun	phrase	4	4	nomatch	panier	-1	1	y	0.84424
96.7438	0.0	+	13	noun	phrase	4	5	nomatch	panier	-1	1	y	0.84424
97.14359999999999	0.2	mon	13	noun	phrase	4	6	nomatch	panier	-1	1	y	0.84424
97.3435	0.0	+	13	noun	phrase	4	7	nomatch	panier	-1	1	y	0.84424
97.74340000000001	0.2	tablier	13	noun	phrase	4	8	nomatch	panier	-1	1	y	0.84424
97.9433	0.0	+	13	noun	phrase	4	9	nomatch	panier	-1	1	y	0.84424
98.3434	0.2	rouge	13	noun	phrase	4	10	nomatch	panier	-1	1	y	0.84424
98.543	0.0	+	13	noun	phrase	4	11	nomatch	panier	-1	1	y	0.84424
98.9428	0.0	+	13	noun	phrase	4	12	nomatch	panier	-1	1	y	0.84424
100.9419	0.0	PANIER	13	noun	phrase	4	13	nomatch	panier	-1	1	y	0.84424
101.8415	0.0	+	13	noun	phrase	4	14	nomatch	panier	-1	1	y	0.84424
101.78620000000001	0.0	[response]	13	noun	phrase	4	15	nomatch	panier	-1	1	y	0.84424
111.3879	0.0	+	14	noun	list	3	1	match	sablier	4	1	p	0.74879
111.8871	0.2	shvpwg	14	noun	list	3	2	match	sablier	4	1	p	0.74879
112.0874	0.0	+	14	noun	list	3	3	match	sablier	4	1	p	0.74879
112.4873	0.2	zbvr	14	noun	list	3	4	match	sablier	4	1	p	0.74879
112.6866	0.0	+	14	noun	list	3	5	match	sablier	4	1	p	0.74879
113.0865	0.2	doit	14	noun	list	3	6	match	sablier	4	1	p	0.74879
113.28639999999999	0.0	+	14	noun	list	3	7	match	sablier	4	1	p	0.74879
113.68619999999999	0.2	sablier	14	noun	list	3	8	match	sablier	4	1	p	0.74879
113.8861	0.0	+	14	noun	list	3	9	match	sablier	4	1	p	0.74879
114.2859	0.2	loin	14	noun	list	3	10	match	sablier	4	1	p	0.74879
114.48579999999998	0.0	+	14	noun	list	3	11	match	sablier	4	1	p	0.74879
114.88569999999999	0.0	+	14	noun	list	3	12	match	sablier	4	1	p	0.74879
116.8852	0.0	SABLIER	14	noun	list	3	13	match	sablier	4	1	p	0.74879
117.7011	0.0	+	14	noun	list	3	14	match	sablier	4	1	p	0.74879
117.63399999999999	0.0	[response]	14	noun	list	3	15	match	sablier	4	1	p	0.74879
119.28370000000001	0.0	+	15	verb	list	1	1	nomatch	grand	-1	1	y	0.76816
119.8501	0.2	dmsfnx	15	verb	list	1	2	nomatch	grand	-1	1	y	0.76816
120.04999999999998	0.0	+	15	verb	list	1	3	nomatch	grand	-1	1	y	0.76816
120.44980000000001	0.2	wpc	15	verb	list	1	4	nomatch	grand	-1	1	y	0.76816
120.6497	0.0	+	15	verb	list	1	5	nomatch	grand	-1	1	y	0.76816
121.0495	0.2	pv	15	verb	list	1	6	nomatch	grand	-1	1	y	0.76816
121.24949999999998	0.0	+	15	verb	list	1	7	nomatch	grand	-1	1	y	0.76816
121.64929999999998	0.2	gjcdqmt	15	verb	list	1	8	nomatch	grand	-1	1	y	0.76816
121.8492	0.0	+	15	verb	list	1	9	nomatch	grand	-1	1	y	0.76816
122.249	0.2	beau	15	verb	list	1	10	nomatch	grand	-1	1	y	0.76816
122.46619999999999	0.0	+	15	verb	list	1	11	nomatch	grand	-1	1	y	0.76816
122.84870000000001	0.0	+	15	verb	list	1	12	nomatch	grand	-1	1	y	0.76816
124.8478	0.0	GRAND	15	verb	list	1	13	nomatch	grand	-1	1	y	0.76816
125.6808	0.0	+	15	verb	list	1	14	nomatch	grand	-1	1	y	0.76816
125.61600000000001	0.0	[response]	15	verb	list	1	15	nomatch	grand	-1	1	y	0.76816
127.24680000000001	0.0	+	16	noun	list	1	1	match	vite	5	1	p	0.8512800000000001
127.79650000000001	0.2	tqzxkb	16	noun	list	1	2	match	vite	5	1	p	0.8512800000000001
127.9964	0.0	+	16	noun	list	1	3	match	vite	5	1	p	0.8512800000000001
128.3962	0.2	fwdp	16	noun	list	1	4	match	vite	5	1	p	0.8512800000000001
128.5962	0.0	+	16	noun	list	1	5	match	vite	5	1	p	0.8512800000000001
128.996	0.2	xnhd	16	noun	list	1	6	match	vite	5	1	p	0.8512800000000001
129.1959	0.0	+	16	noun	list	1	7	match	vite	5	1	p	0.8512800000000001
129.5957	0.2	nxcgbhw	16	noun	list	1	8	match	vite	5	1	p	0.8512800000000001
129.7956	0.0	+	16	noun	list	1	9	match	vite	5	1	p	0.8512800000000001
130.1954	0.2	vite	16	noun	list	1	10	match	vite	5	1	p	0.8512800000000001
130.3954	0.0	+	16	noun	list	1	11	match	vite	5	1	p	0.8512800000000001
130.7959	0.0	+	16	noun	list	1	12	match	vite	5	1	p	0.8512800000000001
132.7943	0.0	VITE	16	noun	list	1	13	match	vite	5	1	p	0.8512800000000001
133.7105	0.0	+	16	noun	list	1	14	match	vite	5	1	p	0.8512800000000001
133.6456	0.0	[response]	16	noun	list	1	15	match	vite	5	1	p	0.8512800000000001
135.1932	0.0	+	17	noun	list	1	1	match	panier	5	1	p	0.85076
135.7429	0.2	sfrnj	17	noun	list	1	2	match	panier	5	1	p	0.85076
135.9429	0.0	+	17	noun	list	1	3	match	panier	5	1	p	0.85076
136.3427	0.2	wpc	17	noun	list	1	4	match	panier	5	1	p	0.85076
136.5426	0.0	+	17	noun	list	1	5	match	panier	5	1	p	0.85076
136.9427	0.2	qcpb	17	noun	list	1	6	match	panier	5	1	p	0.85076
137.1431	0.0	+	17	noun	list	1	7	match	panier	5	1	p	0.85076
137.5421	0.2	qghj	17	noun	list	1	8	match	panier	5	1	p	0.85076
137.742	0.0	+	17	noun	list	1	9	match	panier	5	1	p	0.85076
138.1419	0.2	panier	17	noun	list	1	10	match	panier	5	1	p	0.85076
138.3418	0.0	+	17	noun	list	1	11	match	panier	5	1	p	0.85076
138.7416	0.0	+	17	noun	list	1	12	match	panier	5	1	p	0.85076
140.7407	0.0	PANIER	17	noun	list	1	13	match	panier	5	1	p	0.85076
141.6569	0.0	+	17	noun	list	1	14	match	panier	5	1	p	0.85076
141.5915	0.0	[response]	17	noun	list	1	15	match	panier	5	1	p	0.85076
143.1396	0.0	+	18	verb	phrase	3	1	match	nager	5	1	p	0.81892
143.6894	0.2	tqzvrp	18	verb	phrase	3	2	match	nager	5	1	p	0.81892
143.8893	0.0	+	18	verb	phrase	3	3	match	nager	5	1	p	0.81892
144.2891	0.2	tjxp	18	verb	phrase	3	4	match	nager	5	1	p	0.81892
144.489	0.0	+	18	verb	phrase	3	5	match	nager	5	1	p	0.81892
144.8888	0.2	peut	18	verb	phrase	3	6	match	nager	5	1	p	0.81892
145.0887	0.0	+	18	verb	phrase	3	7	match	nager	5	1	p	0.81892
145.4886	0.2	trop	18	verb	phrase	3	8	match	nager	5	1	p	0.81892
145.6885	0.0	+	18	verb	phrase	3	9	match	nager	5	1	p	0.81892
146.0883	0.2	nager	18	verb	phrase	3	10	match	nager	5	1	p	0.81892
146.28889999999998	0.0	+	18	verb	phrase	3	11	match	nager	5	1	p	0.81892
146.6881	0.0	+	18	verb	phrase	3	12	match	nager	5	1	p	0.81892
148.6871	0.0	NAGER	18	verb	phrase	3	13	match	nager	5	1	p	0.81892
149.5701	0.0	+	18	verb	phrase	3	14	match	nager	5	1	p	0.81892
149.5061	0.0	[response]	18	verb	phrase	3	15	match	nager	5	1	p	0.81892
151.08599999999998	0.0	+	19	verb	list	2	1	nomatch	loin	-1	1	y	0.77915
151.6358	0.2	blmd	19	verb	list	2	2	nomatch	loin	-1	1	y	0.77915
151.8357	0.0	+	19	verb	list	2	3	nomatch	loin	-1	1	y	0.77915
152.2355	0.2	lbvx	19	verb	list	2	4	nomatch	loin	-1	1	y	0.77915
152.4354	0.0	+	19	verb	list	2	5	nomatch	loin	-1	1	y	0.77915
152.8353	0.2	xnhd	19	verb	list	2	6	nomatch	loin	-1	1	y	0.77915
153.0356	0.0	+	19	verb	list	2	7	nomatch	loin	-1	1	y	0.77915
153.435	0.2	vieux	19	verb	list	2	8	nomatch	loin	-1	1	y	0.77915
153.63559999999998	0.0	+	19	verb	list	2	9	nomatch	loin	-1	1	y	0.77915
154.0516	0.2	voyager	19	verb	list	2	10	nomatch	loin	-1	1	y	0.77915
154.2346	0.0	+	19	verb	list	2	11	nomatch	loin	-1	1	y	0.77915
154.6344	0.0	+	19	verb	list	2	12	nomatch	loin	-1	1	y	0.77915
156.6338	0.0	LOIN	19	verb	list	2	13	nomatch	loin	-1	1	y	0.77915
157.4665	0.0	+	19	verb	list	2	14	nomatch	loin	-1	1	y	0.77915
157.41290000000004	0.0	[response]	19	verb	list	2	15	nomatch	loin	-1	1	y	0.77915
159.0491	0.0	+	20	noun	list	2	1	match	beaucoup	4	1	p	0.86051
159.5989	0.2	rgsphd	20	noun	list	2	2	match	beaucoup	4	1	p	0.86051
159.7988	0.0	+	20	noun	list	2	3	match	beaucoup	4	1	p	0.86051
160.1986	0.2	tjxp	20	noun	list	2	4	match	beaucoup	4	1	p	0.86051
160.39849999999998	0.0	+	20	noun	list	2	5	match	beaucoup	4	1	p	0.86051
160.79829999999998	0.2	tqd	20	noun	list	2	6	match	beaucoup	4	1	p	0.86051
160.9983	0.0	+	20	noun	list	2	7	match	beaucoup	4	1	p	0.86051
161.3984	0.2	beaucoup	20	noun	list	2	8	match	beaucoup	4	1	p	0.86051
161.59799999999998	0.0	+	20	noun	list	2	9	match	beaucoup	4	1	p	0.86051
161.9985	0.2	sablier	20	noun	list	2	10	match	beaucoup	4	1	p	0.86051
162.19819999999999	0.0	+	20	noun	list	2	11	match	beaucoup	4	1	p	0.86051
162.5975	0.0	+	20	noun	list	2	12	match	beaucoup	4	1	p	0.86051
164.5966	0.0	BEAUCOUP	20	noun	list	2	13	match	beaucoup	4	1	p	0.86051
165.5129	0.0	+	20	noun	list	2	14	match	beaucoup	4	1	p	0.86051
165.4571	0.0	[response]	20	noun	list	2	15	match	beaucoup	4	1	p	0.86051
166.9956	0.0	+	21	noun	list	1	1	match	ainsi	5	1	p	0.7972
167.5453	0.2	pkc	21	noun	list	1	2	match	ainsi	5	1	p	0.7972
167.74519999999998	0.0	+	21	noun	list	1	3	match	ainsi	5	1	p	0.7972
168.145	0.2	zbvr	21	noun	list	1	4	match	ainsi	5	1	p	0.7972
168.3449	0.0	+	21	noun	list	1	5	match	ainsi	5	1	p	0.7972
168.7448	0.2	xnhd	21	noun	list	1	6	match	ainsi	5	1	p	0.7972
168.96189999999999	0.0	+	21	noun	list	1	7	match	ainsi	5	1	p	0.7972
169.34449999999998	0.2	vfwspz	21	noun	list	1	8	match	ainsi	5	1	p	0.7972
169.5444	0.0	+	21	noun	list	1	9	match	ainsi	5	1	p	0.7972
169.9442	0.2	ainsi	21	noun	list	1	10	match	ainsi	5	1	p	0.7972
170.1441	0.0	+	21	noun	list	1	11	match	ainsi	5	1	p	0.7972
170.54399999999998	0.0	+	21	noun	list	1	12	match	ainsi	5	1	p	0.7972
172.5436	0.0	AINSI	21	noun	list	1	13	match	ainsi	5	1	p	0.7972
173.4263	0.0	+	21	noun	list	1	14	match	ainsi	5	1	p	0.7972
173.34080000000003	0.0	[response]	21	noun	list	1	15	match	ainsi	5	1	p	0.7972
174.942	0.0	+	22	verb	list	1	1	nomatch	parader	-1	1	y	0.77538
175.4917	0.2	qhjbw	22	verb	list	1	2	nomatch	parader	-1	1	y	0.77538
175.6916	0.0	+	22	verb	list	1	3	nomatch	parader	-1	1	y	0.77538
176.0922	0.2	wpc	22	verb	list	1	4	nomatch	parader	-1	1	y	0.77538
176.2914	0.0	+	22	verb	list	1	5	nomatch	parader	-1	1	y	0.77538
176.6919	0.2	qcpb	22	verb	list	1	6	nomatch	parader	-1	1	y	0.77538
176.8911	0.0	+	22	verb	list	1	7	nomatch	parader	-1	1	y	0.77538
177.2912	0.2	zqwxd	22	verb	list	1	8	nomatch	parader	-1	1	y	0.77538
177.4908	0.0	+	22	verb	list	1	9	nomatch	parader	-1	1	y	0.77538
177.8906	0.2	patiner	22	verb	list	1	10	nomatch	parader	-1	1	y	0.77538
178.0906	0.0	+	22	verb	list	1	11	nomatch	parader	-1	1	y	0.77538
178.4904	0.0	+	22	verb	list	1	12	nomatch	parader	-1	1	y	0.77538
180.4895	0.0	PARADER	22	verb	list	1	13	nomatch	parader	-1	1	y	0.77538
181.3225	0.0	+	22	verb	list	1	14	nomatch	parader	-1	1	y	0.77538
181.26489999999998	0.0	[response]	22	verb	list	1	15	nomatch	parader	-1	1	y	0.77538
182.8884	0.0	+	23	noun	phrase	1	1	match	sablier	5	1	p	0.66987
183.4381	0.2	djvf	23	noun	phrase	1	2	match	sablier	5	1	p	0.66987
183.6381	0.0	+	23	noun	phrase	1	3	match	sablier	5	1	p	0.66987
184.0383	0.2	cqgv	23	noun	phrase	1	4	match	sablier	5	1	p	0.66987
184.2383	0.0	+	23	noun	phrase	1	5	match	sablier	5	1	p	0.66987
184.6376	0.2	vfcg	23	noun	phrase	1	6	match	sablier	5	1	p	0.66987
184.8375	0.0	+	23	noun	phrase	1	7	match	sablier	5	1	p	0.66987
185.2373	0.2	mgcl	23	noun	phrase	1	8	match	sablier	5	1	p	0.66987
185.4373	0.0	+	23	noun	phrase	1	9	match	sablier	5	1	p	0.66987
185.8371	0.2	sablier	23	noun	phrase	1	10	match	sablier	5	1	p	0.66987
186.037	0.0	+	23	noun	phrase	1	11	match	sablier	5	1	p	0.66987
186.4368	0.0	+	23	noun	phrase	1	12	match	sablier	5	1	p	0.66987
188.4366	0.0	SABLIER	23	noun	phrase	1	13	match	sablier	5	1	p	0.66987
189.1696	0.0	+	23	noun	phrase	1	14	match	sablier	5	1	p	0.66987
189.1065	0.0	[response]	23	noun	phrase	1	15	match	sablier	5	1	p	0.66987
198.89819999999997	0.0	+	24	noun	phrase	3	1	match	mon	3	1	p	0.81953
199.3977	0.2	tnqxszw	24	noun	phrase	3	2	match	mon	3	1	p	0.81953
199.5976	0.0	+	24	noun	phrase	3	3	match	mon	3	1	p	0.81953
199.99739999999997	0.2	lbvx	24	noun	phrase	3	4	match	mon	3	1	p	0.81953
200.19729999999998	0.0	+	24	noun	phrase	3	5	match	mon	3	1	p	0.81953
200.5971	0.2	mon	24	noun	phrase	3	6	match	mon	3	1	p	0.81953
200.79699999999997	0.0	+	24	noun	phrase	3	7	match	mon	3	1	p	0.81953
201.1968	0.2	boîtier	24	noun	phrase	3	8	match	mon	3	1	p	0.81953
201.39710000000002	0.0	+	24	noun	phrase	3	9	match	mon	3	1	p	0.81953
201.7966	0.2	rouge	24	noun	phrase	3	10	match	mon	3	1	p	0.81953
201.99649999999997	0.0	+	24	noun	phrase	3	11	match	mon	3	1	p	0.81953
202.3963	0.0	+	24	noun	phrase	3	12	match	mon	3	1	p	0.81953
204.3954	0.0	MON	24	noun	phrase	3	13	match	mon	3	1	p	0.81953
205.2783	0.0	+	24	noun	phrase	3	14	match	mon	3	1	p	0.81953
205.2149	0.0	[response]	24	noun	phrase	3	15	match	mon	3	1	p	0.81953
206.79430000000002	0.0	+	25	verb	phrase	1	1	match	trop	5	1	p	0.6901500000000002
207.34409999999997	0.2	vjzr	25	verb	phrase	1	2	match	trop	5	1	p	0.6901500000000002
207.54399999999998	0.0	+	25	verb	phrase	1	3	match	trop	5	1	p	0.6901500000000002
207.9438	0.2	zrb	25	verb	phrase	1	4	match	trop	5	1	p	0.6901500000000002
208.14370000000002	0.0	+	25	verb	phrase	1	5	match	trop	5	1	p	0.6901500000000002
208.5435	0.2	qcpb	25	verb	phrase	1	6	match	trop	5	1	p	0.6901500000000002
208.7434	0.0	+	25	verb	phrase	1	7	match	trop	5	1	p	0.6901500000000002
209.1433	0.2	wmrbjtl	25	verb	phrase	1	8	match	trop	5	1	p	0.6901500000000002
209.34320000000002	0.0	+	25	verb	phrase	1	9	match	trop	5	1	p	0.6901500000000002
209.743	0.2	trop	25	verb	phrase	1	10	match	trop	5	1	p	0.6901500000000002
209.9429	0.0	+	25	verb	phrase	1	11	match	trop	5	1	p	0.6901500000000002
210.34269999999998	0.0	+	25	verb	phrase	1	12	match	trop	5	1	p	0.6901500000000002
212.34179999999998	0.0	TROP	25	verb	phrase	1	13	match	trop	5	1	p	0.6901500000000002
213.0915	0.0	+	25	verb	phrase	1	14	match	trop	5	1	p	0.6901500000000002
213.03199999999998	0.0	[response]	25	verb	phrase	1	15	match	trop	5	1	p	0.6901500000000002
214.7407	0.0	+	26	noun	list	3	1	match	mieux	4	1	p	0.91918
215.2905	0.2	cvgdq	26	noun	list	3	2	match	mieux	4	1	p	0.91918
215.49040000000002	0.0	+	26	noun	list	3	3	match	mieux	4	1	p	0.91918
215.8902	0.2	nxwc	26	noun	list	3	4	match	mieux	4	1	p	0.91918
216.0901	0.0	+	26	noun	list	3	5	match	mieux	4	1	p	0.91918
216.48989999999998	0.2	son	26	noun	list	3	6	match	mieux	4	1	p	0.91918
216.68990000000002	0.0	+	26	noun	list	3	7	match	mieux	4	1	p	0.91918
217.08979999999997	0.2	mieux	26	noun	list	3	8	match	mieux	4	1	p	0.91918
217.29000000000002	0.0	+	26	noun	list	3	9	match	mieux	4	1	p	0.91918
217.68939999999998	0.2	rocher	26	noun	list	3	10	match	mieux	4	1	p	0.91918
217.8893	0.0	+	26	noun	list	3	11	match	mieux	4	1	p	0.91918
218.28910000000002	0.0	+	26	noun	list	3	12	match	mieux	4	1	p	0.91918
220.28820000000002	0.0	MIEUX	26	noun	list	3	13	match	mieux	4	1	p	0.91918
221.2711	0.0	+	26	noun	list	3	14	match	mieux	4	1	p	0.91918
221.2074	0.0	[response]	26	noun	list	3	15	match	mieux	4	1	p	0.91918
222.68720000000002	0.0	+	27	verb	list	3	1	nomatch	peut	-1	1	y	1.2721
223.2369	0.2	hrdxf	27	verb	list	3	2	nomatch	peut	-1	1	y	1.2721
223.4368	0.0	+	27	verb	list	3	3	nomatch	peut	-1	1	y	1.2721
223.8367	0.2	ckfr	27	verb	list	3	4	nomatch	peut	-1	1	y	1.2721
224.0537	0.0	+	27	verb	list	3	5	nomatch	peut	-1	1	y	1.2721
224.4371	0.2	leur	27	verb	list	3	6	nomatch	peut	-1	1	y	1.2721
224.63689999999997	0.0	+	27	verb	list	3	7	nomatch	peut	-1	1	y	1.2721
225.03609999999998	0.2	patiner	27	verb	list	3	8	nomatch	peut	-1	1	y	1.2721
225.236	0.0	+	27	verb	list	3	9	nomatch	peut	-1	1	y	1.2721
225.63580000000002	0.2	rouge	27	verb	list	3	10	nomatch	peut	-1	1	y	1.2721
225.8358	0.0	+	27	verb	list	3	11	nomatch	peut	-1	1	y	1.2721
226.23559999999998	0.0	+	27	verb	list	3	12	nomatch	peut	-1	1	y	1.2721
228.23469999999998	0.0	PEUT	27	verb	list	3	13	nomatch	peut	-1	1	y	1.2721
229.56740000000002	0.0	+	27	verb	list	3	14	nomatch	peut	-1	1	y	1.2721
229.5068	0.0	[response]	27	verb	list	3	15	nomatch	peut	-1	1	y	1.2721
230.6336	0.0	+	28	noun	phrase	1	1	nomatch	plonger	-1	1	y	0.89864
231.2	0.2	kwpmtjq	28	noun	phrase	1	2	nomatch	plonger	-1	1	y	0.89864
231.3999	0.0	+	28	noun	phrase	1	3	nomatch	plonger	-1	1	y	0.89864
231.79969999999997	0.2	lbvx	28	noun	phrase	1	4	nomatch	plonger	-1	1	y	0.89864
231.99970000000002	0.0	+	28	noun	phrase	1	5	nomatch	plonger	-1	1	y	0.89864
232.3995	0.2	vfcg	28	noun	phrase	1	6	nomatch	plonger	-1	1	y	0.89864
232.5994	0.0	+	28	noun	phrase	1	7	nomatch	plonger	-1	1	y	0.89864
232.99919999999997	0.2	nxcgbhw	28	noun	phrase	1	8	nomatch	plonger	-1	1	y	0.89864
233.1991	0.0	+	28	noun	phrase	1	9	nomatch	plonger	-1	1	y	0.89864
233.59890000000001	0.2	petit	28	noun	phrase	1	10	nomatch	plonger	-1	1	y	0.89864
233.79930000000002	0.0	+	28	noun	phrase	1	11	nomatch	plonger	-1	1	y	0.89864
234.19869999999997	0.0	+	28	noun	phrase	1	12	nomatch	plonger	-1	1	y	0.89864
236.19779999999997	0.0	PLONGER	28	noun	phrase	1	13	nomatch	plonger	-1	1	y	0.89864
237.1809	0.0	+	28	noun	phrase	1	14	nomatch	plonger	-1	1	y	0.89864
237.09640000000002	0.0	[response]	28	noun	phrase	1	15	nomatch	plonger	-1	1	y	0.89864
238.5967	0.0	+	29	verb	list	2	1	match	nager	4	1	p	0.72297
239.14639999999997	0.2	frl	29	verb	list	2	2	match	nager	4	1	p	0.72297
239.34629999999999	0.0	+	29	verb	list	2	3	match	nager	4	1	p	0.72297
239.7461	0.2	bnmr	29	verb	list	2	4	match	nager	4	1	p	0.72297
239.9461	0.0	+	29	verb	list	2	5	match	nager	4	1	p	0.72297
240.34589999999997	0.2	rfc	29	verb	list	2	6	match	nager	4	1	p	0.72297
240.54649999999998	0.0	+	29	verb	list	2	7	match	nager	4	1	p	0.72297
240.9461	0.2	nager	29	verb	list	2	8	match	nager	4	1	p	0.72297
241.14549999999997	0.0	+	29	verb	list	2	9	match	nager	4	1	p	0.72297
241.5453	0.2	noir	29	verb	list	2	10	match	nager	4	1	p	0.72297
241.7453	0.0	+	29	verb	list	2	11	match	nager	4	1	p	0.72297
242.1451	0.0	+	29	verb	list	2	12	match	nager	4	1	p	0.72297
244.1442	0.0	NAGER	29	verb	list	2	13	match	nager	4	1	p	0.72297
244.92719999999997	0.0	+	29	verb	list	2	14	match	nager	4	1	p	0.72297
244.86719999999997	0.0	[response]	29	verb	list	2	15	match	nager	4	1	p	0.72297
246.54309999999998	0.0	+	30	noun	phrase	4	1	nomatch	parader	-1	1	y	0.77821
247.0929	0.2	vjh	30	noun	phrase	4	2	nomatch	parader	-1	1	y	0.77821
247.2928	0.0	+	30	noun	phrase	4	3	nomatch	parader	-1	1	y	0.77821
247.69259999999997	0.2	sur	30	noun	phrase	4	4	nomatch	parader	-1	1	y	0.77821
247.9094	0.0	+	30	noun	phrase	4	5	nomatch	parader	-1	1	y	0.77821
248.2923	0.2	son	30	noun	phrase	4	6	nomatch	parader	-1	1	y	0.77821
248.49219999999997	0.0	+	30	noun	phrase	4	7	nomatch	parader	-1	1	y	0.77821
248.89209999999997	0.2	grenier	30	noun	phrase	4	8	nomatch	parader	-1	1	y	0.77821
249.09199999999998	0.0	+	30	noun	phrase	4	9	nomatch	parader	-1	1	y	0.77821
249.4918	0.2	bleu	30	noun	phrase	4	10	nomatch	parader	-1	1	y	0.77821
249.69169999999997	0.0	+	30	noun	phrase	4	11	nomatch	parader	-1	1	y	0.77821
250.0915	0.0	+	30	noun	phrase	4	12	nomatch	parader	-1	1	y	0.77821
252.0906	0.0	PARADER	30	noun	phrase	4	13	nomatch	parader	-1	1	y	0.77821
252.92360000000002	0.0	+	30	noun	phrase	4	14	nomatch	parader	-1	1	y	0.77821
252.86880000000002	0.0	[response]	30	noun	phrase	4	15	nomatch	parader	-1	1	y	0.77821
254.48950000000002	0.0	+	31	noun	list	4	1	nomatch	peut	-1	1	y	0.90776
255.03929999999997	0.2	nscgxbk	31	noun	list	4	2	nomatch	peut	-1	1	y	0.90776
255.23919999999998	0.0	+	31	noun	list	4	3	nomatch	peut	-1	1	y	0.90776
255.639	0.2	luc	31	noun	list	4	4	nomatch	peut	-1	1	y	0.90776
255.83890000000002	0.0	+	31	noun	list	4	5	nomatch	peut	-1	1	y	0.90776
256.23879999999997	0.2	leur	31	noun	list	4	6	nomatch	peut	-1	1	y	0.90776
256.4389	0.0	+	31	noun	list	4	7	nomatch	peut	-1	1	y	0.90776
256.839	0.2	moins	31	noun	list	4	8	nomatch	peut	-1	1	y	0.90776
257.0384	0.0	+	31	noun	list	4	9	nomatch	peut	-1	1	y	0.90776
257.4382	0.2	clavier	31	noun	list	4	10	nomatch	peut	-1	1	y	0.90776
257.6381	0.0	+	31	noun	list	4	11	nomatch	peut	-1	1	y	0.90776
258.0379	0.0	+	31	noun	list	4	12	nomatch	peut	-1	1	y	0.90776
260.037	0.0	PEUT	31	noun	list	4	13	nomatch	peut	-1	1	y	0.90776
261.0033	0.0	+	31	noun	list	4	14	nomatch	peut	-1	1	y	0.90776
260.9448	0.0	[response]	31	noun	list	4	15	nomatch	peut	-1	1	y	0.90776
262.436	0.0	+	32	noun	phrase	1	1	nomatch	grand	-1	1	y	0.85751
262.9857	0.2	vcxmphs	32	noun	phrase	1	2	nomatch	grand	-1	1	y	0.85751
263.1856	0.0	+	32	noun	phrase	1	3	nomatch	grand	-1	1	y	0.85751
263.5854	0.2	dxvn	32	noun	phrase	1	4	nomatch	grand	-1	1	y	0.85751
263.7853	0.0	+	32	noun	phrase	1	5	nomatch	grand	-1	1	y	0.85751
264.1852	0.2	tqd	32	noun	phrase	1	6	nomatch	grand	-1	1	y	0.85751
264.3851	0.0	+	32	noun	phrase	1	7	nomatch	grand	-1	1	y	0.85751
264.7851	0.2	hsmdfnc	32	noun	phrase	1	8	nomatch	grand	-1	1	y	0.85751
264.9848	0.0	+	32	noun	phrase	1	9	nomatch	grand	-1	1	y	0.85751
265.3846	0.2	beau	32	noun	phrase	1	10	nomatch	grand	-1	1	y	0.85751
265.5845	0.0	+	32	noun	phrase	1	11	nomatch	grand	-1	1	y	0.85751
265.9844	0.0	+	32	noun	phrase	1	12	nomatch	grand	-1	1	y	0.85751
268.0001	0.0	GRAND	32	noun	phrase	1	13	nomatch	grand	-1	1	y	0.85751
268.9164	0.0	+	32	noun	phrase	1	14	nomatch	grand	-1	1	y	0.85751
268.8576	0.0	[response]	32	noun	phrase	1	15	nomatch	grand	-1	1	y	0.85751
270.399	0.0	+	33	verb	phrase	1	1	nomatch	jade	-1	1	y	1.3068
270.9488	0.2	vjl	33	verb	phrase	1	2	nomatch	jade	-1	1	y	1.3068
271.1491	0.0	+	33	verb	phrase	1	3	nomatch	jade	-1	1	y	1.3068
271.5486	0.2	ckfr	33	verb	phrase	1	4	nomatch	jade	-1	1	y	1.3068
271.7484	0.0	+	33	verb	phrase	1	5	nomatch	jade	-1	1	y	1.3068
272.1482	0.2	xnhd	33	verb	phrase	1	6	nomatch	jade	-1	1	y	1.3068
272.3482	0.0	+	33	verb	phrase	1	7	nomatch	jade	-1	1	y	1.3068
272.748	0.2	sdwnlp	33	verb	phrase	1	8	nomatch	jade	-1	1	y	1.3068
272.9479	0.0	+	33	verb	phrase	1	9	nomatch	jade	-1	1	y	1.3068
273.3477	0.2	mieux	33	verb	phrase	1	10	nomatch	jade	-1	1	y	1.3068
273.5476	0.0	+	33	verb	phrase	1	11	nomatch	jade	-1	1	y	1.3068
273.9474	0.0	+	33	verb	phrase	1	12	nomatch	jade	-1	1	y	1.3068
275.9465	0.0	JADE	33	verb	phrase	1	13	nomatch	jade	-1	1	y	1.3068
277.3126	0.0	+	33	verb	phrase	1	14	nomatch	jade	-1	1	y	1.3068
277.2533	0.0	[response]	33	verb	phrase	1	15	nomatch	jade	-1	1	y	1.3068
278.3455	0.0	+	34	noun	phrase	4	1	match	sur	2	1	p	0.98596
278.8952	0.2	tndf	34	noun	phrase	4	2	match	sur	2	1	p	0.98596
279.0951	0.0	+	34	noun	phrase	4	3	match	sur	2	1	p	0.98596
279.4949	0.2	sur	34	noun	phrase	4	4	match	sur	2	1	p	0.98596
279.6949	0.0	+	34	noun	phrase	4	5	match	sur	2	1	p	0.98596
280.0947	0.2	mon	34	noun	phrase	4	6	match	sur	2	1	p	0.98596
280.2946	0.0	+	34	noun	phrase	4	7	match	sur	2	1	p	0.98596
280.6944	0.2	grand	34	noun	phrase	4	8	match	sur	2	1	p	0.98596
280.89459999999997	0.0	+	34	noun	phrase	4	9	match	sur	2	1	p	0.98596
281.2941	0.2	rocher	34	noun	phrase	4	10	match	sur	2	1	p	0.98596
281.4941	0.0	+	34	noun	phrase	4	11	match	sur	2	1	p	0.98596
281.8939	0.0	+	34	noun	phrase	4	12	match	sur	2	1	p	0.98596
283.9102	0.0	SUR	34	noun	phrase	4	13	match	sur	2	1	p	0.98596
284.9592	0.0	+	34	noun	phrase	4	14	match	sur	2	1	p	0.98596
284.8962	0.0	[response]	34	noun	phrase	4	15	match	sur	2	1	p	0.98596
286.2919	0.0	+	35	noun	list	2	1	nomatch	boîtier	-1	1	y	1.0995
286.84159999999997	0.2	qwj	35	noun	list	2	2	nomatch	boîtier	-1	1	y	1.0995
287.0415	0.0	+	35	noun	list	2	3	nomatch	boîtier	-1	1	y	1.0995
287.4414	0.2	tjxp	35	noun	list	2	4	nomatch	boîtier	-1	1	y	1.0995
287.6413	0.0	+	35	noun	list	2	5	nomatch	boîtier	-1	1	y	1.0995
288.0416	0.2	vfcg	35	noun	list	2	6	nomatch	boîtier	-1	1	y	1.0995
288.2417	0.0	+	35	noun	list	2	7	nomatch	boîtier	-1	1	y	1.0995
288.6408	0.2	plus	35	noun	list	2	8	nomatch	boîtier	-1	1	y	1.0995
288.8408	0.0	+	35	noun	list	2	9	nomatch	boîtier	-1	1	y	1.0995
289.2579	0.2	panier	35	noun	list	2	10	nomatch	boîtier	-1	1	y	1.0995
289.4405	0.0	+	35	noun	list	2	11	nomatch	boîtier	-1	1	y	1.0995
289.841	0.0	+	35	noun	list	2	12	nomatch	boîtier	-1	1	y	1.0995
291.8394	0.0	BOÎTIER	35	noun	list	2	13	nomatch	boîtier	-1	1	y	1.0995
293.0055	0.0	+	35	noun	list	2	14	nomatch	boîtier	-1	1	y	1.0995
292.93880000000007	0.0	[response]	35	noun	list	2	15	nomatch	boîtier	-1	1	y	1.0995
294.2383	0.0	+	36	noun	list	1	1	nomatch	tard	-1	1	y	0.8336400000000002
294.7881	0.2	gpwfzl	36	noun	list	1	2	nomatch	tard	-1	1	y	0.8336400000000002
294.988	0.0	+	36	noun	list	1	3	nomatch	tard	-1	1	y	0.8336400000000002
295.38779999999997	0.2	zrb	36	noun	list	1	4	nomatch	tard	-1	1	y	0.8336400000000002
295.5877	0.0	+	36	noun	list	1	5	nomatch	tard	-1	1	y	0.8336400000000002
295.9875	0.2	tqd	36	noun	list	1	6	nomatch	tard	-1	1	y	0.8336400000000002
296.18739999999997	0.0	+	36	noun	list	1	7	nomatch	tard	-1	1	y	0.8336400000000002
296.58729999999997	0.2	shnvprc	36	noun	list	1	8	nomatch	tard	-1	1	y	0.8336400000000002
296.7872	0.0	+	36	noun	list	1	9	nomatch	tard	-1	1	y	0.8336400000000002
297.1873	0.2	beaucoup	36	noun	list	1	10	nomatch	tard	-1	1	y	0.8336400000000002
297.38689999999997	0.0	+	36	noun	list	1	11	nomatch	tard	-1	1	y	0.8336400000000002
297.7871	0.0	+	36	noun	list	1	12	nomatch	tard	-1	1	y	0.8336400000000002
299.7858	0.0	TARD	36	noun	list	1	13	nomatch	tard	-1	1	y	0.8336400000000002
300.6854	0.0	+	36	noun	list	1	14	nomatch	tard	-1	1	y	0.8336400000000002
300.6194	0.0	[response]	36	noun	list	1	15	nomatch	tard	-1	1	y	0.8336400000000002
302.1847	0.0	+	37	verb	phrase	4	1	match	jongler	4	1	p	1.1164
302.73449999999997	0.2	xqjz	37	verb	phrase	4	2	match	jongler	4	1	p	1.1164
302.9344	0.0	+	37	verb	phrase	4	3	match	jongler	4	1	p	1.1164
303.3342	0.2	adam	37	verb	phrase	4	4	match	jongler	4	1	p	1.1164
303.5341	0.0	+	37	verb	phrase	4	5	match	jongler	4	1	p	1.1164
303.9346	0.2	peut	37	verb	phrase	4	6	match	jongler	4	1	p	1.1164
304.1345	0.0	+	37	verb	phrase	4	7	match	jongler	4	1	p	1.1164
304.5342	0.2	jongler	37	verb	phrase	4	8	match	jongler	4	1	p	1.1164
304.7336	0.0	+	37	verb	phrase	4	9	match	jongler	4	1	p	1.1164
305.1501	0.2	vite	37	verb	phrase	4	10	match	jongler	4	1	p	1.1164
305.35	0.0	+	37	verb	phrase	4	11	match	jongler	4	1	p	1.1164
305.7498	0.0	+	37	verb	phrase	4	12	match	jongler	4	1	p	1.1164
307.7489	0.0	JONGLER	37	verb	phrase	4	13	match	jongler	4	1	p	1.1164
308.9317	0.0	+	37	verb	phrase	4	14	match	jongler	4	1	p	1.1164
308.8653	0.0	[response]	37	verb	phrase	4	15	match	jongler	4	1	p	1.1164
310.1478	0.0	+	38	verb	list	3	1	match	bleu	5	1	p	0.8589200000000001
310.6976	0.2	mnq	38	verb	list	3	2	match	bleu	5	1	p	0.8589200000000001
310.8975	0.0	+	38	verb	list	3	3	match	bleu	5	1	p	0.8589200000000001
311.2973	0.2	ckfr	38	verb	list	3	4	match	bleu	5	1	p	0.8589200000000001
311.49739999999997	0.0	+	38	verb	list	3	5	match	bleu	5	1	p	0.8589200000000001
311.897	0.2	leur	38	verb	list	3	6	match	bleu	5	1	p	0.8589200000000001
312.0969	0.0	+	38	verb	list	3	7	match	bleu	5	1	p	0.8589200000000001
312.4968	0.2	rouler	38	verb	list	3	8	match	bleu	5	1	p	0.8589200000000001
312.6967	0.0	+	38	verb	list	3	9	match	bleu	5	1	p	0.8589200000000001
313.0965	0.2	bleu	38	verb	list	3	10	match	bleu	5	1	p	0.8589200000000001
313.2964	0.0	+	38	verb	list	3	11	match	bleu	5	1	p	0.8589200000000001
313.6962	0.0	+	38	verb	list	3	12	match	bleu	5	1	p	0.8589200000000001
315.6953	0.0	BLEU	38	verb	list	3	13	match	bleu	5	1	p	0.8589200000000001
316.6116	0.0	+	38	verb	list	3	14	match	bleu	5	1	p	0.8589200000000001
316.5543	0.0	[response]	38	verb	list	3	15	match	bleu	5	1	p	0.8589200000000001
318.0943	0.0	+	39	verb	list	1	1	nomatch	jongler	-1	1	y	1.4046
318.644	0.2	rsxmpjd	39	verb	list	1	2	nomatch	jongler	-1	1	y	1.4046
318.8439	0.0	+	39	verb	list	1	3	nomatch	jongler	-1	1	y	1.4046
319.2437	0.2	dxvn	39	verb	list	1	4	nomatch	jongler	-1	1	y	1.4046
319.4437	0.0	+	39	verb	list	1	5	nomatch	jongler	-1	1	y	1.4046
319.8435	0.2	xnhd	39	verb	list	1	6	nomatch	jongler	-1	1	y	1.4046
320.0434	0.0	+	39	verb	list	1	7	nomatch	jongler	-1	1	y	1.4046
320.4432	0.2	kwrgbsz	39	verb	list	1	8	nomatch	jongler	-1	1	y	1.4046
320.6599	0.0	+	39	verb	list	1	9	nomatch	jongler	-1	1	y	1.4046
321.0429	0.2	nager	39	verb	list	1	10	nomatch	jongler	-1	1	y	1.4046
321.243	0.0	+	39	verb	list	1	11	nomatch	jongler	-1	1	y	1.4046
321.6426	0.0	+	39	verb	list	1	12	nomatch	jongler	-1	1	y	1.4046
323.6418	0.0	JONGLER	39	verb	list	1	13	nomatch	jongler	-1	1	y	1.4046
325.1078	0.0	+	39	verb	list	1	14	nomatch	jongler	-1	1	y	1.4046
325.0463	0.0	[response]	39	verb	list	1	15	nomatch	jongler	-1	1	y	1.4046
326.0407	0.0	+	40	verb	phrase	3	1	nomatch	mieux	-1	1	y	1.0247000000000002
326.5904	0.2	vxcqw	40	verb	phrase	3	2	nomatch	mieux	-1	1	y	1.0247000000000002
326.7903	0.0	+	40	verb	phrase	3	3	nomatch	mieux	-1	1	y	1.0247000000000002
327.1902	0.2	sqxk	40	verb	phrase	3	4	nomatch	mieux	-1	1	y	1.0247000000000002
327.3901	0.0	+	40	verb	phrase	3	5	nomatch	mieux	-1	1	y	1.0247000000000002
327.7899	0.2	va	40	verb	phrase	3	6	nomatch	mieux	-1	1	y	1.0247000000000002
327.9898	0.0	+	40	verb	phrase	3	7	nomatch	mieux	-1	1	y	1.0247000000000002
328.3896	0.2	voyager	40	verb	phrase	3	8	nomatch	mieux	-1	1	y	1.0247000000000002
328.5896	0.0	+	40	verb	phrase	3	9	nomatch	mieux	-1	1	y	1.0247000000000002
328.9901	0.2	tard	40	verb	phrase	3	10	nomatch	mieux	-1	1	y	1.0247000000000002
329.1893	0.0	+	40	verb	phrase	3	11	nomatch	mieux	-1	1	y	1.0247000000000002
329.5891	0.0	+	40	verb	phrase	3	12	nomatch	mieux	-1	1	y	1.0247000000000002
331.5887	0.0	MIEUX	40	verb	phrase	3	13	nomatch	mieux	-1	1	y	1.0247000000000002
332.721	0.0	+	40	verb	phrase	3	14	nomatch	mieux	-1	1	y	1.0247000000000002
332.6134	0.0	[response]	40	verb	phrase	3	15	nomatch	mieux	-1	1	y	1.0247000000000002
342.0009	0.0	+	41	verb	phrase	4	1	match	plonger	5	1	p	1.4362
342.5499	0.2	cdt	41	verb	phrase	4	2	match	plonger	5	1	p	1.4362
342.7498	0.0	+	41	verb	phrase	4	3	match	plonger	5	1	p	1.4362
343.1496	0.2	luc	41	verb	phrase	4	4	match	plonger	5	1	p	1.4362
343.3496	0.0	+	41	verb	phrase	4	5	match	plonger	5	1	p	1.4362
343.7494	0.2	doit	41	verb	phrase	4	6	match	plonger	5	1	p	1.4362
343.9493	0.0	+	41	verb	phrase	4	7	match	plonger	5	1	p	1.4362
344.3491	0.2	trop	41	verb	phrase	4	8	match	plonger	5	1	p	1.4362
344.549	0.0	+	41	verb	phrase	4	9	match	plonger	5	1	p	1.4362
344.9488	0.2	plonger	41	verb	phrase	4	10	match	plonger	5	1	p	1.4362
345.1487	0.0	+	41	verb	phrase	4	11	match	plonger	5	1	p	1.4362
345.5486	0.0	+	41	verb	phrase	4	12	match	plonger	5	1	p	1.4362
347.5477	0.0	PLONGER	41	verb	phrase	4	13	match	plonger	5	1	p	1.4362
349.04699999999997	0.0	+	41	verb	phrase	4	14	match	plonger	5	1	p	1.4362
348.9839	0.0	[response]	41	verb	phrase	4	15	match	plonger	5	1	p	1.4362
365.9394	0.0	+	42	noun	phrase	3	1	nomatch	leur	-1	1	y	0.94516
366.4892	0.2	thvqbsc	42	noun	phrase	3	2	nomatch	leur	-1	1	y	0.94516
366.6891	0.0	+	42	noun	phrase	3	3	nomatch	leur	-1	1	y	0.94516
367.0889	0.2	wpc	42	noun	phrase	3	4	nomatch	leur	-1	1	y	0.94516
367.2889	0.0	+	42	noun	phrase	3	5	nomatch	leur	-1	1	y	0.94516
367.6893	0.2	son	42	noun	phrase	3	6	nomatch	leur	-1	1	y	0.94516
367.8892	0.0	+	42	noun	phrase	3	7	nomatch	leur	-1	1	y	0.94516
368.2883	0.2	beau	42	noun	phrase	3	8	nomatch	leur	-1	1	y	0.94516
368.4882	0.0	+	42	noun	phrase	3	9	nomatch	leur	-1	1	y	0.94516
368.8881	0.2	grenier	42	noun	phrase	3	10	nomatch	leur	-1	1	y	0.94516
369.088	0.0	+	42	noun	phrase	3	11	nomatch	leur	-1	1	y	0.94516
369.4878	0.0	+	42	noun	phrase	3	12	nomatch	leur	-1	1	y	0.94516
371.4869	0.0	LEUR	42	noun	phrase	3	13	nomatch	leur	-1	1	y	0.94516
372.4865	0.0	+	42	noun	phrase	3	14	nomatch	leur	-1	1	y	0.94516
372.4321	0.0	[response]	42	noun	phrase	3	15	nomatch	leur	-1	1	y	0.94516
373.8858	0.0	+	43	verb	phrase	2	1	nomatch	rocher	-1	1	y	0.7438900000000002
374.4356	0.2	sktfdn	43	verb	phrase	2	2	nomatch	rocher	-1	1	y	0.7438900000000002
374.6355	0.0	+	43	verb	phrase	2	3	nomatch	rocher	-1	1	y	0.7438900000000002
375.0526	0.2	tjxp	43	verb	phrase	2	4	nomatch	rocher	-1	1	y	0.7438900000000002
375.2353	0.0	+	43	verb	phrase	2	5	nomatch	rocher	-1	1	y	0.7438900000000002
375.635	0.2	pv	43	verb	phrase	2	6	nomatch	rocher	-1	1	y	0.7438900000000002
375.8349	0.0	+	43	verb	phrase	2	7	nomatch	rocher	-1	1	y	0.7438900000000002
376.2352	0.2	danser	43	verb	phrase	2	8	nomatch	rocher	-1	1	y	0.7438900000000002
376.4347	0.0	+	43	verb	phrase	2	9	nomatch	rocher	-1	1	y	0.7438900000000002
376.8345	0.2	vite	43	verb	phrase	2	10	nomatch	rocher	-1	1	y	0.7438900000000002
377.0344	0.0	+	43	verb	phrase	2	11	nomatch	rocher	-1	1	y	0.7438900000000002
377.4342	0.0	+	43	verb	phrase	2	12	nomatch	rocher	-1	1	y	0.7438900000000002
379.45	0.0	ROCHER	43	verb	phrase	2	13	nomatch	rocher	-1	1	y	0.7438900000000002
380.2496	0.0	+	43	verb	phrase	2	14	nomatch	rocher	-1	1	y	0.7438900000000002
380.1939	0.0	[response]	43	verb	phrase	2	15	nomatch	rocher	-1	1	y	0.7438900000000002
381.8489	0.0	+	44	verb	phrase	3	1	nomatch	dans	-1	1	y	1.5274
382.3987	0.2	qwd	44	verb	phrase	3	2	nomatch	dans	-1	1	y	1.5274
382.5986	0.0	+	44	verb	phrase	3	3	nomatch	dans	-1	1	y	1.5274
382.9984	0.2	qlzg	44	verb	phrase	3	4	nomatch	dans	-1	1	y	1.5274
383.199	0.0	+	44	verb	phrase	3	5	nomatch	dans	-1	1	y	1.5274
383.5981	0.2	doit	44	verb	phrase	3	6	nomatch	dans	-1	1	y	1.5274
383.798	0.0	+	44	verb	phrase	3	7	nomatch	dans	-1	1	y	1.5274
384.1978	0.2	mieux	44	verb	phrase	3	8	nomatch	dans	-1	1	y	1.5274
384.3977	0.0	+	44	verb	phrase	3	9	nomatch	dans	-1	1	y	1.5274
384.7976	0.2	rouler	44	verb	phrase	3	10	nomatch	dans	-1	1	y	1.5274
384.9975	0.0	+	44	verb	phrase	3	11	nomatch	dans	-1	1	y	1.5274
385.3973	0.0	+	44	verb	phrase	3	12	nomatch	dans	-1	1	y	1.5274
387.39639999999997	0.0	DANS	44	verb	phrase	3	13	nomatch	dans	-1	1	y	1.5274
388.979	0.0	+	44	verb	phrase	3	14	nomatch	dans	-1	1	y	1.5274
388.92379999999997	0.0	[response]	44	verb	phrase	3	15	nomatch	dans	-1	1	y	1.5274
389.7954	0.0	+	45	verb	list	3	1	match	beau	4	1	p	0.66105
390.3451	0.2	vdmpn	45	verb	list	3	2	match	beau	4	1	p	0.66105
390.545	0.0	+	45	verb	list	3	3	match	beau	4	1	p	0.66105
390.9448	0.2	crtd	45	verb	list	3	4	match	beau	4	1	p	0.66105
391.1447	0.0	+	45	verb	list	3	5	match	beau	4	1	p	0.66105
391.54449999999997	0.2	peut	45	verb	list	3	6	match	beau	4	1	p	0.66105
391.7444	0.0	+	45	verb	list	3	7	match	beau	4	1	p	0.66105
392.1443	0.2	beau	45	verb	list	3	8	match	beau	4	1	p	0.66105
392.3442	0.0	+	45	verb	list	3	9	match	beau	4	1	p	0.66105
392.74399999999997	0.2	danser	45	verb	list	3	10	match	beau	4	1	p	0.66105
392.9439	0.0	+	45	verb	list	3	11	match	beau	4	1	p	0.66105
393.3437	0.0	+	45	verb	list	3	12	match	beau	4	1	p	0.66105
395.3436	0.0	BEAU	45	verb	list	3	13	match	beau	4	1	p	0.66105
396.0925	0.0	+	45	verb	list	3	14	match	beau	4	1	p	0.66105
396.0046	0.0	[response]	45	verb	list	3	15	match	beau	4	1	p	0.66105
397.7418	0.0	+	46	noun	list	4	1	match	plus	4	0	y	2.2082
398.2915	0.2	bgpxn	46	noun	list	4	2	match	plus	4	0	y	2.2082
398.4914	0.0	+	46	noun	list	4	3	match	plus	4	0	y	2.2082
398.89119999999997	0.2	adam	46	noun	list	4	4	match	plus	4	0	y	2.2082
399.0912	0.0	+	46	noun	list	4	5	match	plus	4	0	y	2.2082
399.491	0.2	son	46	noun	list	4	6	match	plus	4	0	y	2.2082
399.6909	0.0	+	46	noun	list	4	7	match	plus	4	0	y	2.2082
400.09069999999997	0.2	plus	46	noun	list	4	8	match	plus	4	0	y	2.2082
400.2906	0.0	+	46	noun	list	4	9	match	plus	4	0	y	2.2082
400.6911	0.2	panier	46	noun	list	4	10	match	plus	4	0	y	2.2082
400.8903	0.0	+	46	noun	list	4	11	match	plus	4	0	y	2.2082
401.29019999999997	0.0	+	46	noun	list	4	12	match	plus	4	0	y	2.2082
403.28929999999997	0.0	PLUS	46	noun	list	4	13	match	plus	4	0	y	2.2082
405.5549	0.0	+	46	noun	list	4	14	match	plus	4	0	y	2.2082
405.49739999999997	0.0	[response]	46	noun	list	4	15	match	plus	4	0	y	2.2082
405.6882	0.0	+	47	noun	list	1	1	nomatch	pour	-1	1	y	0.73254
406.2379	0.2	hmrqx	47	noun	list	1	2	nomatch	pour	-1	1	y	0.73254
406.4378	0.0	+	47	noun	list	1	3	nomatch	pour	-1	1	y	0.73254
406.8377	0.2	lbvx	47	noun	list	1	4	nomatch	pour	-1	1	y	0.73254
407.0376	0.0	+	47	noun	list	1	5	nomatch	pour	-1	1	y	0.73254
407.43739999999997	0.2	xnhd	47	noun	list	1	6	nomatch	pour	-1	1	y	0.73254
407.6373	0.0	+	47	noun	list	1	7	nomatch	pour	-1	1	y	0.73254
408.0371	0.2	dlgn	47	noun	list	1	8	nomatch	pour	-1	1	y	0.73254
408.237	0.0	+	47	noun	list	1	9	nomatch	pour	-1	1	y	0.73254
408.63689999999997	0.2	clavier	47	noun	list	1	10	nomatch	pour	-1	1	y	0.73254
408.8368	0.0	+	47	noun	list	1	11	nomatch	pour	-1	1	y	0.73254
409.2366	0.0	+	47	noun	list	1	12	nomatch	pour	-1	1	y	0.73254
411.2357	0.0	POUR	47	noun	list	1	13	nomatch	pour	-1	1	y	0.73254
412.0353	0.0	+	47	noun	list	1	14	nomatch	pour	-1	1	y	0.73254
411.9682	0.0	[response]	47	noun	list	1	15	nomatch	pour	-1	1	y	0.73254
413.6346	0.0	+	48	noun	list	4	1	match	beaucoup	4	0	y	1.2098
414.1844	0.2	mxrkd	48	noun	list	4	2	match	beaucoup	4	0	y	1.2098
414.3843	0.0	+	48	noun	list	4	3	match	beaucoup	4	0	y	1.2098
414.7841	0.2	paul	48	noun	list	4	4	match	beaucoup	4	0	y	1.2098
414.984	0.0	+	48	noun	list	4	5	match	beaucoup	4	0	y	1.2098
415.3838	0.2	leur	48	noun	list	4	6	match	beaucoup	4	0	y	1.2098
415.5837	0.0	+	48	noun	list	4	7	match	beaucoup	4	0	y	1.2098
415.9837	0.2	beaucoup	48	noun	list	4	8	match	beaucoup	4	0	y	1.2098
416.2001	0.0	+	48	noun	list	4	9	match	beaucoup	4	0	y	1.2098
416.5999	0.2	boîtier	48	noun	list	4	10	match	beaucoup	4	0	y	1.2098
416.7998	0.0	+	48	noun	list	4	11	match	beaucoup	4	0	y	1.2098
417.1997	0.0	+	48	noun	list	4	12	match	beaucoup	4	0	y	1.2098
419.1993	0.0	BEAUCOUP	48	noun	list	4	13	match	beaucoup	4	0	y	1.2098
420.4649	0.0	+	48	noun	list	4	14	match	beaucoup	4	0	y	1.2098
420.4091	0.0	[response]	48	noun	list	4	15	match	beaucoup	4	0	y	1.2098
421.5977	0.0	+	49	verb	list	3	1	nomatch	grand	-1	1	y	0.75873
422.1475	0.2	cglp	49	verb	list	3	2	nomatch	grand	-1	1	y	0.75873
422.3474	0.0	+	49	verb	list	3	3	nomatch	grand	-1	1	y	0.75873
422.7472	0.2	dxvn	49	verb	list	3	4	nomatch	grand	-1	1	y	0.75873
422.9476	0.0	+	49	verb	list	3	5	nomatch	grand	-1	1	y	0.75873
423.3469	0.2	peut	49	verb	list	3	6	nomatch	grand	-1	1	y	0.75873
423.5468	0.0	+	49	verb	list	3	7	nomatch	grand	-1	1	y	0.75873
423.9466	0.2	vieux	49	verb	list	3	8	nomatch	grand	-1	1	y	0.75873
424.1466	0.0	+	49	verb	list	3	9	nomatch	grand	-1	1	y	0.75873
424.5464	0.2	nager	49	verb	list	3	10	nomatch	grand	-1	1	y	0.75873
424.7463	0.0	+	49	verb	list	3	11	nomatch	grand	-1	1	y	0.75873
425.1461	0.0	+	49	verb	list	3	12	nomatch	grand	-1	1	y	0.75873
427.1459	0.0	GRAND	49	verb	list	3	13	nomatch	grand	-1	1	y	0.75873
427.9948	0.0	+	49	verb	list	3	14	nomatch	grand	-1	1	y	0.75873
427.9046	0.0	[response]	49	verb	list	3	15	nomatch	grand	-1	1	y	0.75873
437.5405	0.0	+	50	noun	phrase	1	1	nomatch	casier	-1	1	y	0.71927
438.0903	0.2	rjpmfh	50	noun	phrase	1	2	nomatch	casier	-1	1	y	0.71927
438.2906	0.0	+	50	noun	phrase	1	3	nomatch	casier	-1	1	y	0.71927
438.69	0.2	lbvx	50	noun	phrase	1	4	nomatch	casier	-1	1	y	0.71927
438.8899	0.0	+	50	noun	phrase	1	5	nomatch	casier	-1	1	y	0.71927
439.2897	0.2	vfcg	50	noun	phrase	1	6	nomatch	casier	-1	1	y	0.71927
439.48969999999997	0.0	+	50	noun	phrase	1	7	nomatch	casier	-1	1	y	0.71927
439.8895	0.2	nbsljmr	50	noun	phrase	1	8	nomatch	casier	-1	1	y	0.71927
440.0894	0.0	+	50	noun	phrase	1	9	nomatch	casier	-1	1	y	0.71927
440.4892	0.2	blanc	50	noun	phrase	1	10	nomatch	casier	-1	1	y	0.71927
440.6891	0.0	+	50	noun	phrase	1	11	nomatch	casier	-1	1	y	0.71927
441.0889	0.0	+	50	noun	phrase	1	12	nomatch	casier	-1	1	y	0.71927
443.088	0.0	CASIER	50	noun	phrase	1	13	nomatch	casier	-1	1	y	0.71927
443.871	0.0	+	50	noun	phrase	1	14	nomatch	casier	-1	1	y	0.71927
443.8073	0.0	[response]	50	noun	phrase	1	15	nomatch	casier	-1	1	y	0.71927
445.487	0.0	+	51	verb	phrase	4	1	match	va	3	1	p	0.81062
446.0367	0.2	nqvf	51	verb	phrase	4	2	match	va	3	1	p	0.81062
446.2366	0.0	+	51	verb	phrase	4	3	match	va	3	1	p	0.81062
446.6364	0.2	marc	51	verb	phrase	4	4	match	va	3	1	p	0.81062
446.8363	0.0	+	51	verb	phrase	4	5	match	va	3	1	p	0.81062
447.2362	0.2	va	51	verb	phrase	4	6	match	va	3	1	p	0.81062
447.4361	0.0	+	51	verb	phrase	4	7	match	va	3	1	p	0.81062
447.8359	0.2	patiner	51	verb	phrase	4	8	match	va	3	1	p	0.81062
448.0358	0.0	+	51	verb	phrase	4	9	match	va	3	1	p	0.81062
448.4363	0.2	tard	51	verb	phrase	4	10	match	va	3	1	p	0.81062
448.6361	0.0	+	51	verb	phrase	4	11	match	va	3	1	p	0.81062
449.0356	0.0	+	51	verb	phrase	4	12	match	va	3	1	p	0.81062
451.0344	0.0	VA	51	verb	phrase	4	13	match	va	3	1	p	0.81062
451.9007	0.0	+	51	verb	phrase	4	14	match	va	3	1	p	0.81062
451.8451	0.0	[response]	51	verb	phrase	4	15	match	va	3	1	p	0.81062
453.45000000000005	0.0	+	52	noun	phrase	2	1	nomatch	rocher	-1	1	y	0.7704
453.99980000000005	0.2	vnf	52	noun	phrase	2	2	nomatch	rocher	-1	1	y	0.7704
454.1997	0.0	+	52	noun	phrase	2	3	nomatch	rocher	-1	1	y	0.7704
454.59950000000003	0.2	lbvx	52	noun	phrase	2	4	nomatch	rocher	-1	1	y	0.7704
454.7994	0.0	+	52	noun	phrase	2	5	nomatch	rocher	-1	1	y	0.7704
455.1998	0.2	tqd	52	noun	phrase	2	6	nomatch	rocher	-1	1	y	0.7704
455.39919999999995	0.0	+	52	noun	phrase	2	7	nomatch	rocher	-1	1	y	0.7704
455.799	0.2	petit	52	noun	phrase	2	8	nomatch	rocher	-1	1	y	0.7704
455.999	0.0	+	52	noun	phrase	2	9	nomatch	rocher	-1	1	y	0.7704
456.39869999999996	0.2	casier	52	noun	phrase	2	10	nomatch	rocher	-1	1	y	0.7704
456.59860000000003	0.0	+	52	noun	phrase	2	11	nomatch	rocher	-1	1	y	0.7704
456.99839999999995	0.0	+	52	noun	phrase	2	12	nomatch	rocher	-1	1	y	0.7704
458.99749999999995	0.0	ROCHER	52	noun	phrase	2	13	nomatch	rocher	-1	1	y	0.7704
459.83050000000003	0.0	+	52	noun	phrase	2	14	nomatch	rocher	-1	1	y	0.7704
459.76789999999994	0.0	[response]	52	noun	phrase	2	15	nomatch	rocher	-1	1	y	0.7704
461.39649999999995	0.0	+	53	verb	list	2	1	nomatch	danser	-1	1	y	0.83598
461.9462	0.2	wpnf	53	verb	list	2	2	nomatch	danser	-1	1	y	0.83598
462.14610000000005	0.0	+	53	verb	list	2	3	nomatch	danser	-1	1	y	0.83598
462.54589999999996	0.2	cqgv	53	verb	list	2	4	nomatch	danser	-1	1	y	0.83598
462.74580000000003	0.0	+	53	verb	list	2	5	nomatch	danser	-1	1	y	0.83598
463.14570000000003	0.2	pv	53	verb	list	2	6	nomatch	danser	-1	1	y	0.83598
463.3456	0.0	+	53	verb	list	2	7	nomatch	danser	-1	1	y	0.83598
463.7454	0.2	beau	53	verb	list	2	8	nomatch	danser	-1	1	y	0.83598
463.9453	0.0	+	53	verb	list	2	9	nomatch	danser	-1	1	y	0.83598
464.3451	0.2	parader	53	verb	list	2	10	nomatch	danser	-1	1	y	0.83598
464.54499999999996	0.0	+	53	verb	list	2	11	nomatch	danser	-1	1	y	0.83598
464.94489999999996	0.0	+	53	verb	list	2	12	nomatch	danser	-1	1	y	0.83598
466.9439	0.0	DANSER	53	verb	list	2	13	nomatch	danser	-1	1	y	0.83598
467.84360000000004	0.0	+	53	verb	list	2	14	nomatch	danser	-1	1	y	0.83598
467.7799	0.0	[response]	53	verb	list	2	15	nomatch	danser	-1	1	y	0.83598
469.3429	0.0	+	54	noun	list	4	1	nomatch	peut	-1	1	y	0.98175
469.8926	0.2	sbmwtl	54	noun	list	4	2	nomatch	peut	-1	1	y	0.98175
470.0925	0.0	+	54	noun	list	4	3	nomatch	peut	-1	1	y	0.98175
470.4924	0.2	vers	54	noun	list	4	4	nomatch	peut	-1	1	y	0.98175
470.69230000000005	0.0	+	54	noun	list	4	5	nomatch	peut	-1	1	y	0.98175
471.09209999999996	0.2	va	54	noun	list	4	6	nomatch	peut	-1	1	y	0.98175
471.29200000000003	0.0	+	54	noun	list	4	7	nomatch	peut	-1	1	y	0.98175
471.6925	0.2	casier	54	noun	list	4	8	nomatch	peut	-1	1	y	0.98175
471.8921	0.0	+	54	noun	list	4	9	nomatch	peut	-1	1	y	0.98175
472.2916	0.2	ainsi	54	noun	list	4	10	nomatch	peut	-1	1	y	0.98175
472.4915	0.0	+	54	noun	list	4	11	nomatch	peut	-1	1	y	0.98175
472.8913	0.0	+	54	noun	list	4	12	nomatch	peut	-1	1	y	0.98175
474.8904	0.0	PEUT	54	noun	list	4	13	nomatch	peut	-1	1	y	0.98175
475.93989999999997	0.0	+	54	noun	list	4	14	nomatch	peut	-1	1	y	0.98175
475.87210000000005	0.0	[response]	54	noun	list	4	15	nomatch	peut	-1	1	y	0.98175
485.2857	0.0	+	55	noun	phrase	1	1	nomatch	tablier	-1	1	y	0.9470300000000001
485.8361	0.2	xmz	55	noun	phrase	1	2	nomatch	tablier	-1	1	y	0.9470300000000001
486.03589999999997	0.0	+	55	noun	phrase	1	3	nomatch	tablier	-1	1	y	0.9470300000000001
486.4352	0.2	dxvn	55	noun	phrase	1	4	nomatch	tablier	-1	1	y	0.9470300000000001
486.63559999999995	0.0	+	55	noun	phrase	1	5	nomatch	tablier	-1	1	y	0.9470300000000001
487.0349	0.2	vfcg	55	noun	phrase	1	6	nomatch	tablier	-1	1	y	0.9470300000000001
487.23479999999995	0.0	+	55	noun	phrase	1	7	nomatch	tablier	-1	1	y	0.9470300000000001
487.6346	0.2	hfkgq	55	noun	phrase	1	8	nomatch	tablier	-1	1	y	0.9470300000000001
487.83450000000005	0.0	+	55	noun	phrase	1	9	nomatch	tablier	-1	1	y	0.9470300000000001
488.23440000000005	0.2	rocher	55	noun	phrase	1	10	nomatch	tablier	-1	1	y	0.9470300000000001
488.4343	0.0	+	55	noun	phrase	1	11	nomatch	tablier	-1	1	y	0.9470300000000001
488.83410000000003	0.0	+	55	noun	phrase	1	12	nomatch	tablier	-1	1	y	0.9470300000000001
490.8502	0.0	TABLIER	55	noun	phrase	1	13	nomatch	tablier	-1	1	y	0.9470300000000001
491.84939999999995	0.0	+	55	noun	phrase	1	14	nomatch	tablier	-1	1	y	0.9470300000000001
491.7972	0.0	[response]	55	noun	phrase	1	15	nomatch	tablier	-1	1	y	0.9470300000000001
493.24879999999996	0.0	+	56	verb	phrase	1	1	nomatch	parader	-1	1	y	0.76325
493.79859999999996	0.2	xwhflv	56	verb	phrase	1	2	nomatch	parader	-1	1	y	0.76325
493.99850000000004	0.0	+	56	verb	phrase	1	3	nomatch	parader	-1	1	y	0.76325
494.39829999999995	0.2	sqxk	56	verb	phrase	1	4	nomatch	parader	-1	1	y	0.76325
494.5982	0.0	+	56	verb	phrase	1	5	nomatch	parader	-1	1	y	0.76325
494.99800000000005	0.2	qcpb	56	verb	phrase	1	6	nomatch	parader	-1	1	y	0.76325
495.19849999999997	0.0	+	56	verb	phrase	1	7	nomatch	parader	-1	1	y	0.76325
495.59770000000003	0.2	vwdx	56	verb	phrase	1	8	nomatch	parader	-1	1	y	0.76325
495.7976	0.0	+	56	verb	phrase	1	9	nomatch	parader	-1	1	y	0.76325
496.1975	0.2	voyager	56	verb	phrase	1	10	nomatch	parader	-1	1	y	0.76325
496.3977	0.0	+	56	verb	phrase	1	11	nomatch	parader	-1	1	y	0.76325
496.7972	0.0	+	56	verb	phrase	1	12	nomatch	parader	-1	1	y	0.76325
498.7963	0.0	PARADER	56	verb	phrase	1	13	nomatch	parader	-1	1	y	0.76325
499.61260000000004	0.0	+	56	verb	phrase	1	14	nomatch	parader	-1	1	y	0.76325
499.55949999999996	0.0	[response]	56	verb	phrase	1	15	nomatch	parader	-1	1	y	0.76325
501.1952	0.0	+	57	noun	phrase	1	1	nomatch	blanc	-1	1	y	0.78752
501.745	0.2	lsngr	57	noun	phrase	1	2	nomatch	blanc	-1	1	y	0.78752
501.94489999999996	0.0	+	57	noun	phrase	1	3	nomatch	blanc	-1	1	y	0.78752
502.3447	0.2	dxvn	57	noun	phrase	1	4	nomatch	blanc	-1	1	y	0.78752
502.54459999999995	0.0	+	57	noun	phrase	1	5	nomatch	blanc	-1	1	y	0.78752
502.9451	0.2	rfc	57	noun	phrase	1	6	nomatch	blanc	-1	1	y	0.78752
503.145	0.0	+	57	noun	phrase	1	7	nomatch	blanc	-1	1	y	0.78752
503.5448	0.2	mdrcxzj	57	noun	phrase	1	8	nomatch	blanc	-1	1	y	0.78752
503.7441	0.0	+	57	noun	phrase	1	9	nomatch	blanc	-1	1	y	0.78752
504.14459999999997	0.2	rouge	57	noun	phrase	1	10	nomatch	blanc	-1	1	y	0.78752
504.3438	0.0	+	57	noun	phrase	1	11	nomatch	blanc	-1	1	y	0.78752
504.7436	0.0	+	57	noun	phrase	1	12	nomatch	blanc	-1	1	y	0.78752
506.76009999999997	0.0	BLANC	57	noun	phrase	1	13	nomatch	blanc	-1	1	y	0.78752
507.60900000000004	0.0	+	57	noun	phrase	1	14	nomatch	blanc	-1	1	y	0.78752
507.5476	0.0	[response]	57	noun	phrase	1	15	nomatch	blanc	-1	1	y	0.78752
509.14160000000004	0.0	+	58	verb	phrase	2	1	nomatch	loin	-1	1	y	2.0736
509.69140000000004	0.2	sthzg	58	verb	phrase	2	2	nomatch	loin	-1	1	y	2.0736
509.8913	0.0	+	58	verb	phrase	2	3	nomatch	loin	-1	1	y	2.0736
510.29189999999994	0.2	zrb	58	verb	phrase	2	4	nomatch	loin	-1	1	y	2.0736
510.4914	0.0	+	58	verb	phrase	2	5	nomatch	loin	-1	1	y	2.0736
510.8908	0.2	xnhd	58	verb	phrase	2	6	nomatch	loin	-1	1	y	2.0736
511.09079999999994	0.0	+	58	verb	phrase	2	7	nomatch	loin	-1	1	y	2.0736
511.4909	0.2	rouler	58	verb	phrase	2	8	nomatch	loin	-1	1	y	2.0736
511.69050000000004	0.0	+	58	verb	phrase	2	9	nomatch	loin	-1	1	y	2.0736
512.0903	0.2	tôt	58	verb	phrase	2	10	nomatch	loin	-1	1	y	2.0736
512.2902	0.0	+	58	verb	phrase	2	11	nomatch	loin	-1	1	y	2.0736
512.6901	0.0	+	58	verb	phrase	2	12	nomatch	loin	-1	1	y	2.0736
514.6897	0.0	LOIN	58	verb	phrase	2	13	nomatch	loin	-1	1	y	2.0736
516.8215	0.0	+	58	verb	phrase	2	14	nomatch	loin	-1	1	y	2.0736
516.7634	0.0	[response]	58	verb	phrase	2	15	nomatch	loin	-1	1	y	2.0736
517.0880999999999	0.0	+	59	noun	list	1	1	match	grenier	5	1	p	0.77957
517.6378	0.2	hkwcg	59	noun	list	1	2	match	grenier	5	1	p	0.77957
517.8377	0.0	+	59	noun	list	1	3	match	grenier	5	1	p	0.77957
518.2375	0.2	tjxp	59	noun	list	1	4	match	grenier	5	1	p	0.77957
518.4375	0.0	+	59	noun	list	1	5	match	grenier	5	1	p	0.77957
518.8373	0.2	vfcg	59	noun	list	1	6	match	grenier	5	1	p	0.77957
519.0372	0.0	+	59	noun	list	1	7	match	grenier	5	1	p	0.77957
519.437	0.2	bvmxj	59	noun	list	1	8	match	grenier	5	1	p	0.77957
519.6369	0.0	+	59	noun	list	1	9	match	grenier	5	1	p	0.77957
520.0367	0.2	grenier	59	noun	list	1	10	match	grenier	5	1	p	0.77957
520.2366	0.0	+	59	noun	list	1	11	match	grenier	5	1	p	0.77957
520.6538	0.0	+	59	noun	list	1	12	match	grenier	5	1	p	0.77957
522.6356	0.0	GRENIER	59	noun	list	1	13	match	grenier	5	1	p	0.77957
523.4685	0.0	+	59	noun	list	1	14	match	grenier	5	1	p	0.77957
523.4151	0.0	[response]	59	noun	list	1	15	match	grenier	5	1	p	0.77957
525.0345	0.0	+	60	verb	list	4	1	nomatch	leur	-1	1	y	1.2605
525.5842	0.2	rqct	60	verb	list	4	2	nomatch	leur	-1	1	y	1.2605
525.7841	0.0	+	60	verb	list	4	3	nomatch	leur	-1	1	y	1.2605
526.1846	0.2	dans	60	verb	list	4	4	nomatch	leur	-1	1	y	1.2605
526.3839	0.0	+	60	verb	list	4	5	nomatch	leur	-1	1	y	1.2605
526.8009	0.2	va	60	verb	list	4	6	nomatch	leur	-1	1	y	1.2605
526.9843	0.0	+	60	verb	list	4	7	nomatch	leur	-1	1	y	1.2605
527.4005999999999	0.2	petit	60	verb	list	4	8	nomatch	leur	-1	1	y	1.2605
527.6	0.0	+	60	verb	list	4	9	nomatch	leur	-1	1	y	1.2605
527.9998	0.2	plonger	60	verb	list	4	10	nomatch	leur	-1	1	y	1.2605
528.1997	0.0	+	60	verb	list	4	11	nomatch	leur	-1	1	y	1.2605
528.5996	0.0	+	60	verb	list	4	12	nomatch	leur	-1	1	y	1.2605
530.5987	0.0	LEUR	60	verb	list	4	13	nomatch	leur	-1	1	y	1.2605
531.9147	0.0	+	60	verb	list	4	14	nomatch	leur	-1	1	y	1.2605
531.8592	0.0	[response]	60	verb	list	4	15	nomatch	leur	-1	1	y	1.2605
532.9976	0.0	+	61	noun	list	2	1	match	tard	5	1	p	0.9704600000000001
533.5473	0.2	btnzr	61	noun	list	2	2	match	tard	5	1	p	0.9704600000000001
533.7472	0.0	+	61	noun	list	2	3	match	tard	5	1	p	0.9704600000000001
534.1471	0.2	lbvx	61	noun	list	2	4	match	tard	5	1	p	0.9704600000000001
534.347	0.0	+	61	noun	list	2	5	match	tard	5	1	p	0.9704600000000001
534.7468	0.2	pv	61	noun	list	2	6	match	tard	5	1	p	0.9704600000000001
534.9467	0.0	+	61	noun	list	2	7	match	tard	5	1	p	0.9704600000000001
535.3465	0.2	panier	61	noun	list	2	8	match	tard	5	1	p	0.9704600000000001
535.5464	0.0	+	61	noun	list	2	9	match	tard	5	1	p	0.9704600000000001
535.947	0.2	tard	61	noun	list	2	10	match	tard	5	1	p	0.9704600000000001
536.1462	0.0	+	61	noun	list	2	11	match	tard	5	1	p	0.9704600000000001
536.546	0.0	+	61	noun	list	2	12	match	tard	5	1	p	0.9704600000000001
538.5451	0.0	TARD	61	noun	list	2	13	match	tard	5	1	p	0.9704600000000001
539.578	0.0	+	61	noun	list	2	14	match	tard	5	1	p	0.9704600000000001
539.5155	0.0	[response]	61	noun	list	2	15	match	tard	5	1	p	0.9704600000000001
540.944	0.0	+	62	verb	phrase	2	1	nomatch	trop	-1	1	y	1.1393
541.4937	0.2	brszfh	62	verb	phrase	2	2	nomatch	trop	-1	1	y	1.1393
541.6937	0.0	+	62	verb	phrase	2	3	nomatch	trop	-1	1	y	1.1393
542.0935	0.2	nxwc	62	verb	phrase	2	4	nomatch	trop	-1	1	y	1.1393
542.2934	0.0	+	62	verb	phrase	2	5	nomatch	trop	-1	1	y	1.1393
542.6932	0.2	xnhd	62	verb	phrase	2	6	nomatch	trop	-1	1	y	1.1393
542.8931	0.0	+	62	verb	phrase	2	7	nomatch	trop	-1	1	y	1.1393
543.2929	0.2	beaucoup	62	verb	phrase	2	8	nomatch	trop	-1	1	y	1.1393
543.4929	0.0	+	62	verb	phrase	2	9	nomatch	trop	-1	1	y	1.1393
543.8931	0.2	danser	62	verb	phrase	2	10	nomatch	trop	-1	1	y	1.1393
544.0931	0.0	+	62	verb	phrase	2	11	nomatch	trop	-1	1	y	1.1393
544.4924	0.0	+	62	verb	phrase	2	12	nomatch	trop	-1	1	y	1.1393
546.4915	0.0	TROP	62	verb	phrase	2	13	nomatch	trop	-1	1	y	1.1393
547.691	0.0	+	62	verb	phrase	2	14	nomatch	trop	-1	1	y	1.1393
547.6308	0.0	[response]	62	verb	phrase	2	15	nomatch	trop	-1	1	y	1.1393
548.8904	0.0	+	63	verb	list	4	1	nomatch	petit	-1	1	y	1.3487
549.4402	0.2	ljpcht	63	verb	list	4	2	nomatch	petit	-1	1	y	1.3487
549.6401	0.0	+	63	verb	list	4	3	nomatch	petit	-1	1	y	1.3487
550.0399	0.2	pour	63	verb	list	4	4	nomatch	petit	-1	1	y	1.3487
550.2398	0.0	+	63	verb	list	4	5	nomatch	petit	-1	1	y	1.3487
550.6397	0.2	doit	63	verb	list	4	6	nomatch	petit	-1	1	y	1.3487
550.8401	0.0	+	63	verb	list	4	7	nomatch	petit	-1	1	y	1.3487
551.2401	0.2	beau	63	verb	list	4	8	nomatch	petit	-1	1	y	1.3487
551.4393	0.0	+	63	verb	list	4	9	nomatch	petit	-1	1	y	1.3487
551.8391	0.2	parader	63	verb	list	4	10	nomatch	petit	-1	1	y	1.3487
552.039	0.0	+	63	verb	list	4	11	nomatch	petit	-1	1	y	1.3487
552.4388	0.0	+	63	verb	list	4	12	nomatch	petit	-1	1	y	1.3487
554.4379	0.0	PETIT	63	verb	list	4	13	nomatch	petit	-1	1	y	1.3487
555.854	0.0	+	63	verb	list	4	14	nomatch	petit	-1	1	y	1.3487
555.7866	0.0	[response]	63	verb	list	4	15	nomatch	petit	-1	1	y	1.3487
556.8369	0.0	+	64	verb	phrase	1	1	nomatch	peut	-1	0	p	1.0969000000000002
557.3866	0.2	ctghn	64	verb	phrase	1	2	nomatch	peut	-1	0	p	1.0969000000000002
557.5865	0.0	+	64	verb	phrase	1	3	nomatch	peut	-1	0	p	1.0969000000000002
557.9863	0.2	bnmr	64	verb	phrase	1	4	nomatch	peut	-1	0	p	1.0969000000000002
558.1862	0.0	+	64	verb	phrase	1	5	nomatch	peut	-1	0	p	1.0969000000000002
558.5861	0.2	pv	64	verb	phrase	1	6	nomatch	peut	-1	0	p	1.0969000000000002
558.786	0.0	+	64	verb	phrase	1	7	nomatch	peut	-1	0	p	1.0969000000000002
559.1858	0.2	pjtckmqb	64	verb	phrase	1	8	nomatch	peut	-1	0	p	1.0969000000000002
559.3857	0.0	+	64	verb	phrase	1	9	nomatch	peut	-1	0	p	1.0969000000000002
559.7855	0.2	voyager	64	verb	phrase	1	10	nomatch	peut	-1	0	p	1.0969000000000002
559.9854	0.0	+	64	verb	phrase	1	11	nomatch	peut	-1	0	p	1.0969000000000002
560.4026	0.0	+	64	verb	phrase	1	12	nomatch	peut	-1	0	p	1.0969000000000002
562.3844	0.0	PEUT	64	verb	phrase	1	13	nomatch	peut	-1	0	p	1.0969000000000002
563.5338	0.0	+	64	verb	phrase	1	14	nomatch	peut	-1	0	p	1.0969000000000002
563.4812	0.0	[response]	64	verb	phrase	1	15	nomatch	peut	-1	0	p	1.0969000000000002
564.7999	0.0	+	65	noun	list	2	1	match	rocher	5	1	p	0.83505
565.3497	0.2	lqpth	65	noun	list	2	2	match	rocher	5	1	p	0.83505
565.5495999999999	0.0	+	65	noun	list	2	3	match	rocher	5	1	p	0.83505
565.9494	0.2	sqxk	65	noun	list	2	4	match	rocher	5	1	p	0.83505
566.1493	0.0	+	65	noun	list	2	5	match	rocher	5	1	p	0.83505
566.5492	0.2	tqd	65	noun	list	2	6	match	rocher	5	1	p	0.83505
566.7491	0.0	+	65	noun	list	2	7	match	rocher	5	1	p	0.83505
567.1489	0.2	moins	65	noun	list	2	8	match	rocher	5	1	p	0.83505
567.3488	0.0	+	65	noun	list	2	9	match	rocher	5	1	p	0.83505
567.7493	0.2	rocher	65	noun	list	2	10	match	rocher	5	1	p	0.83505
567.9489	0.0	+	65	noun	list	2	11	match	rocher	5	1	p	0.83505
568.3483	0.0	+	65	noun	list	2	12	match	rocher	5	1	p	0.83505
570.3474	0.0	ROCHER	65	noun	list	2	13	match	rocher	5	1	p	0.83505
571.2811	0.0	+	65	noun	list	2	14	match	rocher	5	1	p	0.83505
571.1825	0.0	[response]	65	noun	list	2	15	match	rocher	5	1	p	0.83505
572.7464	0.0	+	66	verb	phrase	1	1	nomatch	sur	-1	1	y	0.77841
573.2961	0.2	vhsqfb	66	verb	phrase	1	2	nomatch	sur	-1	1	y	0.77841
573.496	0.0	+	66	verb	phrase	1	3	nomatch	sur	-1	1	y	0.77841
573.8959	0.2	tjxp	66	verb	phrase	1	4	nomatch	sur	-1	1	y	0.77841
574.0957999999999	0.0	+	66	verb	phrase	1	5	nomatch	sur	-1	1	y	0.77841
574.4956	0.2	pv	66	verb	phrase	1	6	nomatch	sur	-1	1	y	0.77841
574.6955	0.0	+	66	verb	phrase	1	7	nomatch	sur	-1	1	y	0.77841
575.1126	0.2	vzckn	66	verb	phrase	1	8	nomatch	sur	-1	1	y	0.77841
575.2952	0.0	+	66	verb	phrase	1	9	nomatch	sur	-1	1	y	0.77841
575.695	0.2	tôt	66	verb	phrase	1	10	nomatch	sur	-1	1	y	0.77841
575.895	0.0	+	66	verb	phrase	1	11	nomatch	sur	-1	1	y	0.77841
576.2948	0.0	+	66	verb	phrase	1	12	nomatch	sur	-1	1	y	0.77841
578.2939	0.0	SUR	66	verb	phrase	1	13	nomatch	sur	-1	1	y	0.77841
579.1268	0.0	+	66	verb	phrase	1	14	nomatch	sur	-1	1	y	0.77841
579.0723	0.0	[response]	66	verb	phrase	1	15	nomatch	sur	-1	1	y	0.77841
596.6856	0.0	+	67	verb	list	4	1	match	sans	2	1	p	0.97318
597.2354	0.2	hpbks	67	verb	list	4	2	match	sans	2	1	p	0.97318
597.4353	0.0	+	67	verb	list	4	3	match	sans	2	1	p	0.97318
597.8357	0.2	sans	67	verb	list	4	4	match	sans	2	1	p	0.97318
598.035	0.0	+	67	verb	list	4	5	match	sans	2	1	p	0.97318
598.4355	0.2	doit	67	verb	list	4	6	match	sans	2	1	p	0.97318
598.6347	0.0	+	67	verb	list	4	7	match	sans	2	1	p	0.97318
599.0345	0.2	petit	67	verb	list	4	8	match	sans	2	1	p	0.97318
599.2344	0.0	+	67	verb	list	4	9	match	sans	2	1	p	0.97318
599.6343	0.2	rouler	67	verb	list	4	10	match	sans	2	1	p	0.97318
599.8342	0.0	+	67	verb	list	4	11	match	sans	2	1	p	0.97318
600.234	0.0	+	67	verb	list	4	12	match	sans	2	1	p	0.97318
602.2497	0.0	SANS	67	verb	list	4	13	match	sans	2	1	p	0.97318
603.2826	0.0	+	67	verb	list	4	14	match	sans	2	1	p	0.97318
603.2229	0.0	[response]	67	verb	list	4	15	match	sans	2	1	p	0.97318
604.6487	0.0	+	68	verb	phrase	2	1	match	jongler	4	1	p	0.66614
605.1984	0.2	szb	68	verb	phrase	2	2	match	jongler	4	1	p	0.66614
605.3983	0.0	+	68	verb	phrase	2	3	match	jongler	4	1	p	0.66614
605.7982	0.2	zrb	68	verb	phrase	2	4	match	jongler	4	1	p	0.66614
605.9981	0.0	+	68	verb	phrase	2	5	match	jongler	4	1	p	0.66614
606.3979	0.2	qcpb	68	verb	phrase	2	6	match	jongler	4	1	p	0.66614
606.5978	0.0	+	68	verb	phrase	2	7	match	jongler	4	1	p	0.66614
606.9983	0.2	jongler	68	verb	phrase	2	8	match	jongler	4	1	p	0.66614
607.1975	0.0	+	68	verb	phrase	2	9	match	jongler	4	1	p	0.66614
607.5975	0.2	tard	68	verb	phrase	2	10	match	jongler	4	1	p	0.66614
607.7973	0.0	+	68	verb	phrase	2	11	match	jongler	4	1	p	0.66614
608.1971	0.0	+	68	verb	phrase	2	12	match	jongler	4	1	p	0.66614
610.1962	0.0	JONGLER	68	verb	phrase	2	13	match	jongler	4	1	p	0.66614
610.9629	0.0	+	68	verb	phrase	2	14	match	jongler	4	1	p	0.66614
610.8623	0.0	[response]	68	verb	phrase	2	15	match	jongler	4	1	p	0.66614
612.5951	0.0	+	69	noun	phrase	1	1	nomatch	grenier	-1	1	y	0.79986
613.1449	0.2	mhkxdz	69	noun	phrase	1	2	nomatch	grenier	-1	1	y	0.79986
613.3447	0.0	+	69	noun	phrase	1	3	nomatch	grenier	-1	1	y	0.79986
613.7446	0.2	crtd	69	noun	phrase	1	4	nomatch	grenier	-1	1	y	0.79986
613.9619	0.0	+	69	noun	phrase	1	5	nomatch	grenier	-1	1	y	0.79986
614.3447	0.2	rfc	69	noun	phrase	1	6	nomatch	grenier	-1	1	y	0.79986
614.5449	0.0	+	69	noun	phrase	1	7	nomatch	grenier	-1	1	y	0.79986
614.944	0.2	bsnmt	69	noun	phrase	1	8	nomatch	grenier	-1	1	y	0.79986
615.144	0.0	+	69	noun	phrase	1	9	nomatch	grenier	-1	1	y	0.79986
615.5438	0.2	panier	69	noun	phrase	1	10	nomatch	grenier	-1	1	y	0.79986
615.7437	0.0	+	69	noun	phrase	1	11	nomatch	grenier	-1	1	y	0.79986
616.1435	0.0	+	69	noun	phrase	1	12	nomatch	grenier	-1	1	y	0.79986
618.1426	0.0	GRENIER	69	noun	phrase	1	13	nomatch	grenier	-1	1	y	0.79986
619.0755	0.0	+	69	noun	phrase	1	14	nomatch	grenier	-1	1	y	0.79986
618.9425	0.0	[response]	69	noun	phrase	1	15	nomatch	grenier	-1	1	y	0.79986
620.5415	0.0	+	70	verb	list	1	1	nomatch	boîtier	-1	1	y	1.4144
621.0913	0.2	mcwtshv	70	verb	list	1	2	nomatch	boîtier	-1	1	y	1.4144
621.2912	0.0	+	70	verb	list	1	3	nomatch	boîtier	-1	1	y	1.4144
621.691	0.2	dxvn	70	verb	list	1	4	nomatch	boîtier	-1	1	y	1.4144
621.8909	0.0	+	70	verb	list	1	5	nomatch	boîtier	-1	1	y	1.4144
622.2907	0.2	xnhd	70	verb	list	1	6	nomatch	boîtier	-1	1	y	1.4144
622.4907	0.0	+	70	verb	list	1	7	nomatch	boîtier	-1	1	y	1.4144
622.8905	0.2	qlvrfsd	70	verb	list	1	8	nomatch	boîtier	-1	1	y	1.4144
623.0904	0.0	+	70	verb	list	1	9	nomatch	boîtier	-1	1	y	1.4144
623.4909	0.2	petit	70	verb	list	1	10	nomatch	boîtier	-1	1	y	1.4144
623.6901	0.0	+	70	verb	list	1	11	nomatch	boîtier	-1	1	y	1.4144
624.09	0.0	+	70	verb	list	1	12	nomatch	boîtier	-1	1	y	1.4144
626.0889999999999	0.0	BOÎTIER	70	verb	list	1	13	nomatch	boîtier	-1	1	y	1.4144
627.5551	0.0	+	70	verb	list	1	14	nomatch	boîtier	-1	1	y	1.4144
627.5033999999999	0.0	[response]	70	verb	list	1	15	nomatch	boîtier	-1	1	y	1.4144
628.4879999999999	0.0	+	71	noun	phrase	2	1	match	clavier	4	1	p	0.7430400000000001
629.0377	0.2	dqw	71	noun	phrase	2	2	match	clavier	4	1	p	0.7430400000000001
629.2376	0.0	+	71	noun	phrase	2	3	match	clavier	4	1	p	0.7430400000000001
629.6374	0.2	crtd	71	noun	phrase	2	4	match	clavier	4	1	p	0.7430400000000001
629.8374	0.0	+	71	noun	phrase	2	5	match	clavier	4	1	p	0.7430400000000001
630.2372	0.2	vfcg	71	noun	phrase	2	6	match	clavier	4	1	p	0.7430400000000001
630.4371	0.0	+	71	noun	phrase	2	7	match	clavier	4	1	p	0.7430400000000001
630.8369	0.2	clavier	71	noun	phrase	2	8	match	clavier	4	1	p	0.7430400000000001
631.0368	0.0	+	71	noun	phrase	2	9	match	clavier	4	1	p	0.7430400000000001
631.4366	0.2	rouge	71	noun	phrase	2	10	match	clavier	4	1	p	0.7430400000000001
631.6373	0.0	+	71	noun	phrase	2	11	match	clavier	4	1	p	0.7430400000000001
632.0533	0.0	+	71	noun	phrase	2	12	match	clavier	4	1	p	0.7430400000000001
634.0355	0.0	CLAVIER	71	noun	phrase	2	13	match	clavier	4	1	p	0.7430400000000001
634.8522	0.0	+	71	noun	phrase	2	14	match	clavier	4	1	p	0.7430400000000001
634.7785	0.0	[response]	71	noun	phrase	2	15	match	clavier	4	1	p	0.7430400000000001
644.4474	0.0	+	72	verb	list	4	1	nomatch	luc	-1	1	y	1.172
644.9972	0.2	nhqtcwg	72	verb	list	4	2	nomatch	luc	-1	1	y	1.172
645.1971	0.0	+	72	verb	list	4	3	nomatch	luc	-1	1	y	1.172
645.6138	0.2	marc	72	verb	list	4	4	nomatch	luc	-1	1	y	1.172
645.7971	0.0	+	72	verb	list	4	5	nomatch	luc	-1	1	y	1.172
646.1967	0.2	son	72	verb	list	4	6	nomatch	luc	-1	1	y	1.172
646.3966	0.0	+	72	verb	list	4	7	nomatch	luc	-1	1	y	1.172
646.7964	0.2	voyager	72	verb	list	4	8	nomatch	luc	-1	1	y	1.172
646.9963	0.0	+	72	verb	list	4	9	nomatch	luc	-1	1	y	1.172
647.3961	0.2	blanc	72	verb	list	4	10	nomatch	luc	-1	1	y	1.172
647.596	0.0	+	72	verb	list	4	11	nomatch	luc	-1	1	y	1.172
647.9959	0.0	+	72	verb	list	4	12	nomatch	luc	-1	1	y	1.172
649.9949	0.0	LUC	72	verb	list	4	13	nomatch	luc	-1	1	y	1.172
651.2277	0.0	+	72	verb	list	4	14	nomatch	luc	-1	1	y	1.172
651.167	0.0	[response]	72	verb	list	4	15	nomatch	luc	-1	1	y	1.172
660.3904	0.0	+	73	verb	phrase	1	1	nomatch	patiner	-1	1	y	1.3702
660.9399999999999	0.2	vnxb	73	verb	phrase	1	2	nomatch	patiner	-1	1	y	1.3702
661.1399	0.0	+	73	verb	phrase	1	3	nomatch	patiner	-1	1	y	1.3702
661.5399	0.2	sqxk	73	verb	phrase	1	4	nomatch	patiner	-1	1	y	1.3702
661.7566	0.0	+	73	verb	phrase	1	5	nomatch	patiner	-1	1	y	1.3702
662.1395	0.2	pv	73	verb	phrase	1	6	nomatch	patiner	-1	1	y	1.3702
662.34	0.0	+	73	verb	phrase	1	7	nomatch	patiner	-1	1	y	1.3702
662.7392	0.2	qghj	73	verb	phrase	1	8	nomatch	patiner	-1	1	y	1.3702
662.9391	0.0	+	73	verb	phrase	1	9	nomatch	patiner	-1	1	y	1.3702
663.3389	0.2	plonger	73	verb	phrase	1	10	nomatch	patiner	-1	1	y	1.3702
663.5389	0.0	+	73	verb	phrase	1	11	nomatch	patiner	-1	1	y	1.3702
663.9387	0.0	+	73	verb	phrase	1	12	nomatch	patiner	-1	1	y	1.3702
665.9378	0.0	PATINER	73	verb	phrase	1	13	nomatch	patiner	-1	1	y	1.3702
667.3705	0.0	+	73	verb	phrase	1	14	nomatch	patiner	-1	1	y	1.3702
667.308	0.0	[response]	73	verb	phrase	1	15	nomatch	patiner	-1	1	y	1.3702
684.3462	0.0	+	74	verb	list	1	1	match	noir	5	1	p	0.83381
684.8959	0.2	bwntq	74	verb	list	1	2	match	noir	5	1	p	0.83381
685.0957999999999	0.0	+	74	verb	list	1	3	match	noir	5	1	p	0.83381
685.4956999999999	0.2	ckfr	74	verb	list	1	4	match	noir	5	1	p	0.83381
685.6956	0.0	+	74	verb	list	1	5	match	noir	5	1	p	0.83381
686.0954	0.2	rfc	74	verb	list	1	6	match	noir	5	1	p	0.83381
686.2953	0.0	+	74	verb	list	1	7	match	noir	5	1	p	0.83381
686.6951	0.2	jwtzlhb	74	verb	list	1	8	match	noir	5	1	p	0.83381
686.895	0.0	+	74	verb	list	1	9	match	noir	5	1	p	0.83381
687.2948	0.2	noir	74	verb	list	1	10	match	noir	5	1	p	0.83381
687.4947999999999	0.0	+	74	verb	list	1	11	match	noir	5	1	p	0.83381
687.8946	0.0	+	74	verb	list	1	12	match	noir	5	1	p	0.83381
689.8937	0.0	NOIR	74	verb	list	1	13	match	noir	5	1	p	0.83381
690.7933	0.0	+	74	verb	list	1	14	match	noir	5	1	p	0.83381
690.7275	0.0	[response]	74	verb	list	1	15	match	noir	5	1	p	0.83381
708.2854	0.0	+	75	verb	list	2	1	match	parader	4	1	p	0.7809900000000001
708.8351	0.2	dqhc	75	verb	list	2	2	match	parader	4	1	p	0.7809900000000001
709.0354	0.0	+	75	verb	list	2	3	match	parader	4	1	p	0.7809900000000001
709.4349	0.2	sqxk	75	verb	list	2	4	match	parader	4	1	p	0.7809900000000001
709.6348	0.0	+	75	verb	list	2	5	match	parader	4	1	p	0.7809900000000001
710.0346	0.2	tqd	75	verb	list	2	6	match	parader	4	1	p	0.7809900000000001
710.2345	0.0	+	75	verb	list	2	7	match	parader	4	1	p	0.7809900000000001
710.6343	0.2	parader	75	verb	list	2	8	match	parader	4	1	p	0.7809900000000001
710.8342	0.0	+	75	verb	list	2	9	match	parader	4	1	p	0.7809900000000001
711.2341	0.2	blanc	75	verb	list	2	10	match	parader	4	1	p	0.7809900000000001
711.434	0.0	+	75	verb	list	2	11	match	parader	4	1	p	0.7809900000000001
711.8338	0.0	+	75	verb	list	2	12	match	parader	4	1	p	0.7809900000000001
713.85	0.0	PARADER	75	verb	list	2	13	match	parader	4	1	p	0.7809900000000001
714.6825	0.0	+	75	verb	list	2	14	match	parader	4	1	p	0.7809900000000001
714.631	0.0	[response]	75	verb	list	2	15	match	parader	4	1	p	0.7809900000000001
724.2449	0.0	+	76	verb	list	1	1	match	petit	5	1	p	0.71803
724.7946	0.2	ljbcn	76	verb	list	1	2	match	petit	5	1	p	0.71803
724.9945	0.0	+	76	verb	list	1	3	match	petit	5	1	p	0.71803
725.3945	0.2	fwdp	76	verb	list	1	4	match	petit	5	1	p	0.71803
725.5943	0.0	+	76	verb	list	1	5	match	petit	5	1	p	0.71803
725.9941	0.2	xnhd	76	verb	list	1	6	match	petit	5	1	p	0.71803
726.1943	0.0	+	76	verb	list	1	7	match	petit	5	1	p	0.71803
726.5938	0.2	jwtzlhb	76	verb	list	1	8	match	petit	5	1	p	0.71803
726.7937	0.0	+	76	verb	list	1	9	match	petit	5	1	p	0.71803
727.1935	0.2	petit	76	verb	list	1	10	match	petit	5	1	p	0.71803
727.3935	0.0	+	76	verb	list	1	11	match	petit	5	1	p	0.71803
727.7933	0.0	+	76	verb	list	1	12	match	petit	5	1	p	0.71803
729.7924	0.0	PETIT	76	verb	list	1	13	match	petit	5	1	p	0.71803
730.5754	0.0	+	76	verb	list	1	14	match	petit	5	1	p	0.71803
730.5104	0.0	[response]	76	verb	list	1	15	match	petit	5	1	p	0.71803
732.1913	0.0	+	77	verb	phrase	1	1	match	ainsi	5	1	p	0.54786
732.741	0.2	zqdcjw	77	verb	phrase	1	2	match	ainsi	5	1	p	0.54786
732.941	0.0	+	77	verb	phrase	1	3	match	ainsi	5	1	p	0.54786
733.3408	0.2	sqxk	77	verb	phrase	1	4	match	ainsi	5	1	p	0.54786
733.5407	0.0	+	77	verb	phrase	1	5	match	ainsi	5	1	p	0.54786
733.9405	0.2	pv	77	verb	phrase	1	6	match	ainsi	5	1	p	0.54786
734.1404	0.0	+	77	verb	phrase	1	7	match	ainsi	5	1	p	0.54786
734.5402	0.2	rgfchbj	77	verb	phrase	1	8	match	ainsi	5	1	p	0.54786
734.7402	0.0	+	77	verb	phrase	1	9	match	ainsi	5	1	p	0.54786
735.1407	0.2	ainsi	77	verb	phrase	1	10	match	ainsi	5	1	p	0.54786
735.3405	0.0	+	77	verb	phrase	1	11	match	ainsi	5	1	p	0.54786
735.7397	0.0	+	77	verb	phrase	1	12	match	ainsi	5	1	p	0.54786
737.7388	0.0	AINSI	77	verb	phrase	1	13	match	ainsi	5	1	p	0.54786
738.3385	0.0	+	77	verb	phrase	1	14	match	ainsi	5	1	p	0.54786
738.2867	0.0	[response]	77	verb	phrase	1	15	match	ainsi	5	1	p	0.54786
740.1377	0.0	+	78	verb	phrase	1	1	match	jongler	5	0	TIMEOUT	-1.0
740.688	0.2	xcmtskj	78	verb	phrase	1	2	match	jongler	5	0	TIMEOUT	-1.0
740.8881	0.0	+	78	verb	phrase	1	3	match	jongler	5	0	TIMEOUT	-1.0
741.2872	0.2	ckfr	78	verb	phrase	1	4	match	jongler	5	0	TIMEOUT	-1.0
741.4870999999999	0.0	+	78	verb	phrase	1	5	match	jongler	5	0	TIMEOUT	-1.0
741.8869	0.2	xnhd	78	verb	phrase	1	6	match	jongler	5	0	TIMEOUT	-1.0
742.0869	0.0	+	78	verb	phrase	1	7	match	jongler	5	0	TIMEOUT	-1.0
742.4867	0.2	kvxz	78	verb	phrase	1	8	match	jongler	5	0	TIMEOUT	-1.0
742.6866	0.0	+	78	verb	phrase	1	9	match	jongler	5	0	TIMEOUT	-1.0
743.0864	0.2	jongler	78	verb	phrase	1	10	match	jongler	5	0	TIMEOUT	-1.0
743.2863	0.0	+	78	verb	phrase	1	11	match	jongler	5	0	TIMEOUT	-1.0
743.6861	0.0	+	78	verb	phrase	1	12	match	jongler	5	0	TIMEOUT	-1.0
745.6852	0.0	JONGLER	78	verb	phrase	1	13	match	jongler	5	0	TIMEOUT	-1.0
748.1008	0.0	+	79	noun	list	1	1	match	mieux	5	1	p	0.68257
748.6839	0.2	cskghnm	79	noun	list	1	2	match	mieux	5	1	p	0.68257
748.8838	0.0	+	79	noun	list	1	3	match	mieux	5	1	p	0.68257
749.2836	0.2	tjxp	79	noun	list	1	4	match	mieux	5	1	p	0.68257
749.4836	0.0	+	79	noun	list	1	5	match	mieux	5	1	p	0.68257
749.9	0.2	tqd	79	noun	list	1	6	match	mieux	5	1	p	0.68257
750.0999	0.0	+	79	noun	list	1	7	match	mieux	5	1	p	0.68257
750.4997	0.2	nbsljmr	79	noun	list	1	8	match	mieux	5	1	p	0.68257
750.6996	0.0	+	79	noun	list	1	9	match	mieux	5	1	p	0.68257
751.0995	0.2	mieux	79	noun	list	1	10	match	mieux	5	1	p	0.68257
751.2994	0.0	+	79	noun	list	1	11	match	mieux	5	1	p	0.68257
751.6992	0.0	+	79	noun	list	1	12	match	mieux	5	1	p	0.68257
753.6983	0.0	MIEUX	79	noun	list	1	13	match	mieux	5	1	p	0.68257
754.448	0.0	+	79	noun	list	1	14	match	mieux	5	1	p	0.68257
754.3809	0.0	[response]	79	noun	list	1	15	match	mieux	5	1	p	0.68257
756.0972	0.0	+	80	verb	list	1	1	nomatch	leur	-1	1	y	0.85417
756.647	0.2	fkwrhx	80	verb	list	1	2	nomatch	leur	-1	1	y	0.85417
756.8469	0.0	+	80	verb	list	1	3	nomatch	leur	-1	1	y	0.85417
757.2467	0.2	ckfr	80	verb	list	1	4	nomatch	leur	-1	1	y	0.85417
757.4466	0.0	+	80	verb	list	1	5	nomatch	leur	-1	1	y	0.85417
757.8464	0.2	rfc	80	verb	list	1	6	nomatch	leur	-1	1	y	0.85417
758.0463	0.0	+	80	verb	list	1	7	nomatch	leur	-1	1	y	0.85417
758.4462	0.2	bsnmt	80	verb	list	1	8	nomatch	leur	-1	1	y	0.85417
758.6461	0.0	+	80	verb	list	1	9	nomatch	leur	-1	1	y	0.85417
759.0466	0.2	rouler	80	verb	list	1	10	nomatch	leur	-1	1	y	0.85417
759.2458	0.0	+	80	verb	list	1	11	nomatch	leur	-1	1	y	0.85417
759.6627	0.0	+	80	verb	list	1	12	nomatch	leur	-1	1	y	0.85417
761.6447	0.0	LEUR	80	verb	list	1	13	nomatch	leur	-1	1	y	0.85417
762.561	0.0	+	80	verb	list	1	14	nomatch	leur	-1	1	y	0.85417
764.0436	0.0	+	80	verb	list	1	15	nomatch	leur	-1	1	y	0.85417
765.0099	0.0	+	80	verb	list	1	16	nomatch	leur	-1	1	y	0.85417
765.1098	0.0	+	80	verb	list	1	17	nomatch	leur	-1	1	y	0.85417
766.5092	0.0	+	80	verb	list	1	18	nomatch	leur	-1	1	y	0.85417
766.6092	0.0	+	80	verb	list	1	19	nomatch	leur	-1	1	y	0.85417
768.0085	0.0	+	80	verb	list	1	20	nomatch	leur	-1	1	y	0.85417
768.1085	0.0	+	80	verb	list	1	21	nomatch	leur	-1	1	y	0.85417
769.5079	0.0	+	80	verb	list	1	22	nomatch	leur	-1	1	y	0.85417
769.6078	0.0	+	80	verb	list	1	23	nomatch	leur	-1	1	y	0.85417
771.0072	0.0	+	80	verb	list	1	24	nomatch	leur	-1	1	y	0.85417
771.1071	0.0	+	80	verb	list	1	25	nomatch	leur	-1	1	y	0.85417
772.5065	0.0	+	80	verb	list	1	26	nomatch	leur	-1	1	y	0.85417
772.6065	0.0	+	80	verb	list	1	27	nomatch	leur	-1	1	y	0.85417
774.0058	0.0	+	80	verb	list	1	28	nomatch	leur	-1	1	y	0.85417
774.1058	0.0	+	80	verb	list	1	29	nomatch	leur	-1	1	y	0.85417
775.5052	0.0	+	80	verb	list	1	30	nomatch	leur	-1	1	y	0.85417
775.6051	0.0	+	80	verb	list	1	31	nomatch	leur	-1	1	y	0.85417
777.0045	0.0	+	80	verb	list	1	32	nomatch	leur	-1	1	y	0.85417
777.1043999999999	0.0	+	80	verb	list	1	33	nomatch	leur	-1	1	y	0.85417
778.5038	0.0	+	80	verb	list	1	34	nomatch	leur	-1	1	y	0.85417
778.6038	0.0	+	80	verb	list	1	35	nomatch	leur	-1	1	y	0.85417
785.1508	0.0	+	80	verb	list	1	36	nomatch	leur	-1	1	y	0.85417
762.4989	0.0	[response]	80	verb	list	1	37	nomatch	leur	-1	1	y	0.85417
