onset	duration	stim	trial_number	trial_type	trial_structure	trial_length	sequential_position	probe_type	probe	probe_position	response_correct	response_key	response_time
0.05709999999999127	0.0	+	1	noun	phrase	1	1	nomatch	loin	-1	1	y	0.66033
0.5401999999999987	0.2	cwrxzv	1	noun	phrase	1	2	nomatch	loin	-1	1	y	0.66033
0.7400999999999982	0.0	+	1	noun	phrase	1	3	nomatch	loin	-1	1	y	0.66033
1.1398999999999972	0.2	cqgv	1	noun	phrase	1	4	nomatch	loin	-1	1	y	0.66033
1.3399	0.0	+	1	noun	phrase	1	5	nomatch	loin	-1	1	y	0.66033
1.7396999999999991	0.2	tqd	1	noun	phrase	1	6	nomatch	loin	-1	1	y	0.66033
1.9395999999999987	0.0	+	1	noun	phrase	1	7	nomatch	loin	-1	1	y	0.66033
2.3393999999999977	0.2	mdrcxzj	1	noun	phrase	1	8	nomatch	loin	-1	1	y	0.66033
2.5392999999999972	0.0	+	1	noun	phrase	1	9	nomatch	loin	-1	1	y	0.66033
2.9390999999999963	0.2	beau	1	noun	phrase	1	10	nomatch	loin	-1	1	y	0.66033
3.138999999999996	0.0	+	1	noun	phrase	1	11	nomatch	loin	-1	1	y	0.66033
3.538899999999998	0.0	+	1	noun	phrase	1	12	nomatch	loin	-1	1	y	0.66033
5.538399999999996	0.0	LOIN	1	noun	phrase	1	13	nomatch	loin	-1	1	y	0.66033
6.3048	0.0	+	1	noun	phrase	1	14	nomatch	loin	-1	1	y	0.66033
6.198699999999988	0.0	[response]	1	noun	phrase	1	15	nomatch	loin	-1	1	y	0.66033
7.936899999999994	0.0	+	2	noun	phrase	1	1	match	clavier	5	1	p	0.66677
8.486599999999996	0.2	qtk	2	noun	phrase	1	2	match	clavier	5	1	p	0.66677
8.686599999999999	0.0	+	2	noun	phrase	1	3	match	clavier	5	1	p	0.66677
9.086999999999989	0.2	wpc	2	noun	phrase	1	4	match	clavier	5	1	p	0.66677
9.286299999999997	0.0	+	2	noun	phrase	1	5	match	clavier	5	1	p	0.66677
9.686099999999996	0.2	vfcg	2	noun	phrase	1	6	match	clavier	5	1	p	0.66677
9.885999999999996	0.0	+	2	noun	phrase	1	7	match	clavier	5	1	p	0.66677
10.285799999999995	0.2	vlpmt	2	noun	phrase	1	8	match	clavier	5	1	p	0.66677
10.485699999999994	0.0	+	2	noun	phrase	1	9	match	clavier	5	1	p	0.66677
10.885599999999997	0.2	clavier	2	noun	phrase	1	10	match	clavier	5	1	p	0.66677
11.085499999999996	0.0	+	2	noun	phrase	1	11	match	clavier	5	1	p	0.66677
11.485599999999991	0.0	+	2	noun	phrase	1	12	match	clavier	5	1	p	0.66677
13.484399999999994	0.0	CLAVIER	2	noun	phrase	1	13	match	clavier	5	1	p	0.66677
14.217399999999998	0.0	+	2	noun	phrase	1	14	match	clavier	5	1	p	0.66677
14.151199999999989	0.0	[response]	2	noun	phrase	1	15	match	clavier	5	1	p	0.66677
15.899999999999991	0.0	+	3	noun	list	3	1	nomatch	mieux	-1	1	y	0.70969
16.449699999999993	0.2	pjtxgmq	3	noun	list	3	2	nomatch	mieux	-1	1	y	0.70969
16.649599999999992	0.0	+	3	noun	list	3	3	nomatch	mieux	-1	1	y	0.70969
17.049499999999995	0.2	sqxk	3	noun	list	3	4	nomatch	mieux	-1	1	y	0.70969
17.249399999999994	0.0	+	3	noun	list	3	5	nomatch	mieux	-1	1	y	0.70969
17.649199999999993	0.2	son	3	noun	list	3	6	nomatch	mieux	-1	1	y	0.70969
17.8497	0.0	+	3	noun	list	3	7	nomatch	mieux	-1	1	y	0.70969
18.2491	0.2	moins	3	noun	list	3	8	nomatch	mieux	-1	1	y	0.70969
18.44879999999999	0.0	+	3	noun	list	3	9	nomatch	mieux	-1	1	y	0.70969
18.848699999999994	0.2	panier	3	noun	list	3	10	nomatch	mieux	-1	1	y	0.70969
19.048599999999993	0.0	+	3	noun	list	3	11	nomatch	mieux	-1	1	y	0.70969
19.448399999999992	0.0	+	3	noun	list	3	12	nomatch	mieux	-1	1	y	0.70969
21.4482	0.0	MIEUX	3	noun	list	3	13	nomatch	mieux	-1	1	y	0.70969
22.213799999999992	0.0	+	3	noun	list	3	14	nomatch	mieux	-1	1	y	0.70969
22.157899999999998	0.0	[response]	3	noun	list	3	15	nomatch	mieux	-1	1	y	0.70969
23.84639999999999	0.0	+	4	noun	phrase	1	1	match	boîtier	5	1	p	0.63519
24.396599999999992	0.2	nch	4	noun	phrase	1	2	match	boîtier	5	1	p	0.63519
24.59639999999999	0.0	+	4	noun	phrase	1	3	match	boîtier	5	1	p	0.63519
24.9961	0.2	zbvr	4	noun	phrase	1	4	match	boîtier	5	1	p	0.63519
25.19579999999999	0.0	+	4	noun	phrase	1	5	match	boîtier	5	1	p	0.63519
25.59559999999999	0.2	tqd	4	noun	phrase	1	6	match	boîtier	5	1	p	0.63519
25.79549999999999	0.0	+	4	noun	phrase	1	7	match	boîtier	5	1	p	0.63519
26.19529999999999	0.2	dhgl	4	noun	phrase	1	8	match	boîtier	5	1	p	0.63519
26.39529999999999	0.0	+	4	noun	phrase	1	9	match	boîtier	5	1	p	0.63519
26.79509999999999	0.2	boîtier	4	noun	phrase	1	10	match	boîtier	5	1	p	0.63519
26.99499999999999	0.0	+	4	noun	phrase	1	11	match	boîtier	5	1	p	0.63519
27.39479999999999	0.0	+	4	noun	phrase	1	12	match	boîtier	5	1	p	0.63519
29.394299999999987	0.0	BOÎTIER	4	noun	phrase	1	13	match	boîtier	5	1	p	0.63519
30.093599999999995	0.0	+	4	noun	phrase	1	14	match	boîtier	5	1	p	0.63519
30.029399999999995	0.0	[response]	4	noun	phrase	1	15	match	boîtier	5	1	p	0.63519
47.80299999999998	0.0	+	5	noun	list	4	1	match	moins	4	1	p	0.82639
48.336	0.2	vbmlkg	5	noun	list	4	2	match	moins	4	1	p	0.82639
48.535700000000006	0.0	+	5	noun	list	4	3	match	moins	4	1	p	0.82639
48.93509999999999	0.2	adam	5	noun	list	4	4	match	moins	4	1	p	0.82639
49.135000000000005	0.0	+	5	noun	list	4	5	match	moins	4	1	p	0.82639
49.534800000000004	0.2	son	5	noun	list	4	6	match	moins	4	1	p	0.82639
49.73469999999999	0.0	+	5	noun	list	4	7	match	moins	4	1	p	0.82639
50.13459999999999	0.2	moins	5	noun	list	4	8	match	moins	4	1	p	0.82639
50.334500000000006	0.0	+	5	noun	list	4	9	match	moins	4	1	p	0.82639
50.734300000000005	0.2	casier	5	noun	list	4	10	match	moins	4	1	p	0.82639
50.93419999999999	0.0	+	5	noun	list	4	11	match	moins	4	1	p	0.82639
51.33399999999999	0.0	+	5	noun	list	4	12	match	moins	4	1	p	0.82639
53.3505	0.0	MOINS	5	noun	list	4	13	match	moins	4	1	p	0.82639
54.23269999999998	0.0	+	5	noun	list	4	14	match	moins	4	1	p	0.82639
54.1769	0.0	[response]	5	noun	list	4	15	match	moins	4	1	p	0.82639
63.77839999999999	0.0	+	6	verb	list	3	1	match	jongler	5	1	p	0.8463400000000001
64.295	0.2	rzdmb	6	verb	list	3	2	match	jongler	5	1	p	0.8463400000000001
64.4953	0.0	+	6	verb	list	3	3	match	jongler	5	1	p	0.8463400000000001
64.89459999999998	0.2	cqgv	6	verb	list	3	4	match	jongler	5	1	p	0.8463400000000001
65.0945	0.0	+	6	verb	list	3	5	match	jongler	5	1	p	0.8463400000000001
65.4943	0.2	peut	6	verb	list	3	6	match	jongler	5	1	p	0.8463400000000001
65.69419999999998	0.0	+	6	verb	list	3	7	match	jongler	5	1	p	0.8463400000000001
66.09409999999998	0.2	petit	6	verb	list	3	8	match	jongler	5	1	p	0.8463400000000001
66.294	0.0	+	6	verb	list	3	9	match	jongler	5	1	p	0.8463400000000001
66.6938	0.2	jongler	6	verb	list	3	10	match	jongler	5	1	p	0.8463400000000001
66.89369999999998	0.0	+	6	verb	list	3	11	match	jongler	5	1	p	0.8463400000000001
67.29349999999998	0.0	+	6	verb	list	3	12	match	jongler	5	1	p	0.8463400000000001
69.2931	0.0	JONGLER	6	verb	list	3	13	match	jongler	5	1	p	0.8463400000000001
70.1922	0.0	+	6	verb	list	3	14	match	jongler	5	1	p	0.8463400000000001
70.13940000000001	0.0	[response]	6	verb	list	3	15	match	jongler	5	1	p	0.8463400000000001
71.6915	0.0	+	7	noun	list	3	1	nomatch	mon	-1	1	y	1.0204
72.24129999999998	0.2	jtqsl	7	noun	list	3	2	nomatch	mon	-1	1	y	1.0204
72.4412	0.0	+	7	noun	list	3	3	nomatch	mon	-1	1	y	1.0204
72.841	0.2	tjxp	7	noun	list	3	4	nomatch	mon	-1	1	y	1.0204
73.04090000000001	0.0	+	7	noun	list	3	5	nomatch	mon	-1	1	y	1.0204
73.44099999999999	0.2	leur	7	noun	list	3	6	nomatch	mon	-1	1	y	1.0204
73.6409	0.0	+	7	noun	list	3	7	nomatch	mon	-1	1	y	1.0204
74.04119999999999	0.2	beaucoup	7	noun	list	3	8	nomatch	mon	-1	1	y	1.0204
74.2409	0.0	+	7	noun	list	3	9	nomatch	mon	-1	1	y	1.0204
74.64020000000001	0.2	casier	7	noun	list	3	10	nomatch	mon	-1	1	y	1.0204
74.84009999999999	0.0	+	7	noun	list	3	11	nomatch	mon	-1	1	y	1.0204
75.23989999999999	0.0	+	7	noun	list	3	12	nomatch	mon	-1	1	y	1.0204
77.23899999999999	0.0	MON	7	noun	list	3	13	nomatch	mon	-1	1	y	1.0204
78.38859999999998	0.0	+	7	noun	list	3	14	nomatch	mon	-1	1	y	1.0204
78.25939999999999	0.0	[response]	7	noun	list	3	15	nomatch	mon	-1	1	y	1.0204
87.63439999999999	0.0	+	8	noun	phrase	3	1	match	son	3	1	p	0.8131500000000002
88.1847	0.2	bqvw	8	noun	phrase	3	2	match	son	3	1	p	0.8131500000000002
88.3847	0.0	+	8	noun	phrase	3	3	match	son	3	1	p	0.8131500000000002
88.78439999999999	0.2	fwdp	8	noun	phrase	3	4	match	son	3	1	p	0.8131500000000002
88.98440000000001	0.0	+	8	noun	phrase	3	5	match	son	3	1	p	0.8131500000000002
89.38359999999999	0.2	son	8	noun	phrase	3	6	match	son	3	1	p	0.8131500000000002
89.60009999999998	0.0	+	8	noun	phrase	3	7	match	son	3	1	p	0.8131500000000002
89.99999999999999	0.2	petit	8	noun	phrase	3	8	match	son	3	1	p	0.8131500000000002
90.1999	0.0	+	8	noun	phrase	3	9	match	son	3	1	p	0.8131500000000002
90.5997	0.2	sablier	8	noun	phrase	3	10	match	son	3	1	p	0.8131500000000002
90.79959999999998	0.0	+	8	noun	phrase	3	11	match	son	3	1	p	0.8131500000000002
91.19939999999998	0.0	+	8	noun	phrase	3	12	match	son	3	1	p	0.8131500000000002
93.19849999999998	0.0	SON	8	noun	phrase	3	13	match	son	3	1	p	0.8131500000000002
94.0648	0.0	+	8	noun	phrase	3	14	match	son	3	1	p	0.8131500000000002
94.0117	0.0	[response]	8	noun	phrase	3	15	match	son	3	1	p	0.8131500000000002
95.59740000000001	0.0	+	9	noun	list	3	1	nomatch	boîtier	-1	1	y	0.9738
96.14719999999998	0.2	pzxrnbl	9	noun	list	3	2	nomatch	boîtier	-1	1	y	0.9738
96.3471	0.0	+	9	noun	list	3	3	nomatch	boîtier	-1	1	y	0.9738
96.7469	0.2	zrb	9	noun	list	3	4	nomatch	boîtier	-1	1	y	0.9738
96.94689999999999	0.0	+	9	noun	list	3	5	nomatch	boîtier	-1	1	y	0.9738
97.34669999999998	0.2	leur	9	noun	list	3	6	nomatch	boîtier	-1	1	y	0.9738
97.5466	0.0	+	9	noun	list	3	7	nomatch	boîtier	-1	1	y	0.9738
97.94699999999999	0.2	plus	9	noun	list	3	8	nomatch	boîtier	-1	1	y	0.9738
98.1468	0.0	+	9	noun	list	3	9	nomatch	boîtier	-1	1	y	0.9738
98.54609999999998	0.2	grenier	9	noun	list	3	10	nomatch	boîtier	-1	1	y	0.9738
98.746	0.0	+	9	noun	list	3	11	nomatch	boîtier	-1	1	y	0.9738
99.1458	0.0	+	9	noun	list	3	12	nomatch	boîtier	-1	1	y	0.9738
101.145	0.0	BOÎTIER	9	noun	list	3	13	nomatch	boîtier	-1	1	y	0.9738
102.1778	0.0	+	9	noun	list	3	14	nomatch	boîtier	-1	1	y	0.9738
102.11880000000001	0.0	[response]	9	noun	list	3	15	nomatch	boîtier	-1	1	y	0.9738
103.5439	0.0	+	10	noun	list	4	1	nomatch	sans	-1	1	y	1.0241
104.0936	0.2	dktwjxh	10	noun	list	4	2	nomatch	sans	-1	1	y	1.0241
104.29349999999998	0.0	+	10	noun	list	4	3	nomatch	sans	-1	1	y	1.0241
104.69339999999998	0.2	avec	10	noun	list	4	4	nomatch	sans	-1	1	y	1.0241
104.8933	0.0	+	10	noun	list	4	5	nomatch	sans	-1	1	y	1.0241
105.2931	0.2	va	10	noun	list	4	6	nomatch	sans	-1	1	y	1.0241
105.49299999999998	0.0	+	10	noun	list	4	7	nomatch	sans	-1	1	y	1.0241
105.89279999999998	0.2	tablier	10	noun	list	4	8	nomatch	sans	-1	1	y	1.0241
106.09339999999999	0.0	+	10	noun	list	4	9	nomatch	sans	-1	1	y	1.0241
106.4926	0.2	vite	10	noun	list	4	10	nomatch	sans	-1	1	y	1.0241
106.69249999999998	0.0	+	10	noun	list	4	11	nomatch	sans	-1	1	y	1.0241
107.09229999999998	0.0	+	10	noun	list	4	12	nomatch	sans	-1	1	y	1.0241
109.10879999999999	0.0	SANS	10	noun	list	4	13	nomatch	sans	-1	1	y	1.0241
110.19089999999998	0.0	+	10	noun	list	4	14	nomatch	sans	-1	1	y	1.0241
110.13279999999999	0.0	[response]	10	noun	list	4	15	nomatch	sans	-1	1	y	1.0241
111.4903	0.0	+	11	noun	list	1	1	nomatch	jean	-1	1	y	0.72182
112.04	0.2	hfcdbw	11	noun	list	1	2	nomatch	jean	-1	1	y	0.72182
112.24	0.0	+	11	noun	list	1	3	nomatch	jean	-1	1	y	0.72182
112.6398	0.2	lbvx	11	noun	list	1	4	nomatch	jean	-1	1	y	0.72182
112.83970000000001	0.0	+	11	noun	list	1	5	nomatch	jean	-1	1	y	0.72182
113.2395	0.2	pv	11	noun	list	1	6	nomatch	jean	-1	1	y	0.72182
113.43989999999998	0.0	+	11	noun	list	1	7	nomatch	jean	-1	1	y	0.72182
113.83989999999999	0.2	lkdjn	11	noun	list	1	8	nomatch	jean	-1	1	y	0.72182
114.05639999999998	0.0	+	11	noun	list	1	9	nomatch	jean	-1	1	y	0.72182
114.43929999999999	0.2	sablier	11	noun	list	1	10	nomatch	jean	-1	1	y	0.72182
114.639	0.0	+	11	noun	list	1	11	nomatch	jean	-1	1	y	0.72182
115.03869999999999	0.0	+	11	noun	list	1	12	nomatch	jean	-1	1	y	0.72182
117.03779999999999	0.0	JEAN	11	noun	list	1	13	nomatch	jean	-1	1	y	0.72182
117.8208	0.0	+	11	noun	list	1	14	nomatch	jean	-1	1	y	0.72182
117.75960000000002	0.0	[response]	11	noun	list	1	15	nomatch	jean	-1	1	y	0.72182
119.43669999999999	0.0	+	12	noun	list	4	1	match	doit	3	1	p	0.91244
119.98649999999999	0.2	gwjldsk	12	noun	list	4	2	match	doit	3	1	p	0.91244
120.1864	0.0	+	12	noun	list	4	3	match	doit	3	1	p	0.91244
120.5862	0.2	pour	12	noun	list	4	4	match	doit	3	1	p	0.91244
120.7862	0.0	+	12	noun	list	4	5	match	doit	3	1	p	0.91244
121.18669999999999	0.2	doit	12	noun	list	4	6	match	doit	3	1	p	0.91244
121.3858	0.0	+	12	noun	list	4	7	match	doit	3	1	p	0.91244
121.78599999999999	0.2	boîtier	12	noun	list	4	8	match	doit	3	1	p	0.91244
121.98610000000001	0.0	+	12	noun	list	4	9	match	doit	3	1	p	0.91244
122.40229999999998	0.2	ainsi	12	noun	list	4	10	match	doit	3	1	p	0.91244
122.5853	0.0	+	12	noun	list	4	11	match	doit	3	1	p	0.91244
122.9851	0.0	+	12	noun	list	4	12	match	doit	3	1	p	0.91244
124.9842	0.0	DOIT	12	noun	list	4	13	match	doit	3	1	p	0.91244
125.95049999999999	0.0	+	12	noun	list	4	14	match	doit	3	1	p	0.91244
125.8967	0.0	[response]	12	noun	list	4	15	match	doit	3	1	p	0.91244
127.39979999999998	0.0	+	13	noun	list	2	1	match	clavier	5	1	p	0.59884
127.94959999999999	0.2	jvdpw	13	noun	list	2	2	match	clavier	5	1	p	0.59884
128.1495	0.0	+	13	noun	list	2	3	match	clavier	5	1	p	0.59884
128.54930000000002	0.2	zrb	13	noun	list	2	4	match	clavier	5	1	p	0.59884
128.74919999999997	0.0	+	13	noun	list	2	5	match	clavier	5	1	p	0.59884
129.149	0.2	vfcg	13	noun	list	2	6	match	clavier	5	1	p	0.59884
129.34890000000001	0.0	+	13	noun	list	2	7	match	clavier	5	1	p	0.59884
129.74880000000002	0.2	moins	13	noun	list	2	8	match	clavier	5	1	p	0.59884
129.94869999999997	0.0	+	13	noun	list	2	9	match	clavier	5	1	p	0.59884
130.34890000000001	0.2	clavier	13	noun	list	2	10	match	clavier	5	1	p	0.59884
130.5489	0.0	+	13	noun	list	2	11	match	clavier	5	1	p	0.59884
130.9484	0.0	+	13	noun	list	2	12	match	clavier	5	1	p	0.59884
132.9479	0.0	CLAVIER	13	noun	list	2	13	match	clavier	5	1	p	0.59884
133.6477	0.0	+	13	noun	list	2	14	match	clavier	5	1	p	0.59884
133.54680000000002	0.0	[response]	13	noun	list	2	15	match	clavier	5	1	p	0.59884
135.3462	0.0	+	14	verb	phrase	2	1	nomatch	parader	-1	1	y	0.64781
135.89600000000002	0.2	csnjf	14	verb	phrase	2	2	nomatch	parader	-1	1	y	0.64781
136.09589999999997	0.0	+	14	verb	phrase	2	3	nomatch	parader	-1	1	y	0.64781
136.4957	0.2	qlzg	14	verb	phrase	2	4	nomatch	parader	-1	1	y	0.64781
136.6956	0.0	+	14	verb	phrase	2	5	nomatch	parader	-1	1	y	0.64781
137.09539999999998	0.2	pv	14	verb	phrase	2	6	nomatch	parader	-1	1	y	0.64781
137.29559999999998	0.0	+	14	verb	phrase	2	7	nomatch	parader	-1	1	y	0.64781
137.69580000000002	0.2	plonger	14	verb	phrase	2	8	nomatch	parader	-1	1	y	0.64781
137.8956	0.0	+	14	verb	phrase	2	9	nomatch	parader	-1	1	y	0.64781
138.29500000000002	0.2	vite	14	verb	phrase	2	10	nomatch	parader	-1	1	y	0.64781
138.5122	0.0	+	14	verb	phrase	2	11	nomatch	parader	-1	1	y	0.64781
138.89459999999997	0.0	+	14	verb	phrase	2	12	nomatch	parader	-1	1	y	0.64781
140.89369999999997	0.0	PARADER	14	verb	phrase	2	13	nomatch	parader	-1	1	y	0.64781
141.59339999999997	0.0	+	14	verb	phrase	2	14	nomatch	parader	-1	1	y	0.64781
141.54149999999998	0.0	[response]	14	verb	phrase	2	15	nomatch	parader	-1	1	y	0.64781
143.2926	0.0	+	15	noun	phrase	4	1	match	noir	5	1	p	0.85294
143.8424	0.2	pxm	15	noun	phrase	4	2	match	noir	5	1	p	0.85294
144.0423	0.0	+	15	noun	phrase	4	3	match	noir	5	1	p	0.85294
144.44209999999998	0.2	vers	15	noun	phrase	4	4	match	noir	5	1	p	0.85294
144.64209999999997	0.0	+	15	noun	phrase	4	5	match	noir	5	1	p	0.85294
145.0426	0.2	son	15	noun	phrase	4	6	match	noir	5	1	p	0.85294
145.2423	0.0	+	15	noun	phrase	4	7	match	noir	5	1	p	0.85294
145.64159999999998	0.2	boîtier	15	noun	phrase	4	8	match	noir	5	1	p	0.85294
145.84159999999997	0.0	+	15	noun	phrase	4	9	match	noir	5	1	p	0.85294
146.24129999999997	0.2	noir	15	noun	phrase	4	10	match	noir	5	1	p	0.85294
146.44119999999998	0.0	+	15	noun	phrase	4	11	match	noir	5	1	p	0.85294
146.84109999999998	0.0	+	15	noun	phrase	4	12	match	noir	5	1	p	0.85294
148.84089999999998	0.0	NOIR	15	noun	phrase	4	13	match	noir	5	1	p	0.85294
149.7903	0.0	+	15	noun	phrase	4	14	match	noir	5	1	p	0.85294
149.6938	0.0	[response]	15	noun	phrase	4	15	match	noir	5	1	p	0.85294
159.23610000000002	0.0	+	16	noun	list	4	1	match	sur	2	1	p	1.0151
159.80239999999998	0.2	csvmgk	16	noun	list	4	2	match	sur	2	1	p	1.0151
159.98539999999997	0.0	+	16	noun	list	4	3	match	sur	2	1	p	1.0151
160.3856	0.2	sur	16	noun	list	4	4	match	sur	2	1	p	1.0151
160.5849	0.0	+	16	noun	list	4	5	match	sur	2	1	p	1.0151
160.98469999999998	0.2	peut	16	noun	list	4	6	match	sur	2	1	p	1.0151
161.1846	0.0	+	16	noun	list	4	7	match	sur	2	1	p	1.0151
161.58440000000002	0.2	rocher	16	noun	list	4	8	match	sur	2	1	p	1.0151
161.78429999999997	0.0	+	16	noun	list	4	9	match	sur	2	1	p	1.0151
162.18419999999998	0.2	loin	16	noun	list	4	10	match	sur	2	1	p	1.0151
162.3841	0.0	+	16	noun	list	4	11	match	sur	2	1	p	1.0151
162.7842	0.0	+	16	noun	list	4	12	match	sur	2	1	p	1.0151
164.79969999999997	0.0	SUR	16	noun	list	4	13	match	sur	2	1	p	1.0151
165.8825	0.0	+	16	noun	list	4	14	match	sur	2	1	p	1.0151
165.81480000000005	0.0	[response]	16	noun	list	4	15	match	sur	2	1	p	1.0151
167.1986	0.0	+	17	verb	phrase	1	1	match	ainsi	5	0	y	1.0542
167.74829999999997	0.2	cvfjp	17	verb	phrase	1	2	match	ainsi	5	0	y	1.0542
167.94819999999999	0.0	+	17	verb	phrase	1	3	match	ainsi	5	0	y	1.0542
168.348	0.2	nxwc	17	verb	phrase	1	4	match	ainsi	5	0	y	1.0542
168.548	0.0	+	17	verb	phrase	1	5	match	ainsi	5	0	y	1.0542
168.94779999999997	0.2	xnhd	17	verb	phrase	1	6	match	ainsi	5	0	y	1.0542
169.1477	0.0	+	17	verb	phrase	1	7	match	ainsi	5	0	y	1.0542
169.5475	0.2	xlphzs	17	verb	phrase	1	8	match	ainsi	5	0	y	1.0542
169.74739999999997	0.0	+	17	verb	phrase	1	9	match	ainsi	5	0	y	1.0542
170.1472	0.2	ainsi	17	verb	phrase	1	10	match	ainsi	5	0	y	1.0542
170.3472	0.0	+	17	verb	phrase	1	11	match	ainsi	5	0	y	1.0542
170.747	0.0	+	17	verb	phrase	1	12	match	ainsi	5	0	y	1.0542
172.7461	0.0	AINSI	17	verb	phrase	1	13	match	ainsi	5	0	y	1.0542
173.86219999999997	0.0	+	17	verb	phrase	1	14	match	ainsi	5	0	y	1.0542
173.80030000000005	0.0	[response]	17	verb	phrase	1	15	match	ainsi	5	0	y	1.0542
175.14499999999998	0.0	+	18	verb	phrase	4	1	nomatch	loin	-1	1	y	1.095
175.69469999999995	0.2	slfc	18	verb	phrase	4	2	nomatch	loin	-1	1	y	1.095
175.8947	0.0	+	18	verb	phrase	4	3	nomatch	loin	-1	1	y	1.095
176.29449999999997	0.2	paul	18	verb	phrase	4	4	nomatch	loin	-1	1	y	1.095
176.49439999999998	0.0	+	18	verb	phrase	4	5	nomatch	loin	-1	1	y	1.095
176.89419999999996	0.2	doit	18	verb	phrase	4	6	nomatch	loin	-1	1	y	1.095
177.09409999999997	0.0	+	18	verb	phrase	4	7	nomatch	loin	-1	1	y	1.095
177.4939	0.2	rouler	18	verb	phrase	4	8	nomatch	loin	-1	1	y	1.095
177.69379999999995	0.0	+	18	verb	phrase	4	9	nomatch	loin	-1	1	y	1.095
178.11059999999998	0.2	vite	18	verb	phrase	4	10	nomatch	loin	-1	1	y	1.095
178.29359999999997	0.0	+	18	verb	phrase	4	11	nomatch	loin	-1	1	y	1.095
178.69379999999995	0.0	+	18	verb	phrase	4	12	nomatch	loin	-1	1	y	1.095
180.6925	0.0	LOIN	18	verb	phrase	4	13	nomatch	loin	-1	1	y	1.095
181.84199999999998	0.0	+	18	verb	phrase	4	14	nomatch	loin	-1	1	y	1.095
181.78749999999997	0.0	[response]	18	verb	phrase	4	15	nomatch	loin	-1	1	y	1.095
183.09139999999996	0.0	+	19	noun	phrase	1	1	match	casier	5	1	p	0.50169
183.64119999999997	0.2	xfm	19	noun	phrase	1	2	match	casier	5	1	p	0.50169
183.84109999999998	0.0	+	19	noun	phrase	1	3	match	casier	5	1	p	0.50169
184.24089999999995	0.2	lbvx	19	noun	phrase	1	4	match	casier	5	1	p	0.50169
184.44079999999997	0.0	+	19	noun	phrase	1	5	match	casier	5	1	p	0.50169
184.8406	0.2	vfcg	19	noun	phrase	1	6	match	casier	5	1	p	0.50169
185.04059999999998	0.0	+	19	noun	phrase	1	7	match	casier	5	1	p	0.50169
185.44039999999995	0.2	mgcl	19	noun	phrase	1	8	match	casier	5	1	p	0.50169
185.64029999999997	0.0	+	19	noun	phrase	1	9	match	casier	5	1	p	0.50169
186.05739999999997	0.2	casier	19	noun	phrase	1	10	match	casier	5	1	p	0.50169
186.2405	0.0	+	19	noun	phrase	1	11	match	casier	5	1	p	0.50169
186.63979999999998	0.0	+	19	noun	phrase	1	12	match	casier	5	1	p	0.50169
188.63899999999995	0.0	CASIER	19	noun	phrase	1	13	match	casier	5	1	p	0.50169
189.20569999999998	0.0	+	19	noun	phrase	1	14	match	casier	5	1	p	0.50169
189.14069999999998	0.0	[response]	19	noun	phrase	1	15	match	casier	5	1	p	0.50169
191.03789999999998	0.0	+	20	noun	list	1	1	nomatch	vite	-1	1	y	0.59814
191.58819999999997	0.2	cqrnhwb	20	noun	list	1	2	nomatch	vite	-1	1	y	0.59814
191.78799999999995	0.0	+	20	noun	list	1	3	nomatch	vite	-1	1	y	0.59814
192.18809999999996	0.2	zbvr	20	noun	list	1	4	nomatch	vite	-1	1	y	0.59814
192.38799999999998	0.0	+	20	noun	list	1	5	nomatch	vite	-1	1	y	0.59814
192.78709999999995	0.2	xnhd	20	noun	list	1	6	nomatch	vite	-1	1	y	0.59814
192.98699999999997	0.0	+	20	noun	list	1	7	nomatch	vite	-1	1	y	0.59814
193.3868	0.2	ljtbrx	20	noun	list	1	8	nomatch	vite	-1	1	y	0.59814
193.5867	0.0	+	20	noun	list	1	9	nomatch	vite	-1	1	y	0.59814
193.98649999999998	0.2	tard	20	noun	list	1	10	nomatch	vite	-1	1	y	0.59814
194.1864	0.0	+	20	noun	list	1	11	nomatch	vite	-1	1	y	0.59814
194.5863	0.0	+	20	noun	list	1	12	nomatch	vite	-1	1	y	0.59814
196.60269999999997	0.0	VITE	20	noun	list	1	13	nomatch	vite	-1	1	y	0.59814
197.26889999999997	0.0	+	20	noun	list	1	14	nomatch	vite	-1	1	y	0.59814
197.20079999999996	0.0	[response]	20	noun	list	1	15	nomatch	vite	-1	1	y	0.59814
198.98429999999996	0.0	+	21	verb	list	3	1	nomatch	jean	-1	1	y	1.1126000000000003
199.534	0.2	xfjlzk	21	verb	list	3	2	nomatch	jean	-1	1	y	1.1126000000000003
199.7339	0.0	+	21	verb	list	3	3	nomatch	jean	-1	1	y	1.1126000000000003
200.13369999999998	0.2	nxwc	21	verb	list	3	4	nomatch	jean	-1	1	y	1.1126000000000003
200.33369999999996	0.0	+	21	verb	list	3	5	nomatch	jean	-1	1	y	1.1126000000000003
200.75009999999997	0.2	leur	21	verb	list	3	6	nomatch	jean	-1	1	y	1.1126000000000003
200.95009999999996	0.0	+	21	verb	list	3	7	nomatch	jean	-1	1	y	1.1126000000000003
201.3671	0.2	jongler	21	verb	list	3	8	nomatch	jean	-1	1	y	1.1126000000000003
201.5501	0.0	+	21	verb	list	3	9	nomatch	jean	-1	1	y	1.1126000000000003
201.94959999999998	0.2	blanc	21	verb	list	3	10	nomatch	jean	-1	1	y	1.1126000000000003
202.15009999999995	0.0	+	21	verb	list	3	11	nomatch	jean	-1	1	y	1.1126000000000003
202.5494	0.0	+	21	verb	list	3	12	nomatch	jean	-1	1	y	1.1126000000000003
204.54839999999996	0.0	JEAN	21	verb	list	3	13	nomatch	jean	-1	1	y	1.1126000000000003
205.71459999999996	0.0	+	21	verb	list	3	14	nomatch	jean	-1	1	y	1.1126000000000003
205.66109999999998	0.0	[response]	21	verb	list	3	15	nomatch	jean	-1	1	y	1.1126000000000003
206.94739999999996	0.0	+	22	noun	list	2	1	nomatch	sous	-1	1	y	0.74597
207.4971	0.2	rqstv	22	noun	list	2	2	nomatch	sous	-1	1	y	0.74597
207.697	0.0	+	22	noun	list	2	3	nomatch	sous	-1	1	y	0.74597
208.09679999999997	0.2	lbvx	22	noun	list	2	4	nomatch	sous	-1	1	y	0.74597
208.29679999999996	0.0	+	22	noun	list	2	5	nomatch	sous	-1	1	y	0.74597
208.69669999999996	0.2	qcpb	22	noun	list	2	6	nomatch	sous	-1	1	y	0.74597
208.8965	0.0	+	22	noun	list	2	7	nomatch	sous	-1	1	y	0.74597
209.29629999999997	0.2	clavier	22	noun	list	2	8	nomatch	sous	-1	1	y	0.74597
209.4962	0.0	+	22	noun	list	2	9	nomatch	sous	-1	1	y	0.74597
209.8963	0.2	loin	22	noun	list	2	10	nomatch	sous	-1	1	y	0.74597
210.11329999999998	0.0	+	22	noun	list	2	11	nomatch	sous	-1	1	y	0.74597
210.49579999999997	0.0	+	22	noun	list	2	12	nomatch	sous	-1	1	y	0.74597
212.4948	0.0	SOUS	22	noun	list	2	13	nomatch	sous	-1	1	y	0.74597
213.36179999999996	0.0	+	22	noun	list	2	14	nomatch	sous	-1	1	y	0.74597
213.24080000000004	0.0	[response]	22	noun	list	2	15	nomatch	sous	-1	1	y	0.74597
214.8938	0.0	+	23	verb	list	4	1	match	peut	3	0	y	0.95145
215.44349999999997	0.2	txhg	23	verb	list	4	2	match	peut	3	0	y	0.95145
215.64339999999999	0.0	+	23	verb	list	4	3	match	peut	3	0	y	0.95145
216.0433	0.2	vers	23	verb	list	4	4	match	peut	3	0	y	0.95145
216.24379999999996	0.0	+	23	verb	list	4	5	match	peut	3	0	y	0.95145
216.64299999999997	0.2	peut	23	verb	list	4	6	match	peut	3	0	y	0.95145
216.8429	0.0	+	23	verb	list	4	7	match	peut	3	0	y	0.95145
217.243	0.2	vieux	23	verb	list	4	8	match	peut	3	0	y	0.95145
217.44259999999997	0.0	+	23	verb	list	4	9	match	peut	3	0	y	0.95145
217.84249999999997	0.2	nager	23	verb	list	4	10	match	peut	3	0	y	0.95145
218.0424	0.0	+	23	verb	list	4	11	match	peut	3	0	y	0.95145
218.44219999999996	0.0	+	23	verb	list	4	12	match	peut	3	0	y	0.95145
220.4414	0.0	PEUT	23	verb	list	4	13	match	peut	3	0	y	0.95145
221.45749999999998	0.0	+	23	verb	list	4	14	match	peut	3	0	y	0.95145
221.3929	0.0	[response]	23	verb	list	4	15	match	peut	3	0	y	0.95145
222.84019999999998	0.0	+	24	verb	list	3	1	match	va	3	1	p	0.91985
223.3902	0.2	cxwm	24	verb	list	3	2	match	va	3	1	p	0.91985
223.60659999999996	0.0	+	24	verb	list	3	3	match	va	3	1	p	0.91985
223.9903	0.2	lbvx	24	verb	list	3	4	match	va	3	1	p	0.91985
224.20659999999998	0.0	+	24	verb	list	3	5	match	va	3	1	p	0.91985
224.58939999999996	0.2	va	24	verb	list	3	6	match	va	3	1	p	0.91985
224.78929999999997	0.0	+	24	verb	list	3	7	match	va	3	1	p	0.91985
225.1891	0.2	petit	24	verb	list	3	8	match	va	3	1	p	0.91985
225.38909999999998	0.0	+	24	verb	list	3	9	match	va	3	1	p	0.91985
225.78889999999996	0.2	patiner	24	verb	list	3	10	match	va	3	1	p	0.91985
225.98879999999997	0.0	+	24	verb	list	3	11	match	va	3	1	p	0.91985
226.3886	0.0	+	24	verb	list	3	12	match	va	3	1	p	0.91985
228.3877	0.0	VA	24	verb	list	3	13	match	va	3	1	p	0.91985
229.37059999999997	0.0	+	24	verb	list	3	14	match	va	3	1	p	0.91985
229.3075	0.0	[response]	24	verb	list	3	15	match	va	3	1	p	0.91985
230.78659999999996	0.0	+	25	noun	list	1	1	nomatch	clavier	-1	1	y	0.84174
231.33639999999997	0.2	sqpfx	25	noun	list	1	2	nomatch	clavier	-1	1	y	0.84174
231.53629999999998	0.0	+	25	noun	list	1	3	nomatch	clavier	-1	1	y	0.84174
231.93609999999995	0.2	dxvn	25	noun	list	1	4	nomatch	clavier	-1	1	y	0.84174
232.13599999999997	0.0	+	25	noun	list	1	5	nomatch	clavier	-1	1	y	0.84174
232.5358	0.2	qcpb	25	noun	list	1	6	nomatch	clavier	-1	1	y	0.84174
232.73579999999998	0.0	+	25	noun	list	1	7	nomatch	clavier	-1	1	y	0.84174
233.13559999999995	0.2	qghj	25	noun	list	1	8	nomatch	clavier	-1	1	y	0.84174
233.33549999999997	0.0	+	25	noun	list	1	9	nomatch	clavier	-1	1	y	0.84174
233.7353	0.2	rocher	25	noun	list	1	10	nomatch	clavier	-1	1	y	0.84174
233.93519999999995	0.0	+	25	noun	list	1	11	nomatch	clavier	-1	1	y	0.84174
234.33499999999998	0.0	+	25	noun	list	1	12	nomatch	clavier	-1	1	y	0.84174
236.33459999999997	0.0	CLAVIER	25	noun	list	1	13	nomatch	clavier	-1	1	y	0.84174
237.2337	0.0	+	25	noun	list	1	14	nomatch	clavier	-1	1	y	0.84174
237.1764	0.0	[response]	25	noun	list	1	15	nomatch	clavier	-1	1	y	0.84174
246.7462	0.0	+	26	noun	phrase	2	1	match	blanc	5	1	p	0.7164300000000001
247.29589999999996	0.2	xrznhsj	26	noun	phrase	2	2	match	blanc	5	1	p	0.7164300000000001
247.49579999999997	0.0	+	26	noun	phrase	2	3	match	blanc	5	1	p	0.7164300000000001
247.8956	0.2	zbvr	26	noun	phrase	2	4	match	blanc	5	1	p	0.7164300000000001
248.09549999999996	0.0	+	26	noun	phrase	2	5	match	blanc	5	1	p	0.7164300000000001
248.4953	0.2	tqd	26	noun	phrase	2	6	match	blanc	5	1	p	0.7164300000000001
248.69579999999996	0.0	+	26	noun	phrase	2	7	match	blanc	5	1	p	0.7164300000000001
249.0958	0.2	tablier	26	noun	phrase	2	8	match	blanc	5	1	p	0.7164300000000001
249.3123	0.0	+	26	noun	phrase	2	9	match	blanc	5	1	p	0.7164300000000001
249.6948	0.2	blanc	26	noun	phrase	2	10	match	blanc	5	1	p	0.7164300000000001
249.8947	0.0	+	26	noun	phrase	2	11	match	blanc	5	1	p	0.7164300000000001
250.29449999999997	0.0	+	26	noun	phrase	2	12	match	blanc	5	1	p	0.7164300000000001
252.29359999999997	0.0	BLANC	26	noun	phrase	2	13	match	blanc	5	1	p	0.7164300000000001
253.07659999999998	0.0	+	26	noun	phrase	2	14	match	blanc	5	1	p	0.7164300000000001
253.01010000000002	0.0	[response]	26	noun	phrase	2	15	match	blanc	5	1	p	0.7164300000000001
254.6925	0.0	+	27	verb	list	4	1	nomatch	grenier	-1	1	y	1.3317
255.2423	0.2	vmlqtg	27	verb	list	4	2	nomatch	grenier	-1	1	y	1.3317
255.44219999999996	0.0	+	27	verb	list	4	3	nomatch	grenier	-1	1	y	1.3317
255.84199999999998	0.2	dans	27	verb	list	4	4	nomatch	grenier	-1	1	y	1.3317
256.04269999999997	0.0	+	27	verb	list	4	5	nomatch	grenier	-1	1	y	1.3317
256.44219999999996	0.2	peut	27	verb	list	4	6	nomatch	grenier	-1	1	y	1.3317
256.64239999999995	0.0	+	27	verb	list	4	7	nomatch	grenier	-1	1	y	1.3317
257.0422	0.2	grand	27	verb	list	4	8	nomatch	grenier	-1	1	y	1.3317
257.2414	0.0	+	27	verb	list	4	9	nomatch	grenier	-1	1	y	1.3317
257.64119999999997	0.2	voyager	27	verb	list	4	10	nomatch	grenier	-1	1	y	1.3317
257.8411	0.0	+	27	verb	list	4	11	nomatch	grenier	-1	1	y	1.3317
258.241	0.0	+	27	verb	list	4	12	nomatch	grenier	-1	1	y	1.3317
260.2405	0.0	GRENIER	27	verb	list	4	13	nomatch	grenier	-1	1	y	1.3317
261.63939999999997	0.0	+	27	verb	list	4	14	nomatch	grenier	-1	1	y	1.3317
261.57219999999995	0.0	[response]	27	verb	list	4	15	nomatch	grenier	-1	1	y	1.3317
262.63899999999995	0.0	+	28	verb	list	4	1	nomatch	blanc	-1	0	p	1.8047000000000002
263.1887	0.2	jznbdp	28	verb	list	4	2	nomatch	blanc	-1	0	p	1.8047000000000002
263.3886	0.0	+	28	verb	list	4	3	nomatch	blanc	-1	0	p	1.8047000000000002
263.7885	0.2	jean	28	verb	list	4	4	nomatch	blanc	-1	0	p	1.8047000000000002
263.9883	0.0	+	28	verb	list	4	5	nomatch	blanc	-1	0	p	1.8047000000000002
264.3882	0.2	leur	28	verb	list	4	6	nomatch	blanc	-1	0	p	1.8047000000000002
264.5881	0.0	+	28	verb	list	4	7	nomatch	blanc	-1	0	p	1.8047000000000002
264.98789999999997	0.2	patiner	28	verb	list	4	8	nomatch	blanc	-1	0	p	1.8047000000000002
265.1878	0.0	+	28	verb	list	4	9	nomatch	blanc	-1	0	p	1.8047000000000002
265.58759999999995	0.2	noir	28	verb	list	4	10	nomatch	blanc	-1	0	p	1.8047000000000002
265.7876	0.0	+	28	verb	list	4	11	nomatch	blanc	-1	0	p	1.8047000000000002
266.18809999999996	0.0	+	28	verb	list	4	12	nomatch	blanc	-1	0	p	1.8047000000000002
268.18649999999997	0.0	BLANC	28	verb	list	4	13	nomatch	blanc	-1	0	p	1.8047000000000002
270.0523	0.0	+	28	verb	list	4	14	nomatch	blanc	-1	0	p	1.8047000000000002
269.9912	0.0	[response]	28	verb	list	4	15	nomatch	blanc	-1	0	p	1.8047000000000002
270.5854	0.0	+	29	noun	phrase	4	1	match	avec	2	1	p	0.7616200000000001
271.1352	0.2	qgsvbn	29	noun	phrase	4	2	match	avec	2	1	p	0.7616200000000001
271.33509999999995	0.0	+	29	noun	phrase	4	3	match	avec	2	1	p	0.7616200000000001
271.7349	0.2	avec	29	noun	phrase	4	4	match	avec	2	1	p	0.7616200000000001
271.9348	0.0	+	29	noun	phrase	4	5	match	avec	2	1	p	0.7616200000000001
272.33459999999997	0.2	son	29	noun	phrase	4	6	match	avec	2	1	p	0.7616200000000001
272.5345	0.0	+	29	noun	phrase	4	7	match	avec	2	1	p	0.7616200000000001
272.9343	0.2	petit	29	noun	phrase	4	8	match	avec	2	1	p	0.7616200000000001
273.13419999999996	0.0	+	29	noun	phrase	4	9	match	avec	2	1	p	0.7616200000000001
273.53409999999997	0.2	grenier	29	noun	phrase	4	10	match	avec	2	1	p	0.7616200000000001
273.7344	0.0	+	29	noun	phrase	4	11	match	avec	2	1	p	0.7616200000000001
274.13439999999997	0.0	+	29	noun	phrase	4	12	match	avec	2	1	p	0.7616200000000001
276.1495	0.0	AVEC	29	noun	phrase	4	13	match	avec	2	1	p	0.7616200000000001
277.01599999999996	0.0	+	29	noun	phrase	4	14	match	avec	2	1	p	0.7616200000000001
276.9112	0.0	[response]	29	noun	phrase	4	15	match	avec	2	1	p	0.7616200000000001
278.5485	0.0	+	30	verb	phrase	2	1	nomatch	mon	-1	1	y	0.7244600000000001
279.09819999999996	0.2	gzqkfn	30	verb	phrase	2	2	nomatch	mon	-1	1	y	0.7244600000000001
279.2981	0.0	+	30	verb	phrase	2	3	nomatch	mon	-1	1	y	0.7244600000000001
279.698	0.2	sqxk	30	verb	phrase	2	4	nomatch	mon	-1	1	y	0.7244600000000001
279.8979	0.0	+	30	verb	phrase	2	5	nomatch	mon	-1	1	y	0.7244600000000001
280.29789999999997	0.2	pv	30	verb	phrase	2	6	nomatch	mon	-1	1	y	0.7244600000000001
280.49789999999996	0.0	+	30	verb	phrase	2	7	nomatch	mon	-1	1	y	0.7244600000000001
280.8974	0.2	parader	30	verb	phrase	2	8	nomatch	mon	-1	1	y	0.7244600000000001
281.0974	0.0	+	30	verb	phrase	2	9	nomatch	mon	-1	1	y	0.7244600000000001
281.4971	0.2	loin	30	verb	phrase	2	10	nomatch	mon	-1	1	y	0.7244600000000001
281.6971	0.0	+	30	verb	phrase	2	11	nomatch	mon	-1	1	y	0.7244600000000001
282.0969	0.0	+	30	verb	phrase	2	12	nomatch	mon	-1	1	y	0.7244600000000001
284.096	0.0	MON	30	verb	phrase	2	13	nomatch	mon	-1	1	y	0.7244600000000001
284.9128	0.0	+	30	verb	phrase	2	14	nomatch	mon	-1	1	y	0.7244600000000001
284.8204	0.0	[response]	30	verb	phrase	2	15	nomatch	mon	-1	1	y	0.7244600000000001
286.5121	0.0	+	31	noun	list	3	1	match	clavier	5	1	p	0.90344
287.0451	0.2	xgjzr	31	noun	list	3	2	match	clavier	5	1	p	0.90344
287.2612	0.0	+	31	noun	list	3	3	match	clavier	5	1	p	0.90344
287.645	0.2	qlzg	31	noun	list	3	4	match	clavier	5	1	p	0.90344
287.8443	0.0	+	31	noun	list	3	5	match	clavier	5	1	p	0.90344
288.2441	0.2	son	31	noun	list	3	6	match	clavier	5	1	p	0.90344
288.44399999999996	0.0	+	31	noun	list	3	7	match	clavier	5	1	p	0.90344
288.8438	0.2	moins	31	noun	list	3	8	match	clavier	5	1	p	0.90344
289.0437	0.0	+	31	noun	list	3	9	match	clavier	5	1	p	0.90344
289.4436	0.2	clavier	31	noun	list	3	10	match	clavier	5	1	p	0.90344
289.64349999999996	0.0	+	31	noun	list	3	11	match	clavier	5	1	p	0.90344
290.0433	0.0	+	31	noun	list	3	12	match	clavier	5	1	p	0.90344
292.0431	0.0	CLAVIER	31	noun	list	3	13	match	clavier	5	1	p	0.90344
293.0086	0.0	+	31	noun	list	3	14	match	clavier	5	1	p	0.90344
292.9466	0.0	[response]	31	noun	list	3	15	match	clavier	5	1	p	0.90344
294.44129999999996	0.0	+	32	noun	phrase	2	1	match	boîtier	4	1	p	1.0438
294.99109999999996	0.2	btkdzpq	32	noun	phrase	2	2	match	boîtier	4	1	p	1.0438
295.191	0.0	+	32	noun	phrase	2	3	match	boîtier	4	1	p	1.0438
295.5908	0.2	cqgv	32	noun	phrase	2	4	match	boîtier	4	1	p	1.0438
295.79069999999996	0.0	+	32	noun	phrase	2	5	match	boîtier	4	1	p	1.0438
296.1907	0.2	tqd	32	noun	phrase	2	6	match	boîtier	4	1	p	1.0438
296.3906	0.0	+	32	noun	phrase	2	7	match	boîtier	4	1	p	1.0438
296.79089999999997	0.2	boîtier	32	noun	phrase	2	8	match	boîtier	4	1	p	1.0438
296.9908	0.0	+	32	noun	phrase	2	9	match	boîtier	4	1	p	1.0438
297.3905	0.2	rouge	32	noun	phrase	2	10	match	boîtier	4	1	p	1.0438
297.5899	0.0	+	32	noun	phrase	2	11	match	boîtier	4	1	p	1.0438
297.98969999999997	0.0	+	32	noun	phrase	2	12	match	boîtier	4	1	p	1.0438
299.9894	0.0	BOÎTIER	32	noun	phrase	2	13	match	boîtier	4	1	p	1.0438
301.0883	0.0	+	32	noun	phrase	2	14	match	boîtier	4	1	p	1.0438
301.03319999999997	0.0	[response]	32	noun	phrase	2	15	match	boîtier	4	1	p	1.0438
302.38779999999997	0.0	+	33	verb	list	1	1	nomatch	rouler	-1	1	y	0.8044500000000001
302.9375	0.2	lqpfcg	33	verb	list	1	2	nomatch	rouler	-1	1	y	0.8044500000000001
303.13739999999996	0.0	+	33	verb	list	1	3	nomatch	rouler	-1	1	y	0.8044500000000001
303.5372	0.2	sqxk	33	verb	list	1	4	nomatch	rouler	-1	1	y	0.8044500000000001
303.7371	0.0	+	33	verb	list	1	5	nomatch	rouler	-1	1	y	0.8044500000000001
304.137	0.2	rfc	33	verb	list	1	6	nomatch	rouler	-1	1	y	0.8044500000000001
304.3375	0.0	+	33	verb	list	1	7	nomatch	rouler	-1	1	y	0.8044500000000001
304.73699999999997	0.2	mgcl	33	verb	list	1	8	nomatch	rouler	-1	1	y	0.8044500000000001
304.9536	0.0	+	33	verb	list	1	9	nomatch	rouler	-1	1	y	0.8044500000000001
305.33639999999997	0.2	plonger	33	verb	list	1	10	nomatch	rouler	-1	1	y	0.8044500000000001
305.5363	0.0	+	33	verb	list	1	11	nomatch	rouler	-1	1	y	0.8044500000000001
305.9362	0.0	+	33	verb	list	1	12	nomatch	rouler	-1	1	y	0.8044500000000001
307.9355	0.0	ROULER	33	verb	list	1	13	nomatch	rouler	-1	1	y	0.8044500000000001
308.8182	0.0	+	33	verb	list	1	14	nomatch	rouler	-1	1	y	0.8044500000000001
308.73999999999995	0.0	[response]	33	verb	list	1	15	nomatch	rouler	-1	1	y	0.8044500000000001
310.33419999999995	0.0	+	34	noun	phrase	3	1	match	casier	5	1	p	0.48555
310.8845	0.2	znfqd	34	noun	phrase	3	2	match	casier	5	1	p	0.48555
311.0838	0.0	+	34	noun	phrase	3	3	match	casier	5	1	p	0.48555
311.4837	0.2	crtd	34	noun	phrase	3	4	match	casier	5	1	p	0.48555
311.68359999999996	0.0	+	34	noun	phrase	3	5	match	casier	5	1	p	0.48555
312.09999999999997	0.2	mon	34	noun	phrase	3	6	match	casier	5	1	p	0.48555
312.2999	0.0	+	34	noun	phrase	3	7	match	casier	5	1	p	0.48555
312.69989999999996	0.2	grand	34	noun	phrase	3	8	match	casier	5	1	p	0.48555
312.8997	0.0	+	34	noun	phrase	3	9	match	casier	5	1	p	0.48555
313.2998	0.2	casier	34	noun	phrase	3	10	match	casier	5	1	p	0.48555
313.5168	0.0	+	34	noun	phrase	3	11	match	casier	5	1	p	0.48555
313.8992	0.0	+	34	noun	phrase	3	12	match	casier	5	1	p	0.48555
315.8983	0.0	CASIER	34	noun	phrase	3	13	match	casier	5	1	p	0.48555
316.44809999999995	0.0	+	34	noun	phrase	3	14	match	casier	5	1	p	0.48555
316.3839	0.0	[response]	34	noun	phrase	3	15	match	casier	5	1	p	0.48555
318.2972	0.0	+	35	noun	phrase	2	1	nomatch	petit	-1	1	y	0.78103
318.847	0.2	vnbtql	35	noun	phrase	2	2	nomatch	petit	-1	1	y	0.78103
319.0469	0.0	+	35	noun	phrase	2	3	nomatch	petit	-1	1	y	0.78103
319.44669999999996	0.2	dxvn	35	noun	phrase	2	4	nomatch	petit	-1	1	y	0.78103
319.6466	0.0	+	35	noun	phrase	2	5	nomatch	petit	-1	1	y	0.78103
320.04679999999996	0.2	vfcg	35	noun	phrase	2	6	nomatch	petit	-1	1	y	0.78103
320.2464	0.0	+	35	noun	phrase	2	7	nomatch	petit	-1	1	y	0.78103
320.64689999999996	0.2	vieux	35	noun	phrase	2	8	nomatch	petit	-1	1	y	0.78103
320.84639999999996	0.0	+	35	noun	phrase	2	9	nomatch	petit	-1	1	y	0.78103
321.24629999999996	0.2	sablier	35	noun	phrase	2	10	nomatch	petit	-1	1	y	0.78103
321.44579999999996	0.0	+	35	noun	phrase	2	11	nomatch	petit	-1	1	y	0.78103
321.84569999999997	0.0	+	35	noun	phrase	2	12	nomatch	petit	-1	1	y	0.78103
323.8617	0.0	PETIT	35	noun	phrase	2	13	nomatch	petit	-1	1	y	0.78103
324.71099999999996	0.0	+	35	noun	phrase	2	14	nomatch	petit	-1	1	y	0.78103
324.6427	0.0	[response]	35	noun	phrase	2	15	nomatch	petit	-1	1	y	0.78103
334.2573	0.0	+	36	noun	phrase	4	1	nomatch	vite	-1	1	y	1.2429
334.78979999999996	0.2	rtmd	36	noun	phrase	4	2	nomatch	vite	-1	1	y	1.2429
334.98969999999997	0.0	+	36	noun	phrase	4	3	nomatch	vite	-1	1	y	1.2429
335.3896	0.2	avec	36	noun	phrase	4	4	nomatch	vite	-1	1	y	1.2429
335.5895	0.0	+	36	noun	phrase	4	5	nomatch	vite	-1	1	y	1.2429
335.98929999999996	0.2	leur	36	noun	phrase	4	6	nomatch	vite	-1	1	y	1.2429
336.18919999999997	0.0	+	36	noun	phrase	4	7	nomatch	vite	-1	1	y	1.2429
336.589	0.2	nouveau	36	noun	phrase	4	8	nomatch	vite	-1	1	y	1.2429
336.78889999999996	0.0	+	36	noun	phrase	4	9	nomatch	vite	-1	1	y	1.2429
337.18879999999996	0.2	casier	36	noun	phrase	4	10	nomatch	vite	-1	1	y	1.2429
337.3887	0.0	+	36	noun	phrase	4	11	nomatch	vite	-1	1	y	1.2429
337.7885	0.0	+	36	noun	phrase	4	12	nomatch	vite	-1	1	y	1.2429
339.7876	0.0	VITE	36	noun	phrase	4	13	nomatch	vite	-1	1	y	1.2429
341.087	0.0	+	36	noun	phrase	4	14	nomatch	vite	-1	1	y	1.2429
341.03049999999996	0.0	[response]	36	noun	phrase	4	15	nomatch	vite	-1	1	y	1.2429
342.18649999999997	0.0	+	37	verb	list	2	1	match	vert	5	1	p	0.74917
342.73629999999997	0.2	tzbq	37	verb	list	2	2	match	vert	5	1	p	0.74917
342.9362	0.0	+	37	verb	list	2	3	match	vert	5	1	p	0.74917
343.33599999999996	0.2	nxwc	37	verb	list	2	4	match	vert	5	1	p	0.74917
343.53589999999997	0.0	+	37	verb	list	2	5	match	vert	5	1	p	0.74917
343.9357	0.2	rfc	37	verb	list	2	6	match	vert	5	1	p	0.74917
344.13559999999995	0.0	+	37	verb	list	2	7	match	vert	5	1	p	0.74917
344.53549999999996	0.2	rouler	37	verb	list	2	8	match	vert	5	1	p	0.74917
344.7523	0.0	+	37	verb	list	2	9	match	vert	5	1	p	0.74917
345.1359	0.2	vert	37	verb	list	2	10	match	vert	5	1	p	0.74917
345.33509999999995	0.0	+	37	verb	list	2	11	match	vert	5	1	p	0.74917
345.7349	0.0	+	37	verb	list	2	12	match	vert	5	1	p	0.74917
347.73409999999996	0.0	VERT	37	verb	list	2	13	match	vert	5	1	p	0.74917
348.6008	0.0	+	37	verb	list	2	14	match	vert	5	1	p	0.74917
348.4833	0.0	[response]	37	verb	list	2	15	match	vert	5	1	p	0.74917
350.14959999999996	0.0	+	38	noun	phrase	3	1	nomatch	tablier	-1	1	y	0.97544
350.69939999999997	0.2	fhsj	38	noun	phrase	3	2	nomatch	tablier	-1	1	y	0.97544
350.8993	0.0	+	38	noun	phrase	3	3	nomatch	tablier	-1	1	y	0.97544
351.3161	0.2	zbvr	38	noun	phrase	3	4	nomatch	tablier	-1	1	y	0.97544
351.4991	0.0	+	38	noun	phrase	3	5	nomatch	tablier	-1	1	y	0.97544
351.9161	0.2	son	38	noun	phrase	3	6	nomatch	tablier	-1	1	y	0.97544
352.09929999999997	0.0	+	38	noun	phrase	3	7	nomatch	tablier	-1	1	y	0.97544
352.4985	0.2	grenier	38	noun	phrase	3	8	nomatch	tablier	-1	1	y	0.97544
352.6984	0.0	+	38	noun	phrase	3	9	nomatch	tablier	-1	1	y	0.97544
353.0983	0.2	rouge	38	noun	phrase	3	10	nomatch	tablier	-1	1	y	0.97544
353.29819999999995	0.0	+	38	noun	phrase	3	11	nomatch	tablier	-1	1	y	0.97544
353.698	0.0	+	38	noun	phrase	3	12	nomatch	tablier	-1	1	y	0.97544
355.6977	0.0	TABLIER	38	noun	phrase	3	13	nomatch	tablier	-1	1	y	0.97544
356.72999999999996	0.0	+	38	noun	phrase	3	14	nomatch	tablier	-1	1	y	0.97544
356.6731	0.0	[response]	38	noun	phrase	3	15	nomatch	tablier	-1	1	y	0.97544
358.096	0.0	+	39	noun	phrase	3	1	match	panier	5	1	p	0.96053
358.64579999999995	0.2	zqs	39	noun	phrase	3	2	match	panier	5	1	p	0.96053
358.84569999999997	0.0	+	39	noun	phrase	3	3	match	panier	5	1	p	0.96053
359.2455	0.2	fwdp	39	noun	phrase	3	4	match	panier	5	1	p	0.96053
359.4454	0.0	+	39	noun	phrase	3	5	match	panier	5	1	p	0.96053
359.8452	0.2	leur	39	noun	phrase	3	6	match	panier	5	1	p	0.96053
360.0451	0.0	+	39	noun	phrase	3	7	match	panier	5	1	p	0.96053
360.445	0.2	beau	39	noun	phrase	3	8	match	panier	5	1	p	0.96053
360.6449	0.0	+	39	noun	phrase	3	9	match	panier	5	1	p	0.96053
361.0453	0.2	panier	39	noun	phrase	3	10	match	panier	5	1	p	0.96053
361.2453	0.0	+	39	noun	phrase	3	11	match	panier	5	1	p	0.96053
361.64439999999996	0.0	+	39	noun	phrase	3	12	match	panier	5	1	p	0.96053
363.6608	0.0	PANIER	39	noun	phrase	3	13	match	panier	5	1	p	0.96053
364.6764	0.0	+	39	noun	phrase	3	14	match	panier	5	1	p	0.96053
364.62129999999996	0.0	[response]	39	noun	phrase	3	15	match	panier	5	1	p	0.96053
366.0424	0.0	+	40	verb	phrase	1	1	match	moins	5	1	p	0.51913
366.5922	0.2	gfnqmd	40	verb	phrase	1	2	match	moins	5	1	p	0.51913
366.7921	0.0	+	40	verb	phrase	1	3	match	moins	5	1	p	0.51913
367.1919	0.2	qlzg	40	verb	phrase	1	4	match	moins	5	1	p	0.51913
367.3918	0.0	+	40	verb	phrase	1	5	match	moins	5	1	p	0.51913
367.7917	0.2	qcpb	40	verb	phrase	1	6	match	moins	5	1	p	0.51913
367.9921	0.0	+	40	verb	phrase	1	7	match	moins	5	1	p	0.51913
368.40869999999995	0.2	jwtzlhb	40	verb	phrase	1	8	match	moins	5	1	p	0.51913
368.5913	0.0	+	40	verb	phrase	1	9	match	moins	5	1	p	0.51913
368.9914	0.2	moins	40	verb	phrase	1	10	match	moins	5	1	p	0.51913
369.191	0.0	+	40	verb	phrase	1	11	match	moins	5	1	p	0.51913
369.5909	0.0	+	40	verb	phrase	1	12	match	moins	5	1	p	0.51913
371.59	0.0	MOINS	40	verb	phrase	1	13	match	moins	5	1	p	0.51913
372.173	0.0	+	40	verb	phrase	1	14	match	moins	5	1	p	0.51913
372.10909999999996	0.0	[response]	40	verb	phrase	1	15	match	moins	5	1	p	0.51913
373.9889	0.0	+	41	noun	list	2	1	match	grenier	4	1	p	0.67758
374.5386	0.2	szqvnjx	41	noun	list	2	2	match	grenier	4	1	p	0.67758
374.7385	0.0	+	41	noun	list	2	3	match	grenier	4	1	p	0.67758
375.13829999999996	0.2	wpc	41	noun	list	2	4	match	grenier	4	1	p	0.67758
375.3383	0.0	+	41	noun	list	2	5	match	grenier	4	1	p	0.67758
375.7385	0.2	xnhd	41	noun	list	2	6	match	grenier	4	1	p	0.67758
375.9384	0.0	+	41	noun	list	2	7	match	grenier	4	1	p	0.67758
376.33779999999996	0.2	grenier	41	noun	list	2	8	match	grenier	4	1	p	0.67758
376.5377	0.0	+	41	noun	list	2	9	match	grenier	4	1	p	0.67758
376.9376	0.2	vite	41	noun	list	2	10	match	grenier	4	1	p	0.67758
377.1375	0.0	+	41	noun	list	2	11	match	grenier	4	1	p	0.67758
377.53729999999996	0.0	+	41	noun	list	2	12	match	grenier	4	1	p	0.67758
379.5369	0.0	GRENIER	41	noun	list	2	13	match	grenier	4	1	p	0.67758
380.26939999999996	0.0	+	41	noun	list	2	14	match	grenier	4	1	p	0.67758
380.21450000000004	0.0	[response]	41	noun	list	2	15	match	grenier	4	1	p	0.67758
381.9353	0.0	+	42	verb	phrase	1	1	nomatch	loin	-1	1	y	1.3883000000000003
382.48499999999996	0.2	nmvq	42	verb	phrase	1	2	nomatch	loin	-1	1	y	1.3883000000000003
382.685	0.0	+	42	verb	phrase	1	3	nomatch	loin	-1	1	y	1.3883000000000003
383.0848	0.2	nxwc	42	verb	phrase	1	4	nomatch	loin	-1	1	y	1.3883000000000003
383.2847	0.0	+	42	verb	phrase	1	5	nomatch	loin	-1	1	y	1.3883000000000003
383.6851	0.2	qcpb	42	verb	phrase	1	6	nomatch	loin	-1	1	y	1.3883000000000003
383.9016	0.0	+	42	verb	phrase	1	7	nomatch	loin	-1	1	y	1.3883000000000003
384.28459999999995	0.2	tvhgl	42	verb	phrase	1	8	nomatch	loin	-1	1	y	1.3883000000000003
384.4842	0.0	+	42	verb	phrase	1	9	nomatch	loin	-1	1	y	1.3883000000000003
384.88399999999996	0.2	parader	42	verb	phrase	1	10	nomatch	loin	-1	1	y	1.3883000000000003
385.08389999999997	0.0	+	42	verb	phrase	1	11	nomatch	loin	-1	1	y	1.3883000000000003
385.4837	0.0	+	42	verb	phrase	1	12	nomatch	loin	-1	1	y	1.3883000000000003
387.49949999999995	0.0	LOIN	42	verb	phrase	1	13	nomatch	loin	-1	1	y	1.3883000000000003
388.96549999999996	0.0	+	42	verb	phrase	1	14	nomatch	loin	-1	1	y	1.3883000000000003
388.88779999999997	0.0	[response]	42	verb	phrase	1	15	nomatch	loin	-1	1	y	1.3883000000000003
389.8984	0.0	+	43	noun	list	1	1	match	vite	5	1	p	0.56465
390.44809999999995	0.2	nctbp	43	noun	list	1	2	match	vite	5	1	p	0.56465
390.64799999999997	0.0	+	43	noun	list	1	3	match	vite	5	1	p	0.56465
391.04789999999997	0.2	lbvx	43	noun	list	1	4	match	vite	5	1	p	0.56465
391.24789999999996	0.0	+	43	noun	list	1	5	match	vite	5	1	p	0.56465
391.66479999999996	0.2	pv	43	noun	list	1	6	match	vite	5	1	p	0.56465
391.8481	0.0	+	43	noun	list	1	7	match	vite	5	1	p	0.56465
392.24739999999997	0.2	mdrcxzj	43	noun	list	1	8	match	vite	5	1	p	0.56465
392.44719999999995	0.0	+	43	noun	list	1	9	match	vite	5	1	p	0.56465
392.847	0.2	vite	43	noun	list	1	10	match	vite	5	1	p	0.56465
393.04699999999997	0.0	+	43	noun	list	1	11	match	vite	5	1	p	0.56465
393.4468	0.0	+	43	noun	list	1	12	match	vite	5	1	p	0.56465
395.4459	0.0	VITE	43	noun	list	1	13	match	vite	5	1	p	0.56465
396.0623	0.0	+	43	noun	list	1	14	match	vite	5	1	p	0.56465
396.0105	0.0	[response]	43	noun	list	1	15	match	vite	5	1	p	0.56465
397.84479999999996	0.0	+	44	noun	phrase	4	1	nomatch	leur	-1	1	y	1.1683
398.39459999999997	0.2	grfxd	44	noun	phrase	4	2	nomatch	leur	-1	1	y	1.1683
398.5945	0.0	+	44	noun	phrase	4	3	nomatch	leur	-1	1	y	1.1683
398.995	0.2	sous	44	noun	phrase	4	4	nomatch	leur	-1	1	y	1.1683
399.1944	0.0	+	44	noun	phrase	4	5	nomatch	leur	-1	1	y	1.1683
399.594	0.2	mon	44	noun	phrase	4	6	nomatch	leur	-1	1	y	1.1683
399.7939	0.0	+	44	noun	phrase	4	7	nomatch	leur	-1	1	y	1.1683
400.1937	0.2	beau	44	noun	phrase	4	8	nomatch	leur	-1	1	y	1.1683
400.3936	0.0	+	44	noun	phrase	4	9	nomatch	leur	-1	1	y	1.1683
400.7935	0.2	sablier	44	noun	phrase	4	10	nomatch	leur	-1	1	y	1.1683
400.99339999999995	0.0	+	44	noun	phrase	4	11	nomatch	leur	-1	1	y	1.1683
401.3932	0.0	+	44	noun	phrase	4	12	nomatch	leur	-1	1	y	1.1683
403.39259999999996	0.0	LEUR	44	noun	phrase	4	13	nomatch	leur	-1	1	y	1.1683
404.6251	0.0	+	44	noun	phrase	4	14	nomatch	leur	-1	1	y	1.1683
404.5609	0.0	[response]	44	noun	phrase	4	15	nomatch	leur	-1	1	y	1.1683
405.7912	0.0	+	45	noun	list	1	1	match	boîtier	5	1	p	0.78695
406.34099999999995	0.2	fglwhrs	45	noun	list	1	2	match	boîtier	5	1	p	0.78695
406.54089999999997	0.0	+	45	noun	list	1	3	match	boîtier	5	1	p	0.78695
406.9407	0.2	zrb	45	noun	list	1	4	match	boîtier	5	1	p	0.78695
407.1406	0.0	+	45	noun	list	1	5	match	boîtier	5	1	p	0.78695
407.5404	0.2	vfcg	45	noun	list	1	6	match	boîtier	5	1	p	0.78695
407.7403	0.0	+	45	noun	list	1	7	match	boîtier	5	1	p	0.78695
408.14079999999996	0.2	tvhgl	45	noun	list	1	8	match	boîtier	5	1	p	0.78695
408.35729999999995	0.0	+	45	noun	list	1	9	match	boîtier	5	1	p	0.78695
408.7403	0.2	boîtier	45	noun	list	1	10	match	boîtier	5	1	p	0.78695
408.95689999999996	0.0	+	45	noun	list	1	11	match	boîtier	5	1	p	0.78695
409.33959999999996	0.0	+	45	noun	list	1	12	match	boîtier	5	1	p	0.78695
411.33869999999996	0.0	BOÎTIER	45	noun	list	1	13	match	boîtier	5	1	p	0.78695
412.222	0.0	+	45	noun	list	1	14	match	boîtier	5	1	p	0.78695
412.1257	0.0	[response]	45	noun	list	1	15	match	boîtier	5	1	p	0.78695
413.73769999999996	0.0	+	46	noun	phrase	1	1	match	grenier	5	1	p	0.46722
414.2874	0.2	kfqd	46	noun	phrase	1	2	match	grenier	5	1	p	0.46722
414.4873	0.0	+	46	noun	phrase	1	3	match	grenier	5	1	p	0.46722
414.8871	0.2	fwdp	46	noun	phrase	1	4	match	grenier	5	1	p	0.46722
415.0877	0.0	+	46	noun	phrase	1	5	match	grenier	5	1	p	0.46722
415.48749999999995	0.2	rfc	46	noun	phrase	1	6	match	grenier	5	1	p	0.46722
415.6875	0.0	+	46	noun	phrase	1	7	match	grenier	5	1	p	0.46722
416.0872	0.2	hfkgq	46	noun	phrase	1	8	match	grenier	5	1	p	0.46722
416.3037	0.0	+	46	noun	phrase	1	9	match	grenier	5	1	p	0.46722
416.68629999999996	0.2	grenier	46	noun	phrase	1	10	match	grenier	5	1	p	0.46722
416.8862	0.0	+	46	noun	phrase	1	11	match	grenier	5	1	p	0.46722
417.2861	0.0	+	46	noun	phrase	1	12	match	grenier	5	1	p	0.46722
419.28589999999997	0.0	GRENIER	46	noun	phrase	1	13	match	grenier	5	1	p	0.46722
419.81829999999997	0.0	+	46	noun	phrase	1	14	match	grenier	5	1	p	0.46722
419.75309999999996	0.0	[response]	46	noun	phrase	1	15	match	grenier	5	1	p	0.46722
421.6841	0.0	+	47	verb	phrase	3	1	match	nager	4	1	p	1.1472
422.234	0.2	mdrwz	47	verb	phrase	3	2	match	nager	4	1	p	1.1472
422.4507	0.0	+	47	verb	phrase	3	3	match	nager	4	1	p	1.1472
422.8336	0.2	zrb	47	verb	phrase	3	4	match	nager	4	1	p	1.1472
423.0336	0.0	+	47	verb	phrase	3	5	match	nager	4	1	p	1.1472
423.45	0.2	doit	47	verb	phrase	3	6	match	nager	4	1	p	1.1472
423.6499	0.0	+	47	verb	phrase	3	7	match	nager	4	1	p	1.1472
424.0497	0.2	nager	47	verb	phrase	3	8	match	nager	4	1	p	1.1472
424.2496	0.0	+	47	verb	phrase	3	9	match	nager	4	1	p	1.1472
424.64939999999996	0.2	loin	47	verb	phrase	3	10	match	nager	4	1	p	1.1472
424.84929999999997	0.0	+	47	verb	phrase	3	11	match	nager	4	1	p	1.1472
425.2492	0.0	+	47	verb	phrase	3	12	match	nager	4	1	p	1.1472
427.26509999999996	0.0	NAGER	47	verb	phrase	3	13	match	nager	4	1	p	1.1472
428.46439999999996	0.0	+	47	verb	phrase	3	14	match	nager	4	1	p	1.1472
428.41229999999996	0.0	[response]	47	verb	phrase	3	15	match	nager	4	1	p	1.1472
429.6472	0.0	+	48	verb	list	2	1	nomatch	plonger	-1	1	y	0.65951
430.19689999999997	0.2	wpsmdx	48	verb	list	2	2	nomatch	plonger	-1	1	y	0.65951
430.3968	0.0	+	48	verb	list	2	3	nomatch	plonger	-1	1	y	0.65951
430.79659999999996	0.2	ckfr	48	verb	list	2	4	nomatch	plonger	-1	1	y	0.65951
430.9966	0.0	+	48	verb	list	2	5	nomatch	plonger	-1	1	y	0.65951
431.39699999999993	0.2	rfc	48	verb	list	2	6	nomatch	plonger	-1	1	y	0.65951
431.61339999999996	0.0	+	48	verb	list	2	7	nomatch	plonger	-1	1	y	0.65951
431.9968	0.2	danser	48	verb	list	2	8	nomatch	plonger	-1	1	y	0.65951
432.1963999999999	0.0	+	48	verb	list	2	9	nomatch	plonger	-1	1	y	0.65951
432.59579999999994	0.2	blanc	48	verb	list	2	10	nomatch	plonger	-1	1	y	0.65951
432.7958	0.0	+	48	verb	list	2	11	nomatch	plonger	-1	1	y	0.65951
433.1956	0.0	+	48	verb	list	2	12	nomatch	plonger	-1	1	y	0.65951
435.1948	0.0	PLONGER	48	verb	list	2	13	nomatch	plonger	-1	1	y	0.65951
435.91099999999994	0.0	+	48	verb	list	2	14	nomatch	plonger	-1	1	y	0.65951
435.85429999999997	0.0	[response]	48	verb	list	2	15	nomatch	plonger	-1	1	y	0.65951
437.5935999999999	0.0	+	49	noun	list	1	1	nomatch	beau	-1	1	y	0.70451
438.14329999999995	0.2	jhtrm	49	noun	list	1	2	nomatch	beau	-1	1	y	0.70451
438.3432	0.0	+	49	noun	list	1	3	nomatch	beau	-1	1	y	0.70451
438.7431	0.2	wpc	49	noun	list	1	4	nomatch	beau	-1	1	y	0.70451
438.96029999999996	0.0	+	49	noun	list	1	5	nomatch	beau	-1	1	y	0.70451
439.34299999999996	0.2	qcpb	49	noun	list	1	6	nomatch	beau	-1	1	y	0.70451
439.54269999999997	0.0	+	49	noun	list	1	7	nomatch	beau	-1	1	y	0.70451
439.9425	0.2	shnvprc	49	noun	list	1	8	nomatch	beau	-1	1	y	0.70451
440.14239999999995	0.0	+	49	noun	list	1	9	nomatch	beau	-1	1	y	0.70451
440.54279999999994	0.2	loin	49	noun	list	1	10	nomatch	beau	-1	1	y	0.70451
440.7428	0.0	+	49	noun	list	1	11	nomatch	beau	-1	1	y	0.70451
441.1427	0.0	+	49	noun	list	1	12	nomatch	beau	-1	1	y	0.70451
443.14109999999994	0.0	BEAU	49	noun	list	1	13	nomatch	beau	-1	1	y	0.70451
443.90739999999994	0.0	+	49	noun	list	1	14	nomatch	beau	-1	1	y	0.70451
443.8456	0.0	[response]	49	noun	list	1	15	nomatch	beau	-1	1	y	0.70451
445.53999999999996	0.0	+	50	verb	phrase	1	1	nomatch	voyager	-1	1	y	0.9830400000000001
446.08979999999997	0.2	xrlvfh	50	verb	phrase	1	2	nomatch	voyager	-1	1	y	0.9830400000000001
446.2896999999999	0.0	+	50	verb	phrase	1	3	nomatch	voyager	-1	1	y	0.9830400000000001
446.68949999999995	0.2	bnmr	50	verb	phrase	1	4	nomatch	voyager	-1	1	y	0.9830400000000001
446.8894	0.0	+	50	verb	phrase	1	5	nomatch	voyager	-1	1	y	0.9830400000000001
447.28919999999994	0.2	xnhd	50	verb	phrase	1	6	nomatch	voyager	-1	1	y	0.9830400000000001
447.4891	0.0	+	50	verb	phrase	1	7	nomatch	voyager	-1	1	y	0.9830400000000001
447.889	0.2	gjcdqmt	50	verb	phrase	1	8	nomatch	voyager	-1	1	y	0.9830400000000001
448.1055	0.0	+	50	verb	phrase	1	9	nomatch	voyager	-1	1	y	0.9830400000000001
448.48939999999993	0.2	beaucoup	50	verb	phrase	1	10	nomatch	voyager	-1	1	y	0.9830400000000001
448.6889	0.0	+	50	verb	phrase	1	11	nomatch	voyager	-1	1	y	0.9830400000000001
449.0884	0.0	+	50	verb	phrase	1	12	nomatch	voyager	-1	1	y	0.9830400000000001
451.0875	0.0	VOYAGER	50	verb	phrase	1	13	nomatch	voyager	-1	1	y	0.9830400000000001
452.13710000000003	0.0	+	50	verb	phrase	1	14	nomatch	voyager	-1	1	y	0.9830400000000001
452.0706	0.0	[response]	50	verb	phrase	1	15	nomatch	voyager	-1	1	y	0.9830400000000001
453.4864	0.0	+	51	noun	phrase	1	1	match	noir	5	1	p	0.47989
454.0362	0.2	lsbfh	51	noun	phrase	1	2	match	noir	5	1	p	0.47989
454.23609999999996	0.0	+	51	noun	phrase	1	3	match	noir	5	1	p	0.47989
454.6359	0.2	fwdp	51	noun	phrase	1	4	match	noir	5	1	p	0.47989
454.83579999999995	0.0	+	51	noun	phrase	1	5	match	noir	5	1	p	0.47989
455.2359	0.2	rfc	51	noun	phrase	1	6	match	noir	5	1	p	0.47989
455.4524	0.0	+	51	noun	phrase	1	7	match	noir	5	1	p	0.47989
455.8358999999999	0.2	ljtbrx	51	noun	phrase	1	8	match	noir	5	1	p	0.47989
456.0357	0.0	+	51	noun	phrase	1	9	match	noir	5	1	p	0.47989
456.43510000000003	0.2	noir	51	noun	phrase	1	10	match	noir	5	1	p	0.47989
456.635	0.0	+	51	noun	phrase	1	11	match	noir	5	1	p	0.47989
457.0348	0.0	+	51	noun	phrase	1	12	match	noir	5	1	p	0.47989
459.03430000000003	0.0	NOIR	51	noun	phrase	1	13	match	noir	5	1	p	0.47989
459.567	0.0	+	51	noun	phrase	1	14	match	noir	5	1	p	0.47989
459.51419999999996	0.0	[response]	51	noun	phrase	1	15	match	noir	5	1	p	0.47989
461.4501	0.0	+	52	verb	phrase	1	1	nomatch	leur	-1	1	y	1.045
461.99979999999994	0.2	cgptjv	52	verb	phrase	1	2	nomatch	leur	-1	1	y	1.045
462.1992	0.0	+	52	verb	phrase	1	3	nomatch	leur	-1	1	y	1.045
462.5996	0.2	bnmr	52	verb	phrase	1	4	nomatch	leur	-1	1	y	1.045
462.7989	0.0	+	52	verb	phrase	1	5	nomatch	leur	-1	1	y	1.045
463.19870000000003	0.2	qcpb	52	verb	phrase	1	6	nomatch	leur	-1	1	y	1.045
463.3986	0.0	+	52	verb	phrase	1	7	nomatch	leur	-1	1	y	1.045
463.7985	0.2	qghj	52	verb	phrase	1	8	nomatch	leur	-1	1	y	1.045
463.99839999999995	0.0	+	52	verb	phrase	1	9	nomatch	leur	-1	1	y	1.045
464.3982	0.2	rouler	52	verb	phrase	1	10	nomatch	leur	-1	1	y	1.045
464.59809999999993	0.0	+	52	verb	phrase	1	11	nomatch	leur	-1	1	y	1.045
464.99789999999996	0.0	+	52	verb	phrase	1	12	nomatch	leur	-1	1	y	1.045
466.99699999999996	0.0	LEUR	52	verb	phrase	1	13	nomatch	leur	-1	1	y	1.045
468.18039999999996	0.0	+	52	verb	phrase	1	14	nomatch	leur	-1	1	y	1.045
468.04200000000003	0.0	[response]	52	verb	phrase	1	15	nomatch	leur	-1	1	y	1.045
477.3923	0.0	+	53	noun	list	2	1	nomatch	nouveau	-1	1	y	0.80529
477.9425	0.2	mnjc	53	noun	list	2	2	nomatch	nouveau	-1	1	y	0.80529
478.1427	0.0	+	53	noun	list	2	3	nomatch	nouveau	-1	1	y	0.80529
478.54200000000003	0.2	cqgv	53	noun	list	2	4	nomatch	nouveau	-1	1	y	0.80529
478.7424	0.0	+	53	noun	list	2	5	nomatch	nouveau	-1	1	y	0.80529
479.1415999999999	0.2	pv	53	noun	list	2	6	nomatch	nouveau	-1	1	y	0.80529
479.3415	0.0	+	53	noun	list	2	7	nomatch	nouveau	-1	1	y	0.80529
479.7413	0.2	boîtier	53	noun	list	2	8	nomatch	nouveau	-1	1	y	0.80529
479.9412	0.0	+	53	noun	list	2	9	nomatch	nouveau	-1	1	y	0.80529
480.341	0.2	ainsi	53	noun	list	2	10	nomatch	nouveau	-1	1	y	0.80529
480.54089999999997	0.0	+	53	noun	list	2	11	nomatch	nouveau	-1	1	y	0.80529
480.9407	0.0	+	53	noun	list	2	12	nomatch	nouveau	-1	1	y	0.80529
482.93989999999997	0.0	NOUVEAU	53	noun	list	2	13	nomatch	nouveau	-1	1	y	0.80529
483.8061	0.0	+	53	noun	list	2	14	nomatch	nouveau	-1	1	y	0.80529
483.7451	0.0	[response]	53	noun	list	2	15	nomatch	nouveau	-1	1	y	0.80529
485.3388	0.0	+	54	verb	phrase	4	1	nomatch	sablier	-1	0	p	1.0157
485.8885	0.2	sgzw	54	verb	phrase	4	2	nomatch	sablier	-1	0	p	1.0157
486.0884	0.0	+	54	verb	phrase	4	3	nomatch	sablier	-1	0	p	1.0157
486.4882	0.2	paul	54	verb	phrase	4	4	nomatch	sablier	-1	0	p	1.0157
486.68819999999994	0.0	+	54	verb	phrase	4	5	nomatch	sablier	-1	0	p	1.0157
487.08799999999997	0.2	peut	54	verb	phrase	4	6	nomatch	sablier	-1	0	p	1.0157
487.28790000000004	0.0	+	54	verb	phrase	4	7	nomatch	sablier	-1	0	p	1.0157
487.6885	0.2	danser	54	verb	phrase	4	8	nomatch	sablier	-1	0	p	1.0157
487.8877	0.0	+	54	verb	phrase	4	9	nomatch	sablier	-1	0	p	1.0157
488.28790000000004	0.2	tôt	54	verb	phrase	4	10	nomatch	sablier	-1	0	p	1.0157
488.4878	0.0	+	54	verb	phrase	4	11	nomatch	sablier	-1	0	p	1.0157
488.8872	0.0	+	54	verb	phrase	4	12	nomatch	sablier	-1	0	p	1.0157
490.8863	0.0	SABLIER	54	verb	phrase	4	13	nomatch	sablier	-1	0	p	1.0157
491.9691	0.0	+	54	verb	phrase	4	14	nomatch	sablier	-1	0	p	1.0157
491.90189999999996	0.0	[response]	54	verb	phrase	4	15	nomatch	sablier	-1	0	p	1.0157
501.2982999999999	0.0	+	55	verb	phrase	1	1	nomatch	grand	-1	1	y	1.0871
501.84799999999996	0.2	ldsc	55	verb	phrase	1	2	nomatch	grand	-1	1	y	1.0871
502.0482999999999	0.0	+	55	verb	phrase	1	3	nomatch	grand	-1	1	y	1.0871
502.46479999999997	0.2	tjxp	55	verb	phrase	1	4	nomatch	grand	-1	1	y	1.0871
502.6482	0.0	+	55	verb	phrase	1	5	nomatch	grand	-1	1	y	1.0871
503.0475	0.2	pv	55	verb	phrase	1	6	nomatch	grand	-1	1	y	1.0871
503.24739999999997	0.0	+	55	verb	phrase	1	7	nomatch	grand	-1	1	y	1.0871
503.6472	0.2	lkdjn	55	verb	phrase	1	8	nomatch	grand	-1	1	y	1.0871
503.84709999999995	0.0	+	55	verb	phrase	1	9	nomatch	grand	-1	1	y	1.0871
504.2469	0.2	nager	55	verb	phrase	1	10	nomatch	grand	-1	1	y	1.0871
504.44679999999994	0.0	+	55	verb	phrase	1	11	nomatch	grand	-1	1	y	1.0871
504.84669999999994	0.0	+	55	verb	phrase	1	12	nomatch	grand	-1	1	y	1.0871
506.84579999999994	0.0	GRAND	55	verb	phrase	1	13	nomatch	grand	-1	1	y	1.0871
507.99519999999995	0.0	+	55	verb	phrase	1	14	nomatch	grand	-1	1	y	1.0871
507.9329	0.0	[response]	55	verb	phrase	1	15	nomatch	grand	-1	1	y	1.0871
509.24469999999997	0.0	+	56	verb	phrase	3	1	match	peut	3	1	p	0.73135
509.7944	0.2	dsbj	56	verb	phrase	3	2	match	peut	3	1	p	0.73135
509.9943999999999	0.0	+	56	verb	phrase	3	3	match	peut	3	1	p	0.73135
510.39419999999996	0.2	qlzg	56	verb	phrase	3	4	match	peut	3	1	p	0.73135
510.5941	0.0	+	56	verb	phrase	3	5	match	peut	3	1	p	0.73135
510.99389999999994	0.2	peut	56	verb	phrase	3	6	match	peut	3	1	p	0.73135
511.1938	0.0	+	56	verb	phrase	3	7	match	peut	3	1	p	0.73135
511.5935999999999	0.2	rouler	56	verb	phrase	3	8	match	peut	3	1	p	0.73135
511.7935	0.0	+	56	verb	phrase	3	9	match	peut	3	1	p	0.73135
512.1935	0.2	vite	56	verb	phrase	3	10	match	peut	3	1	p	0.73135
512.3936	0.0	+	56	verb	phrase	3	11	match	peut	3	1	p	0.73135
512.7938	0.0	+	56	verb	phrase	3	12	match	peut	3	1	p	0.73135
514.7922	0.0	PEUT	56	verb	phrase	3	13	match	peut	3	1	p	0.73135
515.5752	0.0	+	56	verb	phrase	3	14	match	peut	3	1	p	0.73135
515.5235	0.0	[response]	56	verb	phrase	3	15	match	peut	3	1	p	0.73135
517.1911	0.0	+	57	verb	list	4	1	match	bleu	5	1	p	0.6633
517.7409	0.2	mzsvgdn	57	verb	list	4	2	match	bleu	5	1	p	0.6633
517.9408	0.0	+	57	verb	list	4	3	match	bleu	5	1	p	0.6633
518.3407	0.2	jade	57	verb	list	4	4	match	bleu	5	1	p	0.6633
518.5405	0.0	+	57	verb	list	4	5	match	bleu	5	1	p	0.6633
518.9576999999999	0.2	leur	57	verb	list	4	6	match	bleu	5	1	p	0.6633
519.1404	0.0	+	57	verb	list	4	7	match	bleu	5	1	p	0.6633
519.5407	0.2	plonger	57	verb	list	4	8	match	bleu	5	1	p	0.6633
519.74	0.0	+	57	verb	list	4	9	match	bleu	5	1	p	0.6633
520.1397999999999	0.2	bleu	57	verb	list	4	10	match	bleu	5	1	p	0.6633
520.3397	0.0	+	57	verb	list	4	11	match	bleu	5	1	p	0.6633
520.7395	0.0	+	57	verb	list	4	12	match	bleu	5	1	p	0.6633
522.7386	0.0	BLEU	57	verb	list	4	13	match	bleu	5	1	p	0.6633
523.4716	0.0	+	57	verb	list	4	14	match	bleu	5	1	p	0.6633
523.4019	0.0	[response]	57	verb	list	4	15	match	bleu	5	1	p	0.6633
533.1673	0.0	+	58	verb	list	2	1	nomatch	mieux	-1	1	y	0.77364
533.6842	0.2	tzr	58	verb	list	2	2	nomatch	mieux	-1	1	y	0.77364
533.8836	0.0	+	58	verb	list	2	3	nomatch	mieux	-1	1	y	0.77364
534.3000999999999	0.2	fwdp	58	verb	list	2	4	nomatch	mieux	-1	1	y	0.77364
534.5	0.0	+	58	verb	list	2	5	nomatch	mieux	-1	1	y	0.77364
534.8998	0.2	qcpb	58	verb	list	2	6	nomatch	mieux	-1	1	y	0.77364
535.0997	0.0	+	58	verb	list	2	7	nomatch	mieux	-1	1	y	0.77364
535.4995	0.2	petit	58	verb	list	2	8	nomatch	mieux	-1	1	y	0.77364
535.6995	0.0	+	58	verb	list	2	9	nomatch	mieux	-1	1	y	0.77364
536.0993	0.2	danser	58	verb	list	2	10	nomatch	mieux	-1	1	y	0.77364
536.2991999999999	0.0	+	58	verb	list	2	11	nomatch	mieux	-1	1	y	0.77364
536.699	0.0	+	58	verb	list	2	12	nomatch	mieux	-1	1	y	0.77364
538.6981	0.0	MIEUX	58	verb	list	2	13	nomatch	mieux	-1	1	y	0.77364
539.5310999999999	0.0	+	58	verb	list	2	14	nomatch	mieux	-1	1	y	0.77364
539.4716999999999	0.0	[response]	58	verb	list	2	15	nomatch	mieux	-1	1	y	0.77364
541.097	0.0	+	59	verb	list	2	1	nomatch	blanc	-1	0	p	1.4754
541.6468	0.2	lhx	59	verb	list	2	2	nomatch	blanc	-1	0	p	1.4754
541.8466999999999	0.0	+	59	verb	list	2	3	nomatch	blanc	-1	0	p	1.4754
542.2465	0.2	bnmr	59	verb	list	2	4	nomatch	blanc	-1	0	p	1.4754
542.4463999999999	0.0	+	59	verb	list	2	5	nomatch	blanc	-1	0	p	1.4754
542.8469	0.2	vfcg	59	verb	list	2	6	nomatch	blanc	-1	0	p	1.4754
543.063	0.0	+	59	verb	list	2	7	nomatch	blanc	-1	0	p	1.4754
543.4462	0.2	plonger	59	verb	list	2	8	nomatch	blanc	-1	0	p	1.4754
543.6459	0.0	+	59	verb	list	2	9	nomatch	blanc	-1	0	p	1.4754
544.0457	0.2	rouge	59	verb	list	2	10	nomatch	blanc	-1	0	p	1.4754
544.2456	0.0	+	59	verb	list	2	11	nomatch	blanc	-1	0	p	1.4754
544.6454	0.0	+	59	verb	list	2	12	nomatch	blanc	-1	0	p	1.4754
546.6445	0.0	BLANC	59	verb	list	2	13	nomatch	blanc	-1	0	p	1.4754
548.1772	0.0	+	59	verb	list	2	14	nomatch	blanc	-1	0	p	1.4754
548.1199	0.0	[response]	59	verb	list	2	15	nomatch	blanc	-1	0	p	1.4754
549.0434	0.0	+	60	noun	list	1	1	match	beaucoup	5	1	p	0.62213
549.5932	0.2	jrfdvh	60	noun	list	1	2	match	beaucoup	5	1	p	0.62213
549.7931	0.0	+	60	noun	list	1	3	match	beaucoup	5	1	p	0.62213
550.1937	0.2	sqxk	60	noun	list	1	4	match	beaucoup	5	1	p	0.62213
550.4099	0.0	+	60	noun	list	1	5	match	beaucoup	5	1	p	0.62213
550.7927	0.2	tqd	60	noun	list	1	6	match	beaucoup	5	1	p	0.62213
550.9925999999999	0.0	+	60	noun	list	1	7	match	beaucoup	5	1	p	0.62213
551.3924	0.2	cglqzs	60	noun	list	1	8	match	beaucoup	5	1	p	0.62213
551.5923	0.0	+	60	noun	list	1	9	match	beaucoup	5	1	p	0.62213
551.9920999999999	0.2	beaucoup	60	noun	list	1	10	match	beaucoup	5	1	p	0.62213
552.192	0.0	+	60	noun	list	1	11	match	beaucoup	5	1	p	0.62213
552.5918	0.0	+	60	noun	list	1	12	match	beaucoup	5	1	p	0.62213
554.6078	0.0	BEAUCOUP	60	noun	list	1	13	match	beaucoup	5	1	p	0.62213
555.308	0.0	+	60	noun	list	1	14	match	beaucoup	5	1	p	0.62213
555.2299	0.0	[response]	60	noun	list	1	15	match	beaucoup	5	1	p	0.62213
557.0239	0.0	+	61	verb	phrase	1	1	nomatch	vite	-1	1	y	0.79667
557.5403	0.2	zkrxlsv	61	verb	phrase	1	2	nomatch	vite	-1	1	y	0.79667
557.7395	0.0	+	61	verb	phrase	1	3	nomatch	vite	-1	1	y	0.79667
558.1394	0.2	qlzg	61	verb	phrase	1	4	nomatch	vite	-1	1	y	0.79667
558.3393	0.0	+	61	verb	phrase	1	5	nomatch	vite	-1	1	y	0.79667
558.7391	0.2	xnhd	61	verb	phrase	1	6	nomatch	vite	-1	1	y	0.79667
558.939	0.0	+	61	verb	phrase	1	7	nomatch	vite	-1	1	y	0.79667
559.3388	0.2	gjcdqmt	61	verb	phrase	1	8	nomatch	vite	-1	1	y	0.79667
559.5387	0.0	+	61	verb	phrase	1	9	nomatch	vite	-1	1	y	0.79667
559.9386	0.2	loin	61	verb	phrase	1	10	nomatch	vite	-1	1	y	0.79667
560.1383999999999	0.0	+	61	verb	phrase	1	11	nomatch	vite	-1	1	y	0.79667
560.5382999999999	0.0	+	61	verb	phrase	1	12	nomatch	vite	-1	1	y	0.79667
562.5375	0.0	VITE	61	verb	phrase	1	13	nomatch	vite	-1	1	y	0.79667
563.387	0.0	+	61	verb	phrase	1	14	nomatch	vite	-1	1	y	0.79667
563.3342	0.0	[response]	61	verb	phrase	1	15	nomatch	vite	-1	1	y	0.79667
564.9366	0.0	+	62	noun	phrase	1	1	match	casier	5	1	p	1.4858
565.4861	0.2	gqzftwl	62	noun	phrase	1	2	match	casier	5	1	p	1.4858
565.686	0.0	+	62	noun	phrase	1	3	match	casier	5	1	p	1.4858
566.0858	0.2	fwdp	62	noun	phrase	1	4	match	casier	5	1	p	1.4858
566.2858	0.0	+	62	noun	phrase	1	5	match	casier	5	1	p	1.4858
566.6862	0.2	tqd	62	noun	phrase	1	6	match	casier	5	1	p	1.4858
566.8856999999999	0.0	+	62	noun	phrase	1	7	match	casier	5	1	p	1.4858
567.3024	0.2	kwrgbsz	62	noun	phrase	1	8	match	casier	5	1	p	1.4858
567.4855	0.0	+	62	noun	phrase	1	9	match	casier	5	1	p	1.4858
567.885	0.2	casier	62	noun	phrase	1	10	match	casier	5	1	p	1.4858
568.0849	0.0	+	62	noun	phrase	1	11	match	casier	5	1	p	1.4858
568.4847	0.0	+	62	noun	phrase	1	12	match	casier	5	1	p	1.4858
570.4838	0.0	CASIER	62	noun	phrase	1	13	match	casier	5	1	p	1.4858
572.0331	0.0	+	62	noun	phrase	1	14	match	casier	5	1	p	1.4858
571.9696	0.0	[response]	62	noun	phrase	1	15	match	casier	5	1	p	1.4858
580.9123999999999	0.0	+	63	verb	list	1	1	nomatch	grand	-1	1	y	0.6568
581.4454999999999	0.2	xthfm	63	verb	list	1	2	nomatch	grand	-1	1	y	0.6568
581.6454	0.0	+	63	verb	list	1	3	nomatch	grand	-1	1	y	0.6568
582.0453	0.2	nxwc	63	verb	list	1	4	nomatch	grand	-1	1	y	0.6568
582.2452	0.0	+	63	verb	list	1	5	nomatch	grand	-1	1	y	0.6568
582.645	0.2	vfcg	63	verb	list	1	6	nomatch	grand	-1	1	y	0.6568
582.8448999999999	0.0	+	63	verb	list	1	7	nomatch	grand	-1	1	y	0.6568
583.2454	0.2	vlpmt	63	verb	list	1	8	nomatch	grand	-1	1	y	0.6568
583.4449999999999	0.0	+	63	verb	list	1	9	nomatch	grand	-1	1	y	0.6568
583.845	0.2	nager	63	verb	list	1	10	nomatch	grand	-1	1	y	0.6568
584.0446	0.0	+	63	verb	list	1	11	nomatch	grand	-1	1	y	0.6568
584.4442	0.0	+	63	verb	list	1	12	nomatch	grand	-1	1	y	0.6568
586.4433	0.0	GRAND	63	verb	list	1	13	nomatch	grand	-1	1	y	0.6568
587.2101	0.0	+	63	verb	list	1	14	nomatch	grand	-1	1	y	0.6568
587.1001000000001	0.0	[response]	63	verb	list	1	15	nomatch	grand	-1	1	y	0.6568
588.8421999999999	0.0	+	64	verb	list	1	1	match	rouge	5	0	y	1.118
589.3919999999999	0.2	xsgh	64	verb	list	1	2	match	rouge	5	0	y	1.118
589.5919	0.0	+	64	verb	list	1	3	match	rouge	5	0	y	1.118
589.9916999999999	0.2	ckfr	64	verb	list	1	4	match	rouge	5	0	y	1.118
590.192	0.0	+	64	verb	list	1	5	match	rouge	5	0	y	1.118
590.5915	0.2	rfc	64	verb	list	1	6	match	rouge	5	0	y	1.118
590.792	0.0	+	64	verb	list	1	7	match	rouge	5	0	y	1.118
591.1915	0.2	vzckn	64	verb	list	1	8	match	rouge	5	0	y	1.118
591.4081	0.0	+	64	verb	list	1	9	match	rouge	5	0	y	1.118
591.7909	0.2	rouge	64	verb	list	1	10	match	rouge	5	0	y	1.118
591.9908	0.0	+	64	verb	list	1	11	match	rouge	5	0	y	1.118
592.3906	0.0	+	64	verb	list	1	12	match	rouge	5	0	y	1.118
594.3897	0.0	ROUGE	64	verb	list	1	13	match	rouge	5	0	y	1.118
595.5725	0.0	+	64	verb	list	1	14	match	rouge	5	0	y	1.118
595.5077	0.0	[response]	64	verb	list	1	15	match	rouge	5	0	y	1.118
596.7886	0.0	+	65	noun	list	1	1	nomatch	beaucoup	-1	1	y	1.8211
597.3384	0.2	tkzg	65	noun	list	1	2	nomatch	beaucoup	-1	1	y	1.8211
597.5382999999999	0.0	+	65	noun	list	1	3	nomatch	beaucoup	-1	1	y	1.8211
597.9381	0.2	qlzg	65	noun	list	1	4	nomatch	beaucoup	-1	1	y	1.8211
598.138	0.0	+	65	noun	list	1	5	nomatch	beaucoup	-1	1	y	1.8211
598.5378	0.2	tqd	65	noun	list	1	6	nomatch	beaucoup	-1	1	y	1.8211
598.7378	0.0	+	65	noun	list	1	7	nomatch	beaucoup	-1	1	y	1.8211
599.1376	0.2	mdrcxzj	65	noun	list	1	8	nomatch	beaucoup	-1	1	y	1.8211
599.3375	0.0	+	65	noun	list	1	9	nomatch	beaucoup	-1	1	y	1.8211
599.7373	0.2	plus	65	noun	list	1	10	nomatch	beaucoup	-1	1	y	1.8211
599.9377999999999	0.0	+	65	noun	list	1	11	nomatch	beaucoup	-1	1	y	1.8211
600.3539	0.0	+	65	noun	list	1	12	nomatch	beaucoup	-1	1	y	1.8211
602.3366	0.0	BEAUCOUP	65	noun	list	1	13	nomatch	beaucoup	-1	1	y	1.8211
604.2185999999999	0.0	+	65	noun	list	1	14	nomatch	beaucoup	-1	1	y	1.8211
604.1578000000001	0.0	[response]	65	noun	list	1	15	nomatch	beaucoup	-1	1	y	1.8211
604.7351	0.0	+	66	verb	list	1	1	match	vieux	5	1	p	0.7057000000000001
605.2848	0.2	kbvc	66	verb	list	1	2	match	vieux	5	1	p	0.7057000000000001
605.4847	0.0	+	66	verb	list	1	3	match	vieux	5	1	p	0.7057000000000001
605.8845	0.2	cqgv	66	verb	list	1	4	match	vieux	5	1	p	0.7057000000000001
606.0844999999999	0.0	+	66	verb	list	1	5	match	vieux	5	1	p	0.7057000000000001
606.4843	0.2	qcpb	66	verb	list	1	6	match	vieux	5	1	p	0.7057000000000001
606.6842	0.0	+	66	verb	list	1	7	match	vieux	5	1	p	0.7057000000000001
607.084	0.2	sdwnlp	66	verb	list	1	8	match	vieux	5	1	p	0.7057000000000001
607.2839	0.0	+	66	verb	list	1	9	match	vieux	5	1	p	0.7057000000000001
607.7171999999999	0.2	vieux	66	verb	list	1	10	match	vieux	5	1	p	0.7057000000000001
607.8842999999999	0.0	+	66	verb	list	1	11	match	vieux	5	1	p	0.7057000000000001
608.3000999999999	0.0	+	66	verb	list	1	12	match	vieux	5	1	p	0.7057000000000001
610.2991999999999	0.0	VIEUX	66	verb	list	1	13	match	vieux	5	1	p	0.7057000000000001
611.0995	0.0	+	66	verb	list	1	14	match	vieux	5	1	p	0.7057000000000001
611.0049	0.0	[response]	66	verb	list	1	15	match	vieux	5	1	p	0.7057000000000001
612.6981999999999	0.0	+	67	verb	list	3	1	nomatch	mon	-1	1	y	1.0627
613.2479	0.2	gmx	67	verb	list	3	2	nomatch	mon	-1	1	y	1.0627
613.4478	0.0	+	67	verb	list	3	3	nomatch	mon	-1	1	y	1.0627
613.8475999999999	0.2	sqxk	67	verb	list	3	4	nomatch	mon	-1	1	y	1.0627
614.0475	0.0	+	67	verb	list	3	5	nomatch	mon	-1	1	y	1.0627
614.4474	0.2	son	67	verb	list	3	6	nomatch	mon	-1	1	y	1.0627
614.6473	0.0	+	67	verb	list	3	7	nomatch	mon	-1	1	y	1.0627
615.0471	0.2	plonger	67	verb	list	3	8	nomatch	mon	-1	1	y	1.0627
615.247	0.0	+	67	verb	list	3	9	nomatch	mon	-1	1	y	1.0627
615.6468	0.2	rouge	67	verb	list	3	10	nomatch	mon	-1	1	y	1.0627
615.8466999999999	0.0	+	67	verb	list	3	11	nomatch	mon	-1	1	y	1.0627
616.2466	0.0	+	67	verb	list	3	12	nomatch	mon	-1	1	y	1.0627
618.2456	0.0	MON	67	verb	list	3	13	nomatch	mon	-1	1	y	1.0627
619.3618	0.0	+	67	verb	list	3	14	nomatch	mon	-1	1	y	1.0627
619.3083	0.0	[response]	67	verb	list	3	15	nomatch	mon	-1	1	y	1.0627
620.6446	0.0	+	68	verb	phrase	4	1	nomatch	marc	-1	1	y	0.87514
621.1948	0.2	dhjbmgs	68	verb	phrase	4	2	nomatch	marc	-1	1	y	0.87514
621.3946	0.0	+	68	verb	phrase	4	3	nomatch	marc	-1	1	y	0.87514
621.7945	0.2	adam	68	verb	phrase	4	4	nomatch	marc	-1	1	y	0.87514
622.0274	0.0	+	68	verb	phrase	4	5	nomatch	marc	-1	1	y	0.87514
622.3937999999999	0.2	va	68	verb	phrase	4	6	nomatch	marc	-1	1	y	0.87514
622.5937	0.0	+	68	verb	phrase	4	7	nomatch	marc	-1	1	y	0.87514
622.9934999999999	0.2	mieux	68	verb	phrase	4	8	nomatch	marc	-1	1	y	0.87514
623.1934	0.0	+	68	verb	phrase	4	9	nomatch	marc	-1	1	y	0.87514
623.5932	0.2	parader	68	verb	phrase	4	10	nomatch	marc	-1	1	y	0.87514
623.7932	0.0	+	68	verb	phrase	4	11	nomatch	marc	-1	1	y	0.87514
624.193	0.0	+	68	verb	phrase	4	12	nomatch	marc	-1	1	y	0.87514
626.1921	0.0	MARC	68	verb	phrase	4	13	nomatch	marc	-1	1	y	0.87514
627.125	0.0	+	68	verb	phrase	4	14	nomatch	marc	-1	1	y	0.87514
627.0672	0.0	[response]	68	verb	phrase	4	15	nomatch	marc	-1	1	y	0.87514
628.591	0.0	+	69	verb	phrase	3	1	nomatch	grenier	-1	1	y	1.5478
629.1406999999999	0.2	xqw	69	verb	phrase	3	2	nomatch	grenier	-1	1	y	1.5478
629.3407	0.0	+	69	verb	phrase	3	3	nomatch	grenier	-1	1	y	1.5478
629.7405	0.2	nxwc	69	verb	phrase	3	4	nomatch	grenier	-1	1	y	1.5478
629.9404	0.0	+	69	verb	phrase	3	5	nomatch	grenier	-1	1	y	1.5478
630.3402	0.2	peut	69	verb	phrase	3	6	nomatch	grenier	-1	1	y	1.5478
630.5400999999999	0.0	+	69	verb	phrase	3	7	nomatch	grenier	-1	1	y	1.5478
630.9399999999999	0.2	jongler	69	verb	phrase	3	8	nomatch	grenier	-1	1	y	1.5478
631.1399	0.0	+	69	verb	phrase	3	9	nomatch	grenier	-1	1	y	1.5478
631.5396999999999	0.2	ainsi	69	verb	phrase	3	10	nomatch	grenier	-1	1	y	1.5478
631.7396	0.0	+	69	verb	phrase	3	11	nomatch	grenier	-1	1	y	1.5478
632.1394	0.0	+	69	verb	phrase	3	12	nomatch	grenier	-1	1	y	1.5478
634.1389	0.0	GRENIER	69	verb	phrase	3	13	nomatch	grenier	-1	1	y	1.5478
635.7544	0.0	+	69	verb	phrase	3	14	nomatch	grenier	-1	1	y	1.5478
635.6867000000001	0.0	[response]	69	verb	phrase	3	15	nomatch	grenier	-1	1	y	1.5478
636.5373999999999	0.0	+	70	verb	list	1	1	match	voyager	5	1	p	1.0717
637.0871999999999	0.2	fvn	70	verb	list	1	2	match	voyager	5	1	p	1.0717
637.2871	0.0	+	70	verb	list	1	3	match	voyager	5	1	p	1.0717
637.6868999999999	0.2	sqxk	70	verb	list	1	4	match	voyager	5	1	p	1.0717
637.8868	0.0	+	70	verb	list	1	5	match	voyager	5	1	p	1.0717
638.2866	0.2	vfcg	70	verb	list	1	6	match	voyager	5	1	p	1.0717
638.4866	0.0	+	70	verb	list	1	7	match	voyager	5	1	p	1.0717
638.8864	0.2	bsnmt	70	verb	list	1	8	match	voyager	5	1	p	1.0717
639.0862999999999	0.0	+	70	verb	list	1	9	match	voyager	5	1	p	1.0717
639.4861	0.2	voyager	70	verb	list	1	10	match	voyager	5	1	p	1.0717
639.686	0.0	+	70	verb	list	1	11	match	voyager	5	1	p	1.0717
640.0864	0.0	+	70	verb	list	1	12	match	voyager	5	1	p	1.0717
642.0851	0.0	VOYAGER	70	verb	list	1	13	match	voyager	5	1	p	1.0717
643.2178	0.0	+	70	verb	list	1	14	match	voyager	5	1	p	1.0717
643.1568	0.0	[response]	70	verb	list	1	15	match	voyager	5	1	p	1.0717
644.4838	0.0	+	71	verb	phrase	4	1	nomatch	danser	-1	1	y	0.78641
645.0337999999999	0.2	zvdhq	71	verb	phrase	4	2	nomatch	danser	-1	1	y	0.78641
645.2336	0.0	+	71	verb	phrase	4	3	nomatch	danser	-1	1	y	0.78641
645.65	0.2	jade	71	verb	phrase	4	4	nomatch	danser	-1	1	y	0.78641
645.8498999999999	0.0	+	71	verb	phrase	4	5	nomatch	danser	-1	1	y	0.78641
646.2497	0.2	doit	71	verb	phrase	4	6	nomatch	danser	-1	1	y	0.78641
646.4497	0.0	+	71	verb	phrase	4	7	nomatch	danser	-1	1	y	0.78641
646.8501	0.2	nager	71	verb	phrase	4	8	nomatch	danser	-1	1	y	0.78641
647.0497	0.0	+	71	verb	phrase	4	9	nomatch	danser	-1	1	y	0.78641
647.4496	0.2	loin	71	verb	phrase	4	10	nomatch	danser	-1	1	y	0.78641
647.6496999999999	0.0	+	71	verb	phrase	4	11	nomatch	danser	-1	1	y	0.78641
648.0489	0.0	+	71	verb	phrase	4	12	nomatch	danser	-1	1	y	0.78641
650.048	0.0	DANSER	71	verb	phrase	4	13	nomatch	danser	-1	1	y	0.78641
650.8976	0.0	+	71	verb	phrase	4	14	nomatch	danser	-1	1	y	0.78641
650.8344	0.0	[response]	71	verb	phrase	4	15	nomatch	danser	-1	1	y	0.78641
652.4469	0.0	+	72	verb	phrase	1	1	match	patiner	5	0	y	1.1456
652.9967	0.2	wltkpbj	72	verb	phrase	1	2	match	patiner	5	0	y	1.1456
653.1966	0.0	+	72	verb	phrase	1	3	match	patiner	5	0	y	1.1456
653.5964	0.2	tjxp	72	verb	phrase	1	4	match	patiner	5	0	y	1.1456
653.7963	0.0	+	72	verb	phrase	1	5	match	patiner	5	0	y	1.1456
654.2135	0.2	qcpb	72	verb	phrase	1	6	match	patiner	5	0	y	1.1456
654.3968	0.0	+	72	verb	phrase	1	7	match	patiner	5	0	y	1.1456
654.7964	0.2	pjtckmqb	72	verb	phrase	1	8	match	patiner	5	0	y	1.1456
654.9965	0.0	+	72	verb	phrase	1	9	match	patiner	5	0	y	1.1456
655.3957	0.2	patiner	72	verb	phrase	1	10	match	patiner	5	0	y	1.1456
655.5955	0.0	+	72	verb	phrase	1	11	match	patiner	5	0	y	1.1456
655.9952999999999	0.0	+	72	verb	phrase	1	12	match	patiner	5	0	y	1.1456
657.9951	0.0	PATINER	72	verb	phrase	1	13	match	patiner	5	0	y	1.1456
659.1939	0.0	+	72	verb	phrase	1	14	match	patiner	5	0	y	1.1456
659.1406999999999	0.0	[response]	72	verb	phrase	1	15	match	patiner	5	0	y	1.1456
660.3933999999999	0.0	+	73	verb	phrase	2	1	nomatch	tôt	-1	1	y	1.0693
660.9431	0.2	rzfs	73	verb	phrase	2	2	nomatch	tôt	-1	1	y	1.0693
661.1433999999999	0.0	+	73	verb	phrase	2	3	nomatch	tôt	-1	1	y	1.0693
661.543	0.2	ckfr	73	verb	phrase	2	4	nomatch	tôt	-1	1	y	1.0693
661.7434999999999	0.0	+	73	verb	phrase	2	5	nomatch	tôt	-1	1	y	1.0693
662.1433	0.2	xnhd	73	verb	phrase	2	6	nomatch	tôt	-1	1	y	1.0693
662.3428	0.0	+	73	verb	phrase	2	7	nomatch	tôt	-1	1	y	1.0693
662.7423	0.2	moins	73	verb	phrase	2	8	nomatch	tôt	-1	1	y	1.0693
662.9422	0.0	+	73	verb	phrase	2	9	nomatch	tôt	-1	1	y	1.0693
663.342	0.2	rouler	73	verb	phrase	2	10	nomatch	tôt	-1	1	y	1.0693
663.542	0.0	+	73	verb	phrase	2	11	nomatch	tôt	-1	1	y	1.0693
663.9418	0.0	+	73	verb	phrase	2	12	nomatch	tôt	-1	1	y	1.0693
665.9408999999999	0.0	TÔT	73	verb	phrase	2	13	nomatch	tôt	-1	1	y	1.0693
667.0737	0.0	+	73	verb	phrase	2	14	nomatch	tôt	-1	1	y	1.0693
667.0101999999999	0.0	[response]	73	verb	phrase	2	15	nomatch	tôt	-1	1	y	1.0693
668.3398	0.0	+	74	noun	phrase	1	1	nomatch	jean	-1	1	y	0.64207
668.8895	0.2	tckbr	74	noun	phrase	1	2	nomatch	jean	-1	1	y	0.64207
669.0894	0.0	+	74	noun	phrase	1	3	nomatch	jean	-1	1	y	0.64207
669.4893	0.2	crtd	74	noun	phrase	1	4	nomatch	jean	-1	1	y	0.64207
669.6892	0.0	+	74	noun	phrase	1	5	nomatch	jean	-1	1	y	0.64207
670.0889999999999	0.2	tqd	74	noun	phrase	1	6	nomatch	jean	-1	1	y	0.64207
670.2889	0.0	+	74	noun	phrase	1	7	nomatch	jean	-1	1	y	0.64207
670.6892	0.2	kgmxp	74	noun	phrase	1	8	nomatch	jean	-1	1	y	0.64207
670.8886	0.0	+	74	noun	phrase	1	9	nomatch	jean	-1	1	y	0.64207
671.289	0.2	sablier	74	noun	phrase	1	10	nomatch	jean	-1	1	y	0.64207
671.4889	0.0	+	74	noun	phrase	1	11	nomatch	jean	-1	1	y	0.64207
671.8882	0.0	+	74	noun	phrase	1	12	nomatch	jean	-1	1	y	0.64207
673.8873	0.0	JEAN	74	noun	phrase	1	13	nomatch	jean	-1	1	y	0.64207
674.587	0.0	+	74	noun	phrase	1	14	nomatch	jean	-1	1	y	0.64207
674.5294	0.0	[response]	74	noun	phrase	1	15	nomatch	jean	-1	1	y	0.64207
684.3163	0.0	+	75	verb	phrase	2	1	match	voyager	4	0	y	0.71438
684.8497	0.2	pdwsrkq	75	verb	phrase	2	2	match	voyager	4	0	y	0.71438
685.0658999999999	0.0	+	75	verb	phrase	2	3	match	voyager	4	0	y	0.71438
685.4488	0.2	sqxk	75	verb	phrase	2	4	match	voyager	4	0	y	0.71438
685.6487	0.0	+	75	verb	phrase	2	5	match	voyager	4	0	y	0.71438
686.0485	0.2	qcpb	75	verb	phrase	2	6	match	voyager	4	0	y	0.71438
686.2484	0.0	+	75	verb	phrase	2	7	match	voyager	4	0	y	0.71438
686.6482	0.2	voyager	75	verb	phrase	2	8	match	voyager	4	0	y	0.71438
686.8480999999999	0.0	+	75	verb	phrase	2	9	match	voyager	4	0	y	0.71438
687.2479999999999	0.2	loin	75	verb	phrase	2	10	match	voyager	4	0	y	0.71438
687.4479	0.0	+	75	verb	phrase	2	11	match	voyager	4	0	y	0.71438
687.8477	0.0	+	75	verb	phrase	2	12	match	voyager	4	0	y	0.71438
689.8473	0.0	VOYAGER	75	verb	phrase	2	13	match	voyager	4	0	y	0.71438
690.6131	0.0	+	75	verb	phrase	2	14	match	voyager	4	0	y	0.71438
690.5617000000001	0.0	[response]	75	verb	phrase	2	15	match	voyager	4	0	y	0.71438
708.2384999999999	0.0	+	76	verb	phrase	3	1	match	danser	4	1	p	0.85053
708.7882999999999	0.2	zxbtcd	76	verb	phrase	3	2	match	danser	4	1	p	0.85053
708.9882	0.0	+	76	verb	phrase	3	3	match	danser	4	1	p	0.85053
709.388	0.2	ckfr	76	verb	phrase	3	4	match	danser	4	1	p	0.85053
709.5879	0.0	+	76	verb	phrase	3	5	match	danser	4	1	p	0.85053
709.9877	0.2	va	76	verb	phrase	3	6	match	danser	4	1	p	0.85053
710.1876	0.0	+	76	verb	phrase	3	7	match	danser	4	1	p	0.85053
710.6048	0.2	danser	76	verb	phrase	3	8	match	danser	4	1	p	0.85053
710.7879	0.0	+	76	verb	phrase	3	9	match	danser	4	1	p	0.85053
711.1879	0.2	vite	76	verb	phrase	3	10	match	danser	4	1	p	0.85053
711.3874999999999	0.0	+	76	verb	phrase	3	11	match	danser	4	1	p	0.85053
711.7869	0.0	+	76	verb	phrase	3	12	match	danser	4	1	p	0.85053
713.786	0.0	DANSER	76	verb	phrase	3	13	match	danser	4	1	p	0.85053
714.7022999999999	0.0	+	76	verb	phrase	3	14	match	danser	4	1	p	0.85053
714.6365	0.0	[response]	76	verb	phrase	3	15	match	danser	4	1	p	0.85053
724.198	0.0	+	77	verb	list	1	1	nomatch	peut	-1	1	y	0.72924
724.7477	0.2	dxz	77	verb	list	1	2	nomatch	peut	-1	1	y	0.72924
724.9476	0.0	+	77	verb	list	1	3	nomatch	peut	-1	1	y	0.72924
725.3646	0.2	bnmr	77	verb	list	1	4	nomatch	peut	-1	1	y	0.72924
725.5481	0.0	+	77	verb	list	1	5	nomatch	peut	-1	1	y	0.72924
725.9646	0.2	vfcg	77	verb	list	1	6	nomatch	peut	-1	1	y	0.72924
726.1475	0.0	+	77	verb	list	1	7	nomatch	peut	-1	1	y	0.72924
726.5468999999999	0.2	gjcdqmt	77	verb	list	1	8	nomatch	peut	-1	1	y	0.72924
726.7468	0.0	+	77	verb	list	1	9	nomatch	peut	-1	1	y	0.72924
727.1467	0.2	blanc	77	verb	list	1	10	nomatch	peut	-1	1	y	0.72924
727.3466	0.0	+	77	verb	list	1	11	nomatch	peut	-1	1	y	0.72924
727.7464	0.0	+	77	verb	list	1	12	nomatch	peut	-1	1	y	0.72924
729.7455	0.0	PEUT	77	verb	list	1	13	nomatch	peut	-1	1	y	0.72924
730.5285	0.0	+	77	verb	list	1	14	nomatch	peut	-1	1	y	0.72924
730.4747000000001	0.0	[response]	77	verb	list	1	15	nomatch	peut	-1	1	y	0.72924
740.1408	0.0	+	78	verb	list	1	1	nomatch	sans	-1	1	y	0.72213
740.6906	0.2	qpn	78	verb	list	1	2	nomatch	sans	-1	1	y	0.72213
740.8905	0.0	+	78	verb	list	1	3	nomatch	sans	-1	1	y	0.72213
741.2903	0.2	crtd	78	verb	list	1	4	nomatch	sans	-1	1	y	0.72213
741.4902	0.0	+	78	verb	list	1	5	nomatch	sans	-1	1	y	0.72213
741.89	0.2	xnhd	78	verb	list	1	6	nomatch	sans	-1	1	y	0.72213
742.09	0.0	+	78	verb	list	1	7	nomatch	sans	-1	1	y	0.72213
742.4905	0.2	cvwk	78	verb	list	1	8	nomatch	sans	-1	1	y	0.72213
742.6897	0.0	+	78	verb	list	1	9	nomatch	sans	-1	1	y	0.72213
743.0894999999999	0.2	plonger	78	verb	list	1	10	nomatch	sans	-1	1	y	0.72213
743.2894	0.0	+	78	verb	list	1	11	nomatch	sans	-1	1	y	0.72213
743.6895	0.0	+	78	verb	list	1	12	nomatch	sans	-1	1	y	0.72213
745.6883	0.0	SANS	78	verb	list	1	13	nomatch	sans	-1	1	y	0.72213
746.4712999999999	0.0	+	78	verb	list	1	14	nomatch	sans	-1	1	y	0.72213
746.4105	0.0	[response]	78	verb	list	1	15	nomatch	sans	-1	1	y	0.72213
748.0871999999999	0.0	+	79	verb	list	1	1	match	vert	5	0	y	0.79734
748.637	0.2	hnbzr	79	verb	list	1	2	match	vert	5	0	y	0.79734
748.8369	0.0	+	79	verb	list	1	3	match	vert	5	0	y	0.79734
749.2366999999999	0.2	qlzg	79	verb	list	1	4	match	vert	5	0	y	0.79734
749.4366	0.0	+	79	verb	list	1	5	match	vert	5	0	y	0.79734
749.8366	0.2	vfcg	79	verb	list	1	6	match	vert	5	0	y	0.79734
750.0364	0.0	+	79	verb	list	1	7	match	vert	5	0	y	0.79734
750.4366	0.2	wmrbjtl	79	verb	list	1	8	match	vert	5	0	y	0.79734
750.6360999999999	0.0	+	79	verb	list	1	9	match	vert	5	0	y	0.79734
751.0359	0.2	vert	79	verb	list	1	10	match	vert	5	0	y	0.79734
751.2357999999999	0.0	+	79	verb	list	1	11	match	vert	5	0	y	0.79734
751.6356	0.0	+	79	verb	list	1	12	match	vert	5	0	y	0.79734
753.635	0.0	VERT	79	verb	list	1	13	match	vert	5	0	y	0.79734
754.4843999999999	0.0	+	79	verb	list	1	14	match	vert	5	0	y	0.79734
754.4322999999999	0.0	[response]	79	verb	list	1	15	match	vert	5	0	y	0.79734
756.0507	0.0	+	80	noun	phrase	2	1	match	grand	4	0	y	0.8446400000000001
756.6004	0.2	zmvbpd	80	noun	phrase	2	2	match	grand	4	0	y	0.8446400000000001
756.8	0.0	+	80	noun	phrase	2	3	match	grand	4	0	y	0.8446400000000001
757.2005	0.2	lbvx	80	noun	phrase	2	4	match	grand	4	0	y	0.8446400000000001
757.3996999999999	0.0	+	80	noun	phrase	2	5	match	grand	4	0	y	0.8446400000000001
757.7995	0.2	rfc	80	noun	phrase	2	6	match	grand	4	0	y	0.8446400000000001
757.9993999999999	0.0	+	80	noun	phrase	2	7	match	grand	4	0	y	0.8446400000000001
758.3992999999999	0.2	grand	80	noun	phrase	2	8	match	grand	4	0	y	0.8446400000000001
758.5992	0.0	+	80	noun	phrase	2	9	match	grand	4	0	y	0.8446400000000001
758.999	0.2	rocher	80	noun	phrase	2	10	match	grand	4	0	y	0.8446400000000001
759.1989	0.0	+	80	noun	phrase	2	11	match	grand	4	0	y	0.8446400000000001
759.5994	0.0	+	80	noun	phrase	2	12	match	grand	4	0	y	0.8446400000000001
761.5978	0.0	GRAND	80	noun	phrase	2	13	match	grand	4	0	y	0.8446400000000001
762.4974	0.0	+	80	noun	phrase	2	14	match	grand	4	0	y	0.8446400000000001
763.9968	0.0	+	80	noun	phrase	2	15	match	grand	4	0	y	0.8446400000000001
765.013	0.0	+	80	noun	phrase	2	16	match	grand	4	0	y	0.8446400000000001
765.1129	0.0	+	80	noun	phrase	2	17	match	grand	4	0	y	0.8446400000000001
766.5123	0.0	+	80	noun	phrase	2	18	match	grand	4	0	y	0.8446400000000001
766.6123	0.0	+	80	noun	phrase	2	19	match	grand	4	0	y	0.8446400000000001
768.0115999999999	0.0	+	80	noun	phrase	2	20	match	grand	4	0	y	0.8446400000000001
768.1116	0.0	+	80	noun	phrase	2	21	match	grand	4	0	y	0.8446400000000001
769.5109	0.0	+	80	noun	phrase	2	22	match	grand	4	0	y	0.8446400000000001
769.6109	0.0	+	80	noun	phrase	2	23	match	grand	4	0	y	0.8446400000000001
771.0103	0.0	+	80	noun	phrase	2	24	match	grand	4	0	y	0.8446400000000001
771.1102	0.0	+	80	noun	phrase	2	25	match	grand	4	0	y	0.8446400000000001
772.5096	0.0	+	80	noun	phrase	2	26	match	grand	4	0	y	0.8446400000000001
772.6095	0.0	+	80	noun	phrase	2	27	match	grand	4	0	y	0.8446400000000001
774.0088999999999	0.0	+	80	noun	phrase	2	28	match	grand	4	0	y	0.8446400000000001
774.1089	0.0	+	80	noun	phrase	2	29	match	grand	4	0	y	0.8446400000000001
775.5082	0.0	+	80	noun	phrase	2	30	match	grand	4	0	y	0.8446400000000001
775.6082	0.0	+	80	noun	phrase	2	31	match	grand	4	0	y	0.8446400000000001
777.0076	0.0	+	80	noun	phrase	2	32	match	grand	4	0	y	0.8446400000000001
777.1075	0.0	+	80	noun	phrase	2	33	match	grand	4	0	y	0.8446400000000001
778.5069	0.0	+	80	noun	phrase	2	34	match	grand	4	0	y	0.8446400000000001
778.6069	0.0	+	80	noun	phrase	2	35	match	grand	4	0	y	0.8446400000000001
782.8883	0.0	+	80	noun	phrase	2	36	match	grand	4	0	y	0.8446400000000001
762.4425	0.0	[response]	80	noun	phrase	2	37	match	grand	4	0	y	0.8446400000000001
