onset	duration	stim	trial_number	trial_type	trial_structure	trial_length	sequential_position	probe_type	probe	probe_position	response_correct	response_key	response_time
0.06650000000000489	0.0	+	1	verb	phrase	1	1	nomatch	tard	-1	1	y	1.6254
0.549900000000008	0.2	pxrl	1	verb	phrase	1	2	nomatch	tard	-1	1	y	1.6254
0.7498000000000076	0.0	+	1	verb	phrase	1	3	nomatch	tard	-1	1	y	1.6254
1.149799999999999	0.2	lnjw	1	verb	phrase	1	4	nomatch	tard	-1	1	y	1.6254
1.3498000000000019	0.0	+	1	verb	phrase	1	5	nomatch	tard	-1	1	y	1.6254
1.7498000000000076	0.2	kbcr	1	verb	phrase	1	6	nomatch	tard	-1	1	y	1.6254
1.949700000000007	0.0	+	1	verb	phrase	1	7	nomatch	tard	-1	1	y	1.6254
2.3496999999999986	0.2	jwxmfhp	1	verb	phrase	1	8	nomatch	tard	-1	1	y	1.6254
2.5497000000000014	0.0	+	1	verb	phrase	1	9	nomatch	tard	-1	1	y	1.6254
2.949700000000007	0.2	tôt	1	verb	phrase	1	10	nomatch	tard	-1	1	y	1.6254
3.1496999999999957	0.0	+	1	verb	phrase	1	11	nomatch	tard	-1	1	y	1.6254
3.549599999999998	0.0	+	1	verb	phrase	1	12	nomatch	tard	-1	1	y	1.6254
5.549500000000009	0.0	TARD	1	verb	phrase	1	13	nomatch	tard	-1	1	y	1.6254
7.232700000000008	0.0	+	1	verb	phrase	1	14	nomatch	tard	-1	1	y	1.6254
7.174800000000005	0.0	[response]	1	verb	phrase	1	15	nomatch	tard	-1	1	y	1.6254
7.949300000000008	0.0	+	2	noun	phrase	1	1	nomatch	cendrier	-1	1	y	1.2364
8.499200000000002	0.2	jbwv	2	noun	phrase	1	2	nomatch	cendrier	-1	1	y	1.2364
8.699200000000005	0.0	+	2	noun	phrase	1	3	nomatch	cendrier	-1	1	y	1.2364
9.099199999999996	0.2	qrgw	2	noun	phrase	1	4	nomatch	cendrier	-1	1	y	1.2364
9.299199999999999	0.0	+	2	noun	phrase	1	5	nomatch	cendrier	-1	1	y	1.2364
9.699100000000001	0.2	nlfk	2	noun	phrase	1	6	nomatch	cendrier	-1	1	y	1.2364
9.899100000000004	0.0	+	2	noun	phrase	1	7	nomatch	cendrier	-1	1	y	1.2364
10.299099999999996	0.2	gpjs	2	noun	phrase	1	8	nomatch	cendrier	-1	1	y	1.2364
10.499099999999999	0.0	+	2	noun	phrase	1	9	nomatch	cendrier	-1	1	y	1.2364
10.899100000000004	0.2	panier	2	noun	phrase	1	10	nomatch	cendrier	-1	1	y	1.2364
11.099000000000004	0.0	+	2	noun	phrase	1	11	nomatch	cendrier	-1	1	y	1.2364
11.498999999999995	0.0	+	2	noun	phrase	1	12	nomatch	cendrier	-1	1	y	1.2364
13.498900000000006	0.0	CENDRIER	2	noun	phrase	1	13	nomatch	cendrier	-1	1	y	1.2364
14.7988	0.0	+	2	noun	phrase	1	14	nomatch	cendrier	-1	1	y	1.2364
14.735200000000006	0.0	[response]	2	noun	phrase	1	15	nomatch	cendrier	-1	1	y	1.2364
15.898700000000005	0.0	+	3	noun	list	1	1	nomatch	peut	-1	1	y	1.0211
16.4486	0.2	nbwgsk	3	noun	list	1	2	nomatch	peut	-1	1	y	1.0211
16.648600000000002	0.0	+	3	noun	list	1	3	nomatch	peut	-1	1	y	1.0211
17.048600000000008	0.2	lnjw	3	noun	list	1	4	nomatch	peut	-1	1	y	1.0211
17.248599999999996	0.0	+	3	noun	list	1	5	nomatch	peut	-1	1	y	1.0211
17.6485	0.2	stm	3	noun	list	1	6	nomatch	peut	-1	1	y	1.0211
17.8485	0.0	+	3	noun	list	1	7	nomatch	peut	-1	1	y	1.0211
18.248500000000007	0.2	jmrgfh	3	noun	list	1	8	nomatch	peut	-1	1	y	1.0211
18.448499999999996	0.0	+	3	noun	list	1	9	nomatch	peut	-1	1	y	1.0211
18.848399999999998	0.2	moins	3	noun	list	1	10	nomatch	peut	-1	1	y	1.0211
19.0484	0.0	+	3	noun	list	1	11	nomatch	peut	-1	1	y	1.0211
19.448400000000007	0.0	+	3	noun	list	1	12	nomatch	peut	-1	1	y	1.0211
21.4482	0.0	PEUT	3	noun	list	1	13	nomatch	peut	-1	1	y	1.0211
22.53150000000001	0.0	+	3	noun	list	1	14	nomatch	peut	-1	1	y	1.0211
22.469400000000007	0.0	[response]	3	noun	list	1	15	nomatch	peut	-1	1	y	1.0211
31.847400000000007	0.0	+	4	verb	phrase	1	1	match	mieux	5	1	p	1.3472000000000002
32.397400000000005	0.2	qtpcvg	4	verb	phrase	1	2	match	mieux	5	1	p	1.3472000000000002
32.59740000000001	0.0	+	4	verb	phrase	1	3	match	mieux	5	1	p	1.3472000000000002
32.9974	0.2	mpnw	4	verb	phrase	1	4	match	mieux	5	1	p	1.3472000000000002
33.1973	0.0	+	4	verb	phrase	1	5	match	mieux	5	1	p	1.3472000000000002
33.597300000000004	0.2	clzr	4	verb	phrase	1	6	match	mieux	5	1	p	1.3472000000000002
33.79730000000001	0.0	+	4	verb	phrase	1	7	match	mieux	5	1	p	1.3472000000000002
34.1973	0.2	jwxmfhp	4	verb	phrase	1	8	match	mieux	5	1	p	1.3472000000000002
34.3973	0.0	+	4	verb	phrase	1	9	match	mieux	5	1	p	1.3472000000000002
34.797200000000004	0.2	mieux	4	verb	phrase	1	10	match	mieux	5	1	p	1.3472000000000002
34.99720000000001	0.0	+	4	verb	phrase	1	11	match	mieux	5	1	p	1.3472000000000002
35.3972	0.0	+	4	verb	phrase	1	12	match	mieux	5	1	p	1.3472000000000002
37.397000000000006	0.0	MIEUX	4	verb	phrase	1	13	match	mieux	5	1	p	1.3472000000000002
38.81360000000001	0.0	+	4	verb	phrase	1	14	match	mieux	5	1	p	1.3472000000000002
38.744200000000006	0.0	[response]	4	verb	phrase	1	15	match	mieux	5	1	p	1.3472000000000002
39.79679999999999	0.0	+	5	noun	list	3	1	nomatch	parader	-1	1	y	1.6420000000000001
40.3468	0.2	qlm	5	noun	list	3	2	nomatch	parader	-1	1	y	1.6420000000000001
40.54679999999999	0.0	+	5	noun	list	3	3	nomatch	parader	-1	1	y	1.6420000000000001
40.94669999999999	0.2	cfwl	5	noun	list	3	4	nomatch	parader	-1	1	y	1.6420000000000001
41.14670000000001	0.0	+	5	noun	list	3	5	nomatch	parader	-1	1	y	1.6420000000000001
41.546700000000016	0.2	peut	5	noun	list	3	6	nomatch	parader	-1	1	y	1.6420000000000001
41.746700000000004	0.0	+	5	noun	list	3	7	nomatch	parader	-1	1	y	1.6420000000000001
42.14670000000001	0.2	clavier	5	noun	list	3	8	nomatch	parader	-1	1	y	1.6420000000000001
42.346599999999995	0.0	+	5	noun	list	3	9	nomatch	parader	-1	1	y	1.6420000000000001
42.7466	0.2	loin	5	noun	list	3	10	nomatch	parader	-1	1	y	1.6420000000000001
42.94659999999999	0.0	+	5	noun	list	3	11	nomatch	parader	-1	1	y	1.6420000000000001
43.346599999999995	0.0	+	5	noun	list	3	12	nomatch	parader	-1	1	y	1.6420000000000001
45.34639999999999	0.0	PARADER	5	noun	list	3	13	nomatch	parader	-1	1	y	1.6420000000000001
47.0463	0.0	+	5	noun	list	3	14	nomatch	parader	-1	1	y	1.6420000000000001
46.988500000000016	0.0	[response]	5	noun	list	3	15	nomatch	parader	-1	1	y	1.6420000000000001
47.746200000000016	0.0	+	6	noun	phrase	1	1	match	tablier	5	1	p	0.97265
48.2962	0.2	hgvj	6	noun	phrase	1	2	match	tablier	5	1	p	0.97265
48.496200000000016	0.0	+	6	noun	phrase	1	3	match	tablier	5	1	p	0.97265
48.89609999999999	0.2	bqsx	6	noun	phrase	1	4	match	tablier	5	1	p	0.97265
49.09610000000001	0.0	+	6	noun	phrase	1	5	match	tablier	5	1	p	0.97265
49.49610000000001	0.2	nlfk	6	noun	phrase	1	6	match	tablier	5	1	p	0.97265
49.6961	0.0	+	6	noun	phrase	1	7	match	tablier	5	1	p	0.97265
50.096000000000004	0.2	qgdkp	6	noun	phrase	1	8	match	tablier	5	1	p	0.97265
50.29599999999999	0.0	+	6	noun	phrase	1	9	match	tablier	5	1	p	0.97265
50.69659999999999	0.2	tablier	6	noun	phrase	1	10	match	tablier	5	1	p	0.97265
50.896000000000015	0.0	+	6	noun	phrase	1	11	match	tablier	5	1	p	0.97265
51.29599999999999	0.0	+	6	noun	phrase	1	12	match	tablier	5	1	p	0.97265
53.295800000000014	0.0	TABLIER	6	noun	phrase	1	13	match	tablier	5	1	p	0.97265
54.32900000000001	0.0	+	6	noun	phrase	1	14	match	tablier	5	1	p	0.97265
54.268400000000014	0.0	[response]	6	noun	phrase	1	15	match	tablier	5	1	p	0.97265
55.69560000000001	0.0	+	7	noun	list	3	1	match	clavier	5	0	y	0.79643
56.245599999999996	0.2	nxjtfrw	7	noun	list	3	2	match	clavier	5	0	y	0.79643
56.44560000000001	0.0	+	7	noun	list	3	3	match	clavier	5	0	y	0.79643
56.845500000000015	0.2	vzfj	7	noun	list	3	4	match	clavier	5	0	y	0.79643
57.045500000000004	0.0	+	7	noun	list	3	5	match	clavier	5	0	y	0.79643
57.44550000000001	0.2	leur	7	noun	list	3	6	match	clavier	5	0	y	0.79643
57.6455	0.0	+	7	noun	list	3	7	match	clavier	5	0	y	0.79643
58.0454	0.2	trop	7	noun	list	3	8	match	clavier	5	0	y	0.79643
58.24539999999999	0.0	+	7	noun	list	3	9	match	clavier	5	0	y	0.79643
58.645399999999995	0.2	clavier	7	noun	list	3	10	match	clavier	5	0	y	0.79643
58.84540000000001	0.0	+	7	noun	list	3	11	match	clavier	5	0	y	0.79643
59.245300000000015	0.0	+	7	noun	list	3	12	match	clavier	5	0	y	0.79643
61.24520000000001	0.0	CLAVIER	7	noun	list	3	13	match	clavier	5	0	y	0.79643
62.11179999999999	0.0	+	7	noun	list	3	14	match	clavier	5	0	y	0.79643
62.04159999999999	0.0	[response]	7	noun	list	3	15	match	clavier	5	0	y	0.79643
63.64500000000001	0.0	+	8	noun	phrase	3	1	match	grand	4	1	p	1.5358
64.195	0.2	pwfc	8	noun	phrase	3	2	match	grand	4	1	p	1.5358
64.3949	0.0	+	8	noun	phrase	3	3	match	grand	4	1	p	1.5358
64.79490000000001	0.2	qrgw	8	noun	phrase	3	4	match	grand	4	1	p	1.5358
64.9949	0.0	+	8	noun	phrase	3	5	match	grand	4	1	p	1.5358
65.3949	0.2	mon	8	noun	phrase	3	6	match	grand	4	1	p	1.5358
65.5949	0.0	+	8	noun	phrase	3	7	match	grand	4	1	p	1.5358
65.9948	0.2	grand	8	noun	phrase	3	8	match	grand	4	1	p	1.5358
66.19480000000001	0.0	+	8	noun	phrase	3	9	match	grand	4	1	p	1.5358
66.59479999999999	0.2	panier	8	noun	phrase	3	10	match	grand	4	1	p	1.5358
66.79480000000001	0.0	+	8	noun	phrase	3	11	match	grand	4	1	p	1.5358
67.19470000000001	0.0	+	8	noun	phrase	3	12	match	grand	4	1	p	1.5358
69.19460000000001	0.0	GRAND	8	noun	phrase	3	13	match	grand	4	1	p	1.5358
70.7945	0.0	+	8	noun	phrase	3	14	match	grand	4	1	p	1.5358
70.7304	0.0	[response]	8	noun	phrase	3	15	match	grand	4	1	p	1.5358
71.59440000000001	0.0	+	9	noun	list	4	1	nomatch	vert	-1	1	y	1.5561000000000003
72.14439999999999	0.2	qtsnxpk	9	noun	list	4	2	nomatch	vert	-1	1	y	1.5561000000000003
72.3443	0.0	+	9	noun	list	4	3	nomatch	vert	-1	1	y	1.5561000000000003
72.74430000000001	0.2	sous	9	noun	list	4	4	nomatch	vert	-1	1	y	1.5561000000000003
72.9443	0.0	+	9	noun	list	4	5	nomatch	vert	-1	1	y	1.5561000000000003
73.3443	0.2	va	9	noun	list	4	6	nomatch	vert	-1	1	y	1.5561000000000003
73.54419999999999	0.0	+	9	noun	list	4	7	nomatch	vert	-1	1	y	1.5561000000000003
73.9442	0.2	rocher	9	noun	list	4	8	nomatch	vert	-1	1	y	1.5561000000000003
74.14420000000001	0.0	+	9	noun	list	4	9	nomatch	vert	-1	1	y	1.5561000000000003
74.54419999999999	0.2	vite	9	noun	list	4	10	nomatch	vert	-1	1	y	1.5561000000000003
74.7441	0.0	+	9	noun	list	4	11	nomatch	vert	-1	1	y	1.5561000000000003
75.14410000000001	0.0	+	9	noun	list	4	12	nomatch	vert	-1	1	y	1.5561000000000003
77.144	0.0	VERT	9	noun	list	4	13	nomatch	vert	-1	1	y	1.5561000000000003
78.76050000000001	0.0	+	9	noun	list	4	14	nomatch	vert	-1	1	y	1.5561000000000003
78.70009999999999	0.0	[response]	9	noun	list	4	15	nomatch	vert	-1	1	y	1.5561000000000003
79.5438	0.0	+	10	noun	phrase	4	1	match	vers	2	1	p	1.3286
80.09370000000001	0.2	csx	10	noun	phrase	4	2	match	vers	2	1	p	1.3286
80.2937	0.0	+	10	noun	phrase	4	3	match	vers	2	1	p	1.3286
80.6937	0.2	vers	10	noun	phrase	4	4	match	vers	2	1	p	1.3286
80.8937	0.0	+	10	noun	phrase	4	5	match	vers	2	1	p	1.3286
81.2936	0.2	mon	10	noun	phrase	4	6	match	vers	2	1	p	1.3286
81.49360000000001	0.0	+	10	noun	phrase	4	7	match	vers	2	1	p	1.3286
81.89359999999999	0.2	beau	10	noun	phrase	4	8	match	vers	2	1	p	1.3286
82.09360000000001	0.0	+	10	noun	phrase	4	9	match	vers	2	1	p	1.3286
82.49360000000001	0.2	tablier	10	noun	phrase	4	10	match	vers	2	1	p	1.3286
82.6935	0.0	+	10	noun	phrase	4	11	match	vers	2	1	p	1.3286
83.0935	0.0	+	10	noun	phrase	4	12	match	vers	2	1	p	1.3286
85.0934	0.0	VERS	10	noun	phrase	4	13	match	vers	2	1	p	1.3286
86.47659999999999	0.0	+	10	noun	phrase	4	14	match	vers	2	1	p	1.3286
86.42190000000002	0.0	[response]	10	noun	phrase	4	15	match	vers	2	1	p	1.3286
95.4925	0.0	+	11	verb	list	1	1	match	galoper	5	1	p	1.1199
96.04249999999999	0.2	fnmrlkb	11	verb	list	1	2	match	galoper	5	1	p	1.1199
96.2425	0.0	+	11	verb	list	1	3	match	galoper	5	1	p	1.1199
96.64250000000001	0.2	qlk	11	verb	list	1	4	match	galoper	5	1	p	1.1199
96.8425	0.0	+	11	verb	list	1	5	match	galoper	5	1	p	1.1199
97.2424	0.2	tw	11	verb	list	1	6	match	galoper	5	1	p	1.1199
97.44239999999999	0.0	+	11	verb	list	1	7	match	galoper	5	1	p	1.1199
97.8424	0.2	svbjp	11	verb	list	1	8	match	galoper	5	1	p	1.1199
98.04240000000001	0.0	+	11	verb	list	1	9	match	galoper	5	1	p	1.1199
98.44229999999999	0.2	galoper	11	verb	list	1	10	match	galoper	5	1	p	1.1199
98.6423	0.0	+	11	verb	list	1	11	match	galoper	5	1	p	1.1199
99.04230000000001	0.0	+	11	verb	list	1	12	match	galoper	5	1	p	1.1199
101.0421	0.0	GALOPER	11	verb	list	1	13	match	galoper	5	1	p	1.1199
102.22540000000001	0.0	+	11	verb	list	1	14	match	galoper	5	1	p	1.1199
102.162	0.0	[response]	11	verb	list	1	15	match	galoper	5	1	p	1.1199
111.44130000000001	0.0	+	12	noun	list	2	1	nomatch	plus	-1	1	y	1.6627
111.9913	0.2	gtqcf	12	noun	list	2	2	nomatch	plus	-1	1	y	1.6627
112.19130000000001	0.0	+	12	noun	list	2	3	nomatch	plus	-1	1	y	1.6627
112.59120000000001	0.2	vzfj	12	noun	list	2	4	nomatch	plus	-1	1	y	1.6627
112.7912	0.0	+	12	noun	list	2	5	nomatch	plus	-1	1	y	1.6627
113.19120000000001	0.2	nlfk	12	noun	list	2	6	nomatch	plus	-1	1	y	1.6627
113.3912	0.0	+	12	noun	list	2	7	nomatch	plus	-1	1	y	1.6627
113.7911	0.2	beaucoup	12	noun	list	2	8	nomatch	plus	-1	1	y	1.6627
113.99109999999999	0.0	+	12	noun	list	2	9	nomatch	plus	-1	1	y	1.6627
114.3911	0.2	rocher	12	noun	list	2	10	nomatch	plus	-1	1	y	1.6627
114.59110000000001	0.0	+	12	noun	list	2	11	nomatch	plus	-1	1	y	1.6627
114.99109999999999	0.0	+	12	noun	list	2	12	nomatch	plus	-1	1	y	1.6627
116.99090000000001	0.0	PLUS	12	noun	list	2	13	nomatch	plus	-1	1	y	1.6627
118.72409999999999	0.0	+	12	noun	list	2	14	nomatch	plus	-1	1	y	1.6627
118.65360000000001	0.0	[response]	12	noun	list	2	15	nomatch	plus	-1	1	y	1.6627
119.39070000000001	0.0	+	13	noun	phrase	1	1	nomatch	panier	-1	1	y	1.0994
119.94069999999999	0.2	tgljvfp	13	noun	phrase	1	2	nomatch	panier	-1	1	y	1.0994
120.14070000000001	0.0	+	13	noun	phrase	1	3	nomatch	panier	-1	1	y	1.0994
120.54060000000001	0.2	mbnk	13	noun	phrase	1	4	nomatch	panier	-1	1	y	1.0994
120.7406	0.0	+	13	noun	phrase	1	5	nomatch	panier	-1	1	y	1.0994
121.1406	0.2	zfj	13	noun	phrase	1	6	nomatch	panier	-1	1	y	1.0994
121.3406	0.0	+	13	noun	phrase	1	7	nomatch	panier	-1	1	y	1.0994
121.7405	0.2	xstng	13	noun	phrase	1	8	nomatch	panier	-1	1	y	1.0994
121.94050000000001	0.0	+	13	noun	phrase	1	9	nomatch	panier	-1	1	y	1.0994
122.34049999999999	0.2	grenier	13	noun	phrase	1	10	nomatch	panier	-1	1	y	1.0994
122.54050000000001	0.0	+	13	noun	phrase	1	11	nomatch	panier	-1	1	y	1.0994
122.94040000000001	0.0	+	13	noun	phrase	1	12	nomatch	panier	-1	1	y	1.0994
124.94030000000001	0.0	PANIER	13	noun	phrase	1	13	nomatch	panier	-1	1	y	1.0994
126.1069	0.0	+	13	noun	phrase	1	14	nomatch	panier	-1	1	y	1.0994
126.03970000000001	0.0	[response]	13	noun	phrase	1	15	nomatch	panier	-1	1	y	1.0994
135.33950000000002	0.0	+	14	verb	list	3	1	match	rouge	5	1	p	1.2242000000000002
135.8894	0.2	hfjlgxd	14	verb	list	3	2	match	rouge	5	1	p	1.2242000000000002
136.0894	0.0	+	14	verb	list	3	3	match	rouge	5	1	p	1.2242000000000002
136.4894	0.2	ftb	14	verb	list	3	4	match	rouge	5	1	p	1.2242000000000002
136.6894	0.0	+	14	verb	list	3	5	match	rouge	5	1	p	1.2242000000000002
137.0894	0.2	mon	14	verb	list	3	6	match	rouge	5	1	p	1.2242000000000002
137.2893	0.0	+	14	verb	list	3	7	match	rouge	5	1	p	1.2242000000000002
137.6893	0.2	voyager	14	verb	list	3	8	match	rouge	5	1	p	1.2242000000000002
137.8893	0.0	+	14	verb	list	3	9	match	rouge	5	1	p	1.2242000000000002
138.2893	0.2	rouge	14	verb	list	3	10	match	rouge	5	1	p	1.2242000000000002
138.4892	0.0	+	14	verb	list	3	11	match	rouge	5	1	p	1.2242000000000002
138.8892	0.0	+	14	verb	list	3	12	match	rouge	5	1	p	1.2242000000000002
140.8891	0.0	ROUGE	14	verb	list	3	13	match	rouge	5	1	p	1.2242000000000002
142.1723	0.0	+	14	verb	list	3	14	match	rouge	5	1	p	1.2242000000000002
142.1133	0.0	[response]	14	verb	list	3	15	match	rouge	5	1	p	1.2242000000000002
143.2889	0.0	+	15	noun	phrase	2	1	match	petit	4	1	p	1.3592
143.8388	0.2	gkc	15	noun	phrase	2	2	match	petit	4	1	p	1.3592
144.0388	0.0	+	15	noun	phrase	2	3	match	petit	4	1	p	1.3592
144.43880000000001	0.2	jztp	15	noun	phrase	2	4	match	petit	4	1	p	1.3592
144.6388	0.0	+	15	noun	phrase	2	5	match	petit	4	1	p	1.3592
145.0387	0.2	stm	15	noun	phrase	2	6	match	petit	4	1	p	1.3592
145.2387	0.0	+	15	noun	phrase	2	7	match	petit	4	1	p	1.3592
145.6387	0.2	petit	15	noun	phrase	2	8	match	petit	4	1	p	1.3592
145.8387	0.0	+	15	noun	phrase	2	9	match	petit	4	1	p	1.3592
146.2387	0.2	cendrier	15	noun	phrase	2	10	match	petit	4	1	p	1.3592
146.4386	0.0	+	15	noun	phrase	2	11	match	petit	4	1	p	1.3592
146.8386	0.0	+	15	noun	phrase	2	12	match	petit	4	1	p	1.3592
148.8385	0.0	PETIT	15	noun	phrase	2	13	match	petit	4	1	p	1.3592
150.255	0.0	+	15	noun	phrase	2	14	match	petit	4	1	p	1.3592
150.1977	0.0	[response]	15	noun	phrase	2	15	match	petit	4	1	p	1.3592
159.23760000000001	0.0	+	16	noun	list	4	1	match	mieux	4	1	p	1.3102
159.7876	0.2	czplrd	16	noun	list	4	2	match	mieux	4	1	p	1.3102
159.98760000000001	0.0	+	16	noun	list	4	3	match	mieux	4	1	p	1.3102
160.3876	0.2	paul	16	noun	list	4	4	match	mieux	4	1	p	1.3102
160.5875	0.0	+	16	noun	list	4	5	match	mieux	4	1	p	1.3102
160.9875	0.2	leur	16	noun	list	4	6	match	mieux	4	1	p	1.3102
161.1875	0.0	+	16	noun	list	4	7	match	mieux	4	1	p	1.3102
161.5875	0.2	mieux	16	noun	list	4	8	match	mieux	4	1	p	1.3102
161.7875	0.0	+	16	noun	list	4	9	match	mieux	4	1	p	1.3102
162.1874	0.2	rocher	16	noun	list	4	10	match	mieux	4	1	p	1.3102
162.3874	0.0	+	16	noun	list	4	11	match	mieux	4	1	p	1.3102
162.7874	0.0	+	16	noun	list	4	12	match	mieux	4	1	p	1.3102
164.7872	0.0	MIEUX	16	noun	list	4	13	match	mieux	4	1	p	1.3102
166.15380000000002	0.0	+	16	noun	list	4	14	match	mieux	4	1	p	1.3102
166.09740000000002	0.0	[response]	16	noun	list	4	15	match	mieux	4	1	p	1.3102
167.18699999999998	0.0	+	17	noun	phrase	2	1	nomatch	nouveau	-1	1	y	2.6729
167.737	0.2	mbkw	17	noun	phrase	2	2	nomatch	nouveau	-1	1	y	2.6729
167.93699999999998	0.0	+	17	noun	phrase	2	3	nomatch	nouveau	-1	1	y	2.6729
168.33689999999999	0.2	qlk	17	noun	phrase	2	4	nomatch	nouveau	-1	1	y	2.6729
168.53689999999997	0.0	+	17	noun	phrase	2	5	nomatch	nouveau	-1	1	y	2.6729
168.9369	0.2	zfj	17	noun	phrase	2	6	nomatch	nouveau	-1	1	y	2.6729
169.1369	0.0	+	17	noun	phrase	2	7	nomatch	nouveau	-1	1	y	2.6729
169.53689999999997	0.2	cendrier	17	noun	phrase	2	8	nomatch	nouveau	-1	1	y	2.6729
169.7368	0.0	+	17	noun	phrase	2	9	nomatch	nouveau	-1	1	y	2.6729
170.13680000000002	0.2	vert	17	noun	phrase	2	10	nomatch	nouveau	-1	1	y	2.6729
170.3368	0.0	+	17	noun	phrase	2	11	nomatch	nouveau	-1	1	y	2.6729
170.7368	0.0	+	17	noun	phrase	2	12	nomatch	nouveau	-1	1	y	2.6729
172.73659999999998	0.0	NOUVEAU	17	noun	phrase	2	13	nomatch	nouveau	-1	1	y	2.6729
175.46970000000002	0.0	+	17	noun	phrase	2	14	nomatch	nouveau	-1	1	y	2.6729
175.4095	0.0	[response]	17	noun	phrase	2	15	nomatch	nouveau	-1	1	y	2.6729
183.1358	0.0	+	18	noun	list	4	1	match	jean	2	0	TIMEOUT	-1.0
183.6858	0.2	czxmgsk	18	noun	list	4	2	match	jean	2	0	TIMEOUT	-1.0
183.8858	0.0	+	18	noun	list	4	3	match	jean	2	0	TIMEOUT	-1.0
184.2857	0.2	jean	18	noun	list	4	4	match	jean	2	0	TIMEOUT	-1.0
184.48569999999998	0.0	+	18	noun	list	4	5	match	jean	2	0	TIMEOUT	-1.0
184.8857	0.2	leur	18	noun	list	4	6	match	jean	2	0	TIMEOUT	-1.0
185.0857	0.0	+	18	noun	list	4	7	match	jean	2	0	TIMEOUT	-1.0
185.4856	0.2	plus	18	noun	list	4	8	match	jean	2	0	TIMEOUT	-1.0
185.6856	0.0	+	18	noun	list	4	9	match	jean	2	0	TIMEOUT	-1.0
186.08560000000003	0.2	panier	18	noun	list	4	10	match	jean	2	0	TIMEOUT	-1.0
186.28560000000002	0.0	+	18	noun	list	4	11	match	jean	2	0	TIMEOUT	-1.0
186.68550000000002	0.0	+	18	noun	list	4	12	match	jean	2	0	TIMEOUT	-1.0
188.6854	0.0	JEAN	18	noun	list	4	13	match	jean	2	0	TIMEOUT	-1.0
191.10190000000003	0.0	+	19	noun	phrase	1	1	match	casier	5	1	p	1.0491
191.68519999999998	0.2	drmblq	19	noun	phrase	1	2	match	casier	5	1	p	1.0491
191.8851	0.0	+	19	noun	phrase	1	3	match	casier	5	1	p	1.0491
192.28510000000003	0.2	jcvb	19	noun	phrase	1	4	match	casier	5	1	p	1.0491
192.48510000000002	0.0	+	19	noun	phrase	1	5	match	casier	5	1	p	1.0491
192.8851	0.2	zfj	19	noun	phrase	1	6	match	casier	5	1	p	1.0491
193.085	0.0	+	19	noun	phrase	1	7	match	casier	5	1	p	1.0491
193.48499999999999	0.2	qrdt	19	noun	phrase	1	8	match	casier	5	1	p	1.0491
193.68499999999997	0.0	+	19	noun	phrase	1	9	match	casier	5	1	p	1.0491
194.085	0.2	casier	19	noun	phrase	1	10	match	casier	5	1	p	1.0491
194.285	0.0	+	19	noun	phrase	1	11	match	casier	5	1	p	1.0491
194.6849	0.0	+	19	noun	phrase	1	12	match	casier	5	1	p	1.0491
196.68480000000002	0.0	CASIER	19	noun	phrase	1	13	match	casier	5	1	p	1.0491
197.8013	0.0	+	19	noun	phrase	1	14	match	casier	5	1	p	1.0491
197.734	0.0	[response]	19	noun	phrase	1	15	match	casier	5	1	p	1.0491
199.10119999999998	0.0	+	20	noun	list	1	1	nomatch	tôt	-1	1	y	1.3915
199.6512	0.2	xnrmv	20	noun	list	1	2	nomatch	tôt	-1	1	y	1.3915
199.85119999999998	0.0	+	20	noun	list	1	3	nomatch	tôt	-1	1	y	1.3915
200.2512	0.2	jztp	20	noun	list	1	4	nomatch	tôt	-1	1	y	1.3915
200.45110000000003	0.0	+	20	noun	list	1	5	nomatch	tôt	-1	1	y	1.3915
200.8511	0.2	tw	20	noun	list	1	6	nomatch	tôt	-1	1	y	1.3915
201.0511	0.0	+	20	noun	list	1	7	nomatch	tôt	-1	1	y	1.3915
201.45110000000003	0.2	xqtrdhs	20	noun	list	1	8	nomatch	tôt	-1	1	y	1.3915
201.6511	0.0	+	20	noun	list	1	9	nomatch	tôt	-1	1	y	1.3915
202.05100000000002	0.2	loin	20	noun	list	1	10	nomatch	tôt	-1	1	y	1.3915
202.251	0.0	+	20	noun	list	1	11	nomatch	tôt	-1	1	y	1.3915
202.65099999999998	0.0	+	20	noun	list	1	12	nomatch	tôt	-1	1	y	1.3915
204.65079999999998	0.0	TÔT	20	noun	list	1	13	nomatch	tôt	-1	1	y	1.3915
206.1007	0.0	+	20	noun	list	1	14	nomatch	tôt	-1	1	y	1.3915
206.04240000000007	0.0	[response]	20	noun	list	1	15	nomatch	tôt	-1	1	y	1.3915
207.0506	0.0	+	21	noun	list	1	1	nomatch	mieux	-1	1	y	1.3443
207.60060000000001	0.2	vkqcd	21	noun	list	1	2	nomatch	mieux	-1	1	y	1.3443
207.8006	0.0	+	21	noun	list	1	3	nomatch	mieux	-1	1	y	1.3443
208.2005	0.2	qlk	21	noun	list	1	4	nomatch	mieux	-1	1	y	1.3443
208.4005	0.0	+	21	noun	list	1	5	nomatch	mieux	-1	1	y	1.3443
208.80050000000003	0.2	clzr	21	noun	list	1	6	nomatch	mieux	-1	1	y	1.3443
209.00050000000002	0.0	+	21	noun	list	1	7	nomatch	mieux	-1	1	y	1.3443
209.4005	0.2	tsrndmj	21	noun	list	1	8	nomatch	mieux	-1	1	y	1.3443
209.6004	0.0	+	21	noun	list	1	9	nomatch	mieux	-1	1	y	1.3443
210.00039999999998	0.2	vite	21	noun	list	1	10	nomatch	mieux	-1	1	y	1.3443
210.20040000000003	0.0	+	21	noun	list	1	11	nomatch	mieux	-1	1	y	1.3443
210.6004	0.0	+	21	noun	list	1	12	nomatch	mieux	-1	1	y	1.3443
212.6002	0.0	MIEUX	21	noun	list	1	13	nomatch	mieux	-1	1	y	1.3443
214.0001	0.0	+	21	noun	list	1	14	nomatch	mieux	-1	1	y	1.3443
213.94449999999998	0.0	[response]	21	noun	list	1	15	nomatch	mieux	-1	1	y	1.3443
215.00000000000003	0.0	+	22	verb	list	1	1	nomatch	vieux	-1	1	y	1.0841
215.54999999999998	0.2	tfmhpb	22	verb	list	1	2	nomatch	vieux	-1	1	y	1.0841
215.75000000000003	0.0	+	22	verb	list	1	3	nomatch	vieux	-1	1	y	1.0841
216.14989999999997	0.2	jztp	22	verb	list	1	4	nomatch	vieux	-1	1	y	1.0841
216.34990000000002	0.0	+	22	verb	list	1	5	nomatch	vieux	-1	1	y	1.0841
216.7499	0.2	tw	22	verb	list	1	6	nomatch	vieux	-1	1	y	1.0841
216.94989999999999	0.0	+	22	verb	list	1	7	nomatch	vieux	-1	1	y	1.0841
217.3498	0.2	jwxmfhp	22	verb	list	1	8	nomatch	vieux	-1	1	y	1.0841
217.54979999999998	0.0	+	22	verb	list	1	9	nomatch	vieux	-1	1	y	1.0841
217.9498	0.2	petit	22	verb	list	1	10	nomatch	vieux	-1	1	y	1.0841
218.1498	0.0	+	22	verb	list	1	11	nomatch	vieux	-1	1	y	1.0841
218.54979999999998	0.0	+	22	verb	list	1	12	nomatch	vieux	-1	1	y	1.0841
220.54960000000003	0.0	VIEUX	22	verb	list	1	13	nomatch	vieux	-1	1	y	1.0841
221.69950000000003	0.0	+	22	verb	list	1	14	nomatch	vieux	-1	1	y	1.0841
221.6337	0.0	[response]	22	verb	list	1	15	nomatch	vieux	-1	1	y	1.0841
230.94879999999998	0.0	+	23	noun	phrase	1	1	match	casier	5	1	p	1.0867
231.4988	0.2	qjv	23	noun	phrase	1	2	match	casier	5	1	p	1.0867
231.6987	0.0	+	23	noun	phrase	1	3	match	casier	5	1	p	1.0867
232.09869999999998	0.2	qlk	23	noun	phrase	1	4	match	casier	5	1	p	1.0867
232.29870000000003	0.0	+	23	noun	phrase	1	5	match	casier	5	1	p	1.0867
232.6987	0.2	stm	23	noun	phrase	1	6	match	casier	5	1	p	1.0867
232.89860000000002	0.0	+	23	noun	phrase	1	7	match	casier	5	1	p	1.0867
233.2986	0.2	qgdkp	23	noun	phrase	1	8	match	casier	5	1	p	1.0867
233.49859999999998	0.0	+	23	noun	phrase	1	9	match	casier	5	1	p	1.0867
233.89860000000002	0.2	casier	23	noun	phrase	1	10	match	casier	5	1	p	1.0867
234.0986	0.0	+	23	noun	phrase	1	11	match	casier	5	1	p	1.0867
234.4985	0.0	+	23	noun	phrase	1	12	match	casier	5	1	p	1.0867
236.49839999999998	0.0	CASIER	23	noun	phrase	1	13	match	casier	5	1	p	1.0867
237.64829999999998	0.0	+	23	noun	phrase	1	14	match	casier	5	1	p	1.0867
237.585	0.0	[response]	23	noun	phrase	1	15	match	casier	5	1	p	1.0867
238.8982	0.0	+	24	noun	phrase	1	1	match	blanc	5	1	p	0.96657
239.44809999999998	0.2	hmzqc	24	noun	phrase	1	2	match	blanc	5	1	p	0.96657
239.64810000000003	0.0	+	24	noun	phrase	1	3	match	blanc	5	1	p	0.96657
240.0481	0.2	jcvb	24	noun	phrase	1	4	match	blanc	5	1	p	0.96657
240.2481	0.0	+	24	noun	phrase	1	5	match	blanc	5	1	p	0.96657
240.64810000000003	0.2	nlfk	24	noun	phrase	1	6	match	blanc	5	1	p	0.96657
240.84799999999998	0.0	+	24	noun	phrase	1	7	match	blanc	5	1	p	0.96657
241.24800000000002	0.2	zcmdkht	24	noun	phrase	1	8	match	blanc	5	1	p	0.96657
241.448	0.0	+	24	noun	phrase	1	9	match	blanc	5	1	p	0.96657
241.84799999999998	0.2	blanc	24	noun	phrase	1	10	match	blanc	5	1	p	0.96657
242.0479	0.0	+	24	noun	phrase	1	11	match	blanc	5	1	p	0.96657
242.44789999999998	0.0	+	24	noun	phrase	1	12	match	blanc	5	1	p	0.96657
244.4478	0.0	BLANC	24	noun	phrase	1	13	match	blanc	5	1	p	0.96657
245.48100000000002	0.0	+	24	noun	phrase	1	14	match	blanc	5	1	p	0.96657
245.4143	0.0	[response]	24	noun	phrase	1	15	match	blanc	5	1	p	0.96657
246.84760000000003	0.0	+	25	noun	list	2	1	nomatch	mon	-1	1	y	1.1231
247.3975	0.2	vcgjlx	25	noun	list	2	2	nomatch	mon	-1	1	y	1.1231
247.5975	0.0	+	25	noun	list	2	3	nomatch	mon	-1	1	y	1.1231
247.99749999999997	0.2	qlk	25	noun	list	2	4	nomatch	mon	-1	1	y	1.1231
248.19750000000002	0.0	+	25	noun	list	2	5	nomatch	mon	-1	1	y	1.1231
248.59740000000002	0.2	kbcr	25	noun	list	2	6	nomatch	mon	-1	1	y	1.1231
248.7974	0.0	+	25	noun	list	2	7	nomatch	mon	-1	1	y	1.1231
249.1974	0.2	cendrier	25	noun	list	2	8	nomatch	mon	-1	1	y	1.1231
249.39739999999998	0.0	+	25	noun	list	2	9	nomatch	mon	-1	1	y	1.1231
249.7974	0.2	loin	25	noun	list	2	10	nomatch	mon	-1	1	y	1.1231
249.99730000000002	0.0	+	25	noun	list	2	11	nomatch	mon	-1	1	y	1.1231
250.3973	0.0	+	25	noun	list	2	12	nomatch	mon	-1	1	y	1.1231
252.3971	0.0	MON	25	noun	list	2	13	nomatch	mon	-1	1	y	1.1231
253.58040000000003	0.0	+	25	noun	list	2	14	nomatch	mon	-1	1	y	1.1231
253.52020000000002	0.0	[response]	25	noun	list	2	15	nomatch	mon	-1	1	y	1.1231
254.797	0.0	+	26	verb	phrase	3	1	match	danser	5	1	p	1.3282
255.34689999999998	0.2	xcl	26	verb	phrase	3	2	match	danser	5	1	p	1.3282
255.54690000000002	0.0	+	26	verb	phrase	3	3	match	danser	5	1	p	1.3282
255.9469	0.2	vzfj	26	verb	phrase	3	4	match	danser	5	1	p	1.3282
256.14689999999996	0.0	+	26	verb	phrase	3	5	match	danser	5	1	p	1.3282
256.54679999999996	0.2	peut	26	verb	phrase	3	6	match	danser	5	1	p	1.3282
256.7468	0.0	+	26	verb	phrase	3	7	match	danser	5	1	p	1.3282
257.1468	0.2	moins	26	verb	phrase	3	8	match	danser	5	1	p	1.3282
257.34680000000003	0.0	+	26	verb	phrase	3	9	match	danser	5	1	p	1.3282
257.74670000000003	0.2	danser	26	verb	phrase	3	10	match	danser	5	1	p	1.3282
257.94669999999996	0.0	+	26	verb	phrase	3	11	match	danser	5	1	p	1.3282
258.34670000000006	0.0	+	26	verb	phrase	3	12	match	danser	5	1	p	1.3282
260.3465	0.0	DANSER	26	verb	phrase	3	13	match	danser	5	1	p	1.3282
261.72979999999995	0.0	+	26	verb	phrase	3	14	match	danser	5	1	p	1.3282
261.67470000000003	0.0	[response]	26	verb	phrase	3	15	match	danser	5	1	p	1.3282
262.7463	0.0	+	27	noun	phrase	3	1	nomatch	petit	-1	1	y	1.2558
263.2963	0.2	wmzqp	27	noun	phrase	3	2	nomatch	petit	-1	1	y	1.2558
263.4963	0.0	+	27	noun	phrase	3	3	nomatch	petit	-1	1	y	1.2558
263.8963	0.2	qlk	27	noun	phrase	3	4	nomatch	petit	-1	1	y	1.2558
264.09619999999995	0.0	+	27	noun	phrase	3	5	nomatch	petit	-1	1	y	1.2558
264.49620000000004	0.2	son	27	noun	phrase	3	6	nomatch	petit	-1	1	y	1.2558
264.6962	0.0	+	27	noun	phrase	3	7	nomatch	petit	-1	1	y	1.2558
265.09619999999995	0.2	beau	27	noun	phrase	3	8	nomatch	petit	-1	1	y	1.2558
265.2962	0.0	+	27	noun	phrase	3	9	nomatch	petit	-1	1	y	1.2558
265.6961	0.2	clavier	27	noun	phrase	3	10	nomatch	petit	-1	1	y	1.2558
265.89610000000005	0.0	+	27	noun	phrase	3	11	nomatch	petit	-1	1	y	1.2558
266.2961	0.0	+	27	noun	phrase	3	12	nomatch	petit	-1	1	y	1.2558
268.29589999999996	0.0	PETIT	27	noun	phrase	3	13	nomatch	petit	-1	1	y	1.2558
269.61249999999995	0.0	+	27	noun	phrase	3	14	nomatch	petit	-1	1	y	1.2558
269.5517	0.0	[response]	27	noun	phrase	3	15	nomatch	petit	-1	1	y	1.2558
270.6957	0.0	+	28	noun	list	3	1	match	grenier	5	1	p	1.2219000000000002
271.24570000000006	0.2	sfgw	28	noun	list	3	2	match	grenier	5	1	p	1.2219000000000002
271.4457	0.0	+	28	noun	list	3	3	match	grenier	5	1	p	1.2219000000000002
271.8456	0.2	bjlw	28	noun	list	3	4	match	grenier	5	1	p	1.2219000000000002
272.04560000000004	0.0	+	28	noun	list	3	5	match	grenier	5	1	p	1.2219000000000002
272.4456	0.2	leur	28	noun	list	3	6	match	grenier	5	1	p	1.2219000000000002
272.64560000000006	0.0	+	28	noun	list	3	7	match	grenier	5	1	p	1.2219000000000002
273.04560000000004	0.2	moins	28	noun	list	3	8	match	grenier	5	1	p	1.2219000000000002
273.2455	0.0	+	28	noun	list	3	9	match	grenier	5	1	p	1.2219000000000002
273.64549999999997	0.2	grenier	28	noun	list	3	10	match	grenier	5	1	p	1.2219000000000002
273.8455	0.0	+	28	noun	list	3	11	match	grenier	5	1	p	1.2219000000000002
274.2455	0.0	+	28	noun	list	3	12	match	grenier	5	1	p	1.2219000000000002
276.24530000000004	0.0	GRENIER	28	noun	list	3	13	match	grenier	5	1	p	1.2219000000000002
277.5285	0.0	+	28	noun	list	3	14	match	grenier	5	1	p	1.2219000000000002
277.46720000000005	0.0	[response]	28	noun	list	3	15	match	grenier	5	1	p	1.2219000000000002
278.64509999999996	0.0	+	29	verb	phrase	1	1	nomatch	chasser	-1	1	y	0.8816
279.1951	0.2	ljpxq	29	verb	phrase	1	2	nomatch	chasser	-1	1	y	0.8816
279.39509999999996	0.0	+	29	verb	phrase	1	3	nomatch	chasser	-1	1	y	0.8816
279.79499999999996	0.2	lnjw	29	verb	phrase	1	4	nomatch	chasser	-1	1	y	0.8816
279.995	0.0	+	29	verb	phrase	1	5	nomatch	chasser	-1	1	y	0.8816
280.395	0.2	tw	29	verb	phrase	1	6	nomatch	chasser	-1	1	y	0.8816
280.595	0.0	+	29	verb	phrase	1	7	nomatch	chasser	-1	1	y	0.8816
280.99490000000003	0.2	wtbhj	29	verb	phrase	1	8	nomatch	chasser	-1	1	y	0.8816
281.19489999999996	0.0	+	29	verb	phrase	1	9	nomatch	chasser	-1	1	y	0.8816
281.59490000000005	0.2	jongler	29	verb	phrase	1	10	nomatch	chasser	-1	1	y	0.8816
281.7949	0.0	+	29	verb	phrase	1	11	nomatch	chasser	-1	1	y	0.8816
282.1948	0.0	+	29	verb	phrase	1	12	nomatch	chasser	-1	1	y	0.8816
284.1947	0.0	CHASSER	29	verb	phrase	1	13	nomatch	chasser	-1	1	y	0.8816
285.14459999999997	0.0	+	29	verb	phrase	1	14	nomatch	chasser	-1	1	y	0.8816
285.07630000000006	0.0	[response]	29	verb	phrase	1	15	nomatch	chasser	-1	1	y	0.8816
302.5933	0.0	+	30	noun	phrase	1	1	match	rouge	5	1	p	0.82416
303.1432	0.2	dsgxp	30	noun	phrase	1	2	match	rouge	5	1	p	0.82416
303.3432	0.0	+	30	noun	phrase	1	3	match	rouge	5	1	p	0.82416
303.7432	0.2	qlk	30	noun	phrase	1	4	match	rouge	5	1	p	0.82416
303.94320000000005	0.0	+	30	noun	phrase	1	5	match	rouge	5	1	p	0.82416
304.34310000000005	0.2	stm	30	noun	phrase	1	6	match	rouge	5	1	p	0.82416
304.5431	0.0	+	30	noun	phrase	1	7	match	rouge	5	1	p	0.82416
304.94309999999996	0.2	mkxrfgz	30	noun	phrase	1	8	match	rouge	5	1	p	0.82416
305.1431	0.0	+	30	noun	phrase	1	9	match	rouge	5	1	p	0.82416
305.543	0.2	rouge	30	noun	phrase	1	10	match	rouge	5	1	p	0.82416
305.74300000000005	0.0	+	30	noun	phrase	1	11	match	rouge	5	1	p	0.82416
306.14300000000003	0.0	+	30	noun	phrase	1	12	match	rouge	5	1	p	0.82416
308.14279999999997	0.0	ROUGE	30	noun	phrase	1	13	match	rouge	5	1	p	0.82416
309.02610000000004	0.0	+	30	noun	phrase	1	14	match	rouge	5	1	p	0.82416
308.967	0.0	[response]	30	noun	phrase	1	15	match	rouge	5	1	p	0.82416
310.54269999999997	0.0	+	31	noun	phrase	4	1	match	pour	2	1	p	1.3495
311.09259999999995	0.2	mcrzghd	31	noun	phrase	4	2	match	pour	2	1	p	1.3495
311.2926	0.0	+	31	noun	phrase	4	3	match	pour	2	1	p	1.3495
311.69259999999997	0.2	pour	31	noun	phrase	4	4	match	pour	2	1	p	1.3495
311.8926	0.0	+	31	noun	phrase	4	5	match	pour	2	1	p	1.3495
312.2925	0.2	leur	31	noun	phrase	4	6	match	pour	2	1	p	1.3495
312.49249999999995	0.0	+	31	noun	phrase	4	7	match	pour	2	1	p	1.3495
312.89250000000004	0.2	cendrier	31	noun	phrase	4	8	match	pour	2	1	p	1.3495
313.0925	0.0	+	31	noun	phrase	4	9	match	pour	2	1	p	1.3495
313.4924	0.2	noir	31	noun	phrase	4	10	match	pour	2	1	p	1.3495
313.6924	0.0	+	31	noun	phrase	4	11	match	pour	2	1	p	1.3495
314.0924	0.0	+	31	noun	phrase	4	12	match	pour	2	1	p	1.3495
316.09220000000005	0.0	POUR	31	noun	phrase	4	13	match	pour	2	1	p	1.3495
317.50879999999995	0.0	+	31	noun	phrase	4	14	match	pour	2	1	p	1.3495
317.4417000000001	0.0	[response]	31	noun	phrase	4	15	match	pour	2	1	p	1.3495
318.49199999999996	0.0	+	32	verb	phrase	1	1	match	ainsi	5	1	p	1.2494
319.04200000000003	0.2	brsdph	32	verb	phrase	1	2	match	ainsi	5	1	p	1.2494
319.24199999999996	0.0	+	32	verb	phrase	1	3	match	ainsi	5	1	p	1.2494
319.64200000000005	0.2	bjlw	32	verb	phrase	1	4	match	ainsi	5	1	p	1.2494
319.8419	0.0	+	32	verb	phrase	1	5	match	ainsi	5	1	p	1.2494
320.2419	0.2	clzr	32	verb	phrase	1	6	match	ainsi	5	1	p	1.2494
320.44190000000003	0.0	+	32	verb	phrase	1	7	match	ainsi	5	1	p	1.2494
320.8419	0.2	jfskqmr	32	verb	phrase	1	8	match	ainsi	5	1	p	1.2494
321.04190000000006	0.0	+	32	verb	phrase	1	9	match	ainsi	5	1	p	1.2494
321.44180000000006	0.2	ainsi	32	verb	phrase	1	10	match	ainsi	5	1	p	1.2494
321.6418	0.0	+	32	verb	phrase	1	11	match	ainsi	5	1	p	1.2494
322.04179999999997	0.0	+	32	verb	phrase	1	12	match	ainsi	5	1	p	1.2494
324.0416	0.0	AINSI	32	verb	phrase	1	13	match	ainsi	5	1	p	1.2494
325.3582	0.0	+	32	verb	phrase	1	14	match	ainsi	5	1	p	1.2494
325.29100000000005	0.0	[response]	32	verb	phrase	1	15	match	ainsi	5	1	p	1.2494
326.44140000000004	0.0	+	33	noun	list	4	1	match	cendrier	5	1	p	0.78588
326.9914	0.2	dtjgr	33	noun	list	4	2	match	cendrier	5	1	p	0.78588
327.19140000000004	0.0	+	33	noun	list	4	3	match	cendrier	5	1	p	0.78588
327.5914	0.2	jade	33	noun	list	4	4	match	cendrier	5	1	p	0.78588
327.7913	0.0	+	33	noun	list	4	5	match	cendrier	5	1	p	0.78588
328.19129999999996	0.2	son	33	noun	list	4	6	match	cendrier	5	1	p	0.78588
328.3913	0.0	+	33	noun	list	4	7	match	cendrier	5	1	p	0.78588
328.7913	0.2	beaucoup	33	noun	list	4	8	match	cendrier	5	1	p	0.78588
328.99120000000005	0.0	+	33	noun	list	4	9	match	cendrier	5	1	p	0.78588
329.3912	0.2	cendrier	33	noun	list	4	10	match	cendrier	5	1	p	0.78588
329.59119999999996	0.0	+	33	noun	list	4	11	match	cendrier	5	1	p	0.78588
329.99120000000005	0.0	+	33	noun	list	4	12	match	cendrier	5	1	p	0.78588
331.991	0.0	CENDRIER	33	noun	list	4	13	match	cendrier	5	1	p	0.78588
332.84090000000003	0.0	+	33	noun	list	4	14	match	cendrier	5	1	p	0.78588
332.77689999999996	0.0	[response]	33	noun	list	4	15	match	cendrier	5	1	p	0.78588
334.3908	0.0	+	34	verb	phrase	1	1	match	chasser	5	1	p	1.093
334.94079999999997	0.2	nsxp	34	verb	phrase	1	2	match	chasser	5	1	p	1.093
335.1408	0.0	+	34	verb	phrase	1	3	match	chasser	5	1	p	1.093
335.5407	0.2	vzfj	34	verb	phrase	1	4	match	chasser	5	1	p	1.093
335.74069999999995	0.0	+	34	verb	phrase	1	5	match	chasser	5	1	p	1.093
336.14070000000004	0.2	kbcr	34	verb	phrase	1	6	match	chasser	5	1	p	1.093
336.34069999999997	0.0	+	34	verb	phrase	1	7	match	chasser	5	1	p	1.093
336.7406	0.2	xnkl	34	verb	phrase	1	8	match	chasser	5	1	p	1.093
336.9406	0.0	+	34	verb	phrase	1	9	match	chasser	5	1	p	1.093
337.3406	0.2	chasser	34	verb	phrase	1	10	match	chasser	5	1	p	1.093
337.54060000000004	0.0	+	34	verb	phrase	1	11	match	chasser	5	1	p	1.093
337.9406	0.0	+	34	verb	phrase	1	12	match	chasser	5	1	p	1.093
339.94039999999995	0.0	CHASSER	34	verb	phrase	1	13	match	chasser	5	1	p	1.093
341.09029999999996	0.0	+	34	verb	phrase	1	14	match	chasser	5	1	p	1.093
341.03340000000003	0.0	[response]	34	verb	phrase	1	15	match	chasser	5	1	p	1.093
342.3402	0.0	+	35	noun	phrase	3	1	match	clavier	4	1	p	0.95346
342.89020000000005	0.2	kfmv	35	noun	phrase	3	2	match	clavier	4	1	p	0.95346
343.0902	0.0	+	35	noun	phrase	3	3	match	clavier	4	1	p	0.95346
343.4901	0.2	jcvb	35	noun	phrase	3	4	match	clavier	4	1	p	0.95346
343.69010000000003	0.0	+	35	noun	phrase	3	5	match	clavier	4	1	p	0.95346
344.0901	0.2	leur	35	noun	phrase	3	6	match	clavier	4	1	p	0.95346
344.29010000000005	0.0	+	35	noun	phrase	3	7	match	clavier	4	1	p	0.95346
344.69000000000005	0.2	clavier	35	noun	phrase	3	8	match	clavier	4	1	p	0.95346
344.89	0.0	+	35	noun	phrase	3	9	match	clavier	4	1	p	0.95346
345.28999999999996	0.2	noir	35	noun	phrase	3	10	match	clavier	4	1	p	0.95346
345.49	0.0	+	35	noun	phrase	3	11	match	clavier	4	1	p	0.95346
345.8899	0.0	+	35	noun	phrase	3	12	match	clavier	4	1	p	0.95346
347.88980000000004	0.0	CLAVIER	35	noun	phrase	3	13	match	clavier	4	1	p	0.95346
348.90639999999996	0.0	+	35	noun	phrase	3	14	match	clavier	4	1	p	0.95346
348.8432	0.0	[response]	35	noun	phrase	3	15	match	clavier	4	1	p	0.95346
350.28959999999995	0.0	+	36	noun	phrase	4	1	nomatch	parader	-1	1	y	1.2544
350.8396	0.2	pwfvsl	36	noun	phrase	4	2	nomatch	parader	-1	1	y	1.2544
351.0395	0.0	+	36	noun	phrase	4	3	nomatch	parader	-1	1	y	1.2544
351.43949999999995	0.2	sans	36	noun	phrase	4	4	nomatch	parader	-1	1	y	1.2544
351.6395	0.0	+	36	noun	phrase	4	5	nomatch	parader	-1	1	y	1.2544
352.0395	0.2	mon	36	noun	phrase	4	6	nomatch	parader	-1	1	y	1.2544
352.2395	0.0	+	36	noun	phrase	4	7	nomatch	parader	-1	1	y	1.2544
352.6394	0.2	nouveau	36	noun	phrase	4	8	nomatch	parader	-1	1	y	1.2544
352.83939999999996	0.0	+	36	noun	phrase	4	9	nomatch	parader	-1	1	y	1.2544
353.23940000000005	0.2	grenier	36	noun	phrase	4	10	nomatch	parader	-1	1	y	1.2544
353.4394	0.0	+	36	noun	phrase	4	11	nomatch	parader	-1	1	y	1.2544
353.8393	0.0	+	36	noun	phrase	4	12	nomatch	parader	-1	1	y	1.2544
355.8392	0.0	PARADER	36	noun	phrase	4	13	nomatch	parader	-1	1	y	1.2544
357.1557	0.0	+	36	noun	phrase	4	14	nomatch	parader	-1	1	y	1.2544
357.09349999999995	0.0	[response]	36	noun	phrase	4	15	nomatch	parader	-1	1	y	1.2544
358.23900000000003	0.0	+	37	noun	list	1	1	match	clavier	5	1	p	0.93041
358.789	0.2	zkcbh	37	noun	list	1	2	match	clavier	5	1	p	0.93041
358.98890000000006	0.0	+	37	noun	list	1	3	match	clavier	5	1	p	0.93041
359.38890000000004	0.2	vzfj	37	noun	list	1	4	match	clavier	5	1	p	0.93041
359.58889999999997	0.0	+	37	noun	list	1	5	match	clavier	5	1	p	0.93041
359.98890000000006	0.2	zfj	37	noun	list	1	6	match	clavier	5	1	p	0.93041
360.1888	0.0	+	37	noun	list	1	7	match	clavier	5	1	p	0.93041
360.5888	0.2	bhzcqjpv	37	noun	list	1	8	match	clavier	5	1	p	0.93041
360.78880000000004	0.0	+	37	noun	list	1	9	match	clavier	5	1	p	0.93041
361.1888	0.2	clavier	37	noun	list	1	10	match	clavier	5	1	p	0.93041
361.3887	0.0	+	37	noun	list	1	11	match	clavier	5	1	p	0.93041
361.78869999999995	0.0	+	37	noun	list	1	12	match	clavier	5	1	p	0.93041
363.7886	0.0	CLAVIER	37	noun	list	1	13	match	clavier	5	1	p	0.93041
364.7885	0.0	+	37	noun	list	1	14	match	clavier	5	1	p	0.93041
364.71900000000005	0.0	[response]	37	noun	list	1	15	match	clavier	5	1	p	0.93041
366.1884	0.0	+	38	verb	phrase	3	1	nomatch	blanc	-1	1	y	0.9491800000000001
366.7383	0.2	zrmxnj	38	verb	phrase	3	2	nomatch	blanc	-1	1	y	0.9491800000000001
366.9383	0.0	+	38	verb	phrase	3	3	nomatch	blanc	-1	1	y	0.9491800000000001
367.3383	0.2	lnjw	38	verb	phrase	3	4	nomatch	blanc	-1	1	y	0.9491800000000001
367.53830000000005	0.0	+	38	verb	phrase	3	5	nomatch	blanc	-1	1	y	0.9491800000000001
367.93820000000005	0.2	doit	38	verb	phrase	3	6	nomatch	blanc	-1	1	y	0.9491800000000001
368.1382	0.0	+	38	verb	phrase	3	7	nomatch	blanc	-1	1	y	0.9491800000000001
368.53819999999996	0.2	danser	38	verb	phrase	3	8	nomatch	blanc	-1	1	y	0.9491800000000001
368.7382	0.0	+	38	verb	phrase	3	9	nomatch	blanc	-1	1	y	0.9491800000000001
369.1382	0.2	loin	38	verb	phrase	3	10	nomatch	blanc	-1	1	y	0.9491800000000001
369.33810000000005	0.0	+	38	verb	phrase	3	11	nomatch	blanc	-1	1	y	0.9491800000000001
369.73810000000003	0.0	+	38	verb	phrase	3	12	nomatch	blanc	-1	1	y	0.9491800000000001
371.73800000000006	0.0	BLANC	38	verb	phrase	3	13	nomatch	blanc	-1	1	y	0.9491800000000001
372.7545	0.0	+	38	verb	phrase	3	14	nomatch	blanc	-1	1	y	0.9491800000000001
372.6871	0.0	[response]	38	verb	phrase	3	15	nomatch	blanc	-1	1	y	0.9491800000000001
390.13649999999996	0.0	+	39	verb	phrase	3	1	nomatch	jean	-1	1	y	1.2227
390.6865	0.2	nbrdp	39	verb	phrase	3	2	nomatch	jean	-1	1	y	1.2227
390.88649999999996	0.0	+	39	verb	phrase	3	3	nomatch	jean	-1	1	y	1.2227
391.28639999999996	0.2	bjlw	39	verb	phrase	3	4	nomatch	jean	-1	1	y	1.2227
391.4864	0.0	+	39	verb	phrase	3	5	nomatch	jean	-1	1	y	1.2227
391.8864	0.2	peut	39	verb	phrase	3	6	nomatch	jean	-1	1	y	1.2227
392.0864	0.0	+	39	verb	phrase	3	7	nomatch	jean	-1	1	y	1.2227
392.4864	0.2	trop	39	verb	phrase	3	8	nomatch	jean	-1	1	y	1.2227
392.68629999999996	0.0	+	39	verb	phrase	3	9	nomatch	jean	-1	1	y	1.2227
393.08630000000005	0.2	galoper	39	verb	phrase	3	10	nomatch	jean	-1	1	y	1.2227
393.2863	0.0	+	39	verb	phrase	3	11	nomatch	jean	-1	1	y	1.2227
393.68629999999996	0.0	+	39	verb	phrase	3	12	nomatch	jean	-1	1	y	1.2227
395.6861	0.0	JEAN	39	verb	phrase	3	13	nomatch	jean	-1	1	y	1.2227
396.9693	0.0	+	39	verb	phrase	3	14	nomatch	jean	-1	1	y	1.2227
396.90880000000004	0.0	[response]	39	verb	phrase	3	15	nomatch	jean	-1	1	y	1.2227
398.08590000000004	0.0	+	40	noun	list	2	1	nomatch	panier	-1	1	y	1.3953
398.6359	0.2	kcsfd	40	noun	list	2	2	nomatch	panier	-1	1	y	1.3953
398.83590000000004	0.0	+	40	noun	list	2	3	nomatch	panier	-1	1	y	1.3953
399.23580000000004	0.2	jcvb	40	noun	list	2	4	nomatch	panier	-1	1	y	1.3953
399.4358	0.0	+	40	noun	list	2	5	nomatch	panier	-1	1	y	1.3953
399.83579999999995	0.2	kbcr	40	noun	list	2	6	nomatch	panier	-1	1	y	1.3953
400.0358	0.0	+	40	noun	list	2	7	nomatch	panier	-1	1	y	1.3953
400.4357	0.2	grenier	40	noun	list	2	8	nomatch	panier	-1	1	y	1.3953
400.63570000000004	0.0	+	40	noun	list	2	9	nomatch	panier	-1	1	y	1.3953
401.0357	0.2	tôt	40	noun	list	2	10	nomatch	panier	-1	1	y	1.3953
401.23569999999995	0.0	+	40	noun	list	2	11	nomatch	panier	-1	1	y	1.3953
401.63559999999995	0.0	+	40	noun	list	2	12	nomatch	panier	-1	1	y	1.3953
403.6355	0.0	PANIER	40	noun	list	2	13	nomatch	panier	-1	1	y	1.3953
405.08540000000005	0.0	+	40	noun	list	2	14	nomatch	panier	-1	1	y	1.3953
405.0308	0.0	[response]	40	noun	list	2	15	nomatch	panier	-1	1	y	1.3953
406.0353	0.0	+	41	verb	phrase	1	1	nomatch	nouveau	-1	1	y	1.8881
406.58529999999996	0.2	zcjtnx	41	verb	phrase	1	2	nomatch	nouveau	-1	1	y	1.8881
406.78520000000003	0.0	+	41	verb	phrase	1	3	nomatch	nouveau	-1	1	y	1.8881
407.1852	0.2	rpcx	41	verb	phrase	1	4	nomatch	nouveau	-1	1	y	1.8881
407.38520000000005	0.0	+	41	verb	phrase	1	5	nomatch	nouveau	-1	1	y	1.8881
407.78520000000003	0.2	tw	41	verb	phrase	1	6	nomatch	nouveau	-1	1	y	1.8881
407.98519999999996	0.0	+	41	verb	phrase	1	7	nomatch	nouveau	-1	1	y	1.8881
408.38509999999997	0.2	hwfnd	41	verb	phrase	1	8	nomatch	nouveau	-1	1	y	1.8881
408.5851	0.0	+	41	verb	phrase	1	9	nomatch	nouveau	-1	1	y	1.8881
408.9851	0.2	plonger	41	verb	phrase	1	10	nomatch	nouveau	-1	1	y	1.8881
409.18510000000003	0.0	+	41	verb	phrase	1	11	nomatch	nouveau	-1	1	y	1.8881
409.58500000000004	0.0	+	41	verb	phrase	1	12	nomatch	nouveau	-1	1	y	1.8881
411.58489999999995	0.0	NOUVEAU	41	verb	phrase	1	13	nomatch	nouveau	-1	1	y	1.8881
413.53470000000004	0.0	+	41	verb	phrase	1	14	nomatch	nouveau	-1	1	y	1.8881
413.47299999999996	0.0	[response]	41	verb	phrase	1	15	nomatch	nouveau	-1	1	y	1.8881
422.00069999999994	0.0	+	42	verb	list	3	1	match	petit	4	1	p	1.1298
422.5507	0.2	nvsd	42	verb	list	3	2	match	petit	4	1	p	1.1298
422.75069999999994	0.0	+	42	verb	list	3	3	match	petit	4	1	p	1.1298
423.15070000000003	0.2	qrgw	42	verb	list	3	4	match	petit	4	1	p	1.1298
423.3506	0.0	+	42	verb	list	3	5	match	petit	4	1	p	1.1298
423.75059999999996	0.2	va	42	verb	list	3	6	match	petit	4	1	p	1.1298
423.9506	0.0	+	42	verb	list	3	7	match	petit	4	1	p	1.1298
424.3506	0.2	petit	42	verb	list	3	8	match	petit	4	1	p	1.1298
424.55049999999994	0.0	+	42	verb	list	3	9	match	petit	4	1	p	1.1298
424.9504999999999	0.2	chasser	42	verb	list	3	10	match	petit	4	1	p	1.1298
425.15049999999997	0.0	+	42	verb	list	3	11	match	petit	4	1	p	1.1298
425.55049999999994	0.0	+	42	verb	list	3	12	match	petit	4	1	p	1.1298
427.5503	0.0	PETIT	42	verb	list	3	13	match	petit	4	1	p	1.1298
428.75019999999995	0.0	+	42	verb	list	3	14	match	petit	4	1	p	1.1298
428.6800999999999	0.0	[response]	42	verb	list	3	15	match	petit	4	1	p	1.1298
437.94949999999994	0.0	+	43	noun	phrase	4	1	nomatch	cendrier	-1	1	y	1.1460000000000001
438.4995	0.2	htpx	43	noun	phrase	4	2	nomatch	cendrier	-1	1	y	1.1460000000000001
438.69949999999994	0.0	+	43	noun	phrase	4	3	nomatch	cendrier	-1	1	y	1.1460000000000001
439.09939999999995	0.2	vers	43	noun	phrase	4	4	nomatch	cendrier	-1	1	y	1.1460000000000001
439.2994	0.0	+	43	noun	phrase	4	5	nomatch	cendrier	-1	1	y	1.1460000000000001
439.69939999999997	0.2	leur	43	noun	phrase	4	6	nomatch	cendrier	-1	1	y	1.1460000000000001
439.8994	0.0	+	43	noun	phrase	4	7	nomatch	cendrier	-1	1	y	1.1460000000000001
440.2993	0.2	panier	43	noun	phrase	4	8	nomatch	cendrier	-1	1	y	1.1460000000000001
440.49929999999995	0.0	+	43	noun	phrase	4	9	nomatch	cendrier	-1	1	y	1.1460000000000001
440.8992999999999	0.2	rouge	43	noun	phrase	4	10	nomatch	cendrier	-1	1	y	1.1460000000000001
441.09929999999997	0.0	+	43	noun	phrase	4	11	nomatch	cendrier	-1	1	y	1.1460000000000001
441.4992	0.0	+	43	noun	phrase	4	12	nomatch	cendrier	-1	1	y	1.1460000000000001
443.4991	0.0	CENDRIER	43	noun	phrase	4	13	nomatch	cendrier	-1	1	y	1.1460000000000001
444.71569999999997	0.0	+	43	noun	phrase	4	14	nomatch	cendrier	-1	1	y	1.1460000000000001
444.64509999999996	0.0	[response]	43	noun	phrase	4	15	nomatch	cendrier	-1	1	y	1.1460000000000001
453.89829999999995	0.0	+	44	noun	list	1	1	match	clavier	5	1	p	1.9112
454.44819999999993	0.2	pkqtdj	44	noun	list	1	2	match	clavier	5	1	p	1.9112
454.6482	0.0	+	44	noun	list	1	3	match	clavier	5	1	p	1.9112
455.04819999999995	0.2	qlk	44	noun	list	1	4	match	clavier	5	1	p	1.9112
455.2482	0.0	+	44	noun	list	1	5	match	clavier	5	1	p	1.9112
455.6482	0.2	kbcr	44	noun	list	1	6	match	clavier	5	1	p	1.9112
455.84809999999993	0.0	+	44	noun	list	1	7	match	clavier	5	1	p	1.9112
456.2481	0.2	lgwk	44	noun	list	1	8	match	clavier	5	1	p	1.9112
456.44809999999995	0.0	+	44	noun	list	1	9	match	clavier	5	1	p	1.9112
456.84809999999993	0.2	clavier	44	noun	list	1	10	match	clavier	5	1	p	1.9112
457.048	0.0	+	44	noun	list	1	11	match	clavier	5	1	p	1.9112
457.448	0.0	+	44	noun	list	1	12	match	clavier	5	1	p	1.9112
459.4479	0.0	CLAVIER	44	noun	list	1	13	match	clavier	5	1	p	1.9112
461.4144	0.0	+	44	noun	list	1	14	match	clavier	5	1	p	1.9112
461.3591	0.0	[response]	44	noun	list	1	15	match	clavier	5	1	p	1.9112
461.8476999999999	0.0	+	45	verb	phrase	2	1	match	galoper	5	1	p	1.1537000000000002
462.3976	0.2	njbmdq	45	verb	phrase	2	2	match	galoper	5	1	p	1.1537000000000002
462.59759999999994	0.0	+	45	verb	phrase	2	3	match	galoper	5	1	p	1.1537000000000002
462.9975999999999	0.2	bjlw	45	verb	phrase	2	4	match	galoper	5	1	p	1.1537000000000002
463.19759999999997	0.0	+	45	verb	phrase	2	5	match	galoper	5	1	p	1.1537000000000002
463.59749999999997	0.2	clzr	45	verb	phrase	2	6	match	galoper	5	1	p	1.1537000000000002
463.7975	0.0	+	45	verb	phrase	2	7	match	galoper	5	1	p	1.1537000000000002
464.1975	0.2	moins	45	verb	phrase	2	8	match	galoper	5	1	p	1.1537000000000002
464.3974999999999	0.0	+	45	verb	phrase	2	9	match	galoper	5	1	p	1.1537000000000002
464.7973999999999	0.2	galoper	45	verb	phrase	2	10	match	galoper	5	1	p	1.1537000000000002
464.99739999999997	0.0	+	45	verb	phrase	2	11	match	galoper	5	1	p	1.1537000000000002
465.39739999999995	0.0	+	45	verb	phrase	2	12	match	galoper	5	1	p	1.1537000000000002
467.3972	0.0	GALOPER	45	verb	phrase	2	13	match	galoper	5	1	p	1.1537000000000002
468.61379999999997	0.0	+	45	verb	phrase	2	14	match	galoper	5	1	p	1.1537000000000002
468.55089999999996	0.0	[response]	45	verb	phrase	2	15	match	galoper	5	1	p	1.1537000000000002
469.7971	0.0	+	46	verb	list	4	1	match	jean	2	1	p	0.8904400000000001
470.347	0.2	srkn	46	verb	list	4	2	match	jean	2	1	p	0.8904400000000001
470.547	0.0	+	46	verb	list	4	3	match	jean	2	1	p	0.8904400000000001
470.947	0.2	jean	46	verb	list	4	4	match	jean	2	1	p	0.8904400000000001
471.14699999999993	0.0	+	46	verb	list	4	5	match	jean	2	1	p	0.8904400000000001
471.54689999999994	0.2	leur	46	verb	list	4	6	match	jean	2	1	p	0.8904400000000001
471.7469	0.0	+	46	verb	list	4	7	match	jean	2	1	p	0.8904400000000001
472.14689999999996	0.2	chasser	46	verb	list	4	8	match	jean	2	1	p	0.8904400000000001
472.3469	0.0	+	46	verb	list	4	9	match	jean	2	1	p	0.8904400000000001
472.7468	0.2	noir	46	verb	list	4	10	match	jean	2	1	p	0.8904400000000001
472.94679999999994	0.0	+	46	verb	list	4	11	match	jean	2	1	p	0.8904400000000001
473.34680000000003	0.0	+	46	verb	list	4	12	match	jean	2	1	p	0.8904400000000001
475.34659999999997	0.0	JEAN	46	verb	list	4	13	match	jean	2	1	p	0.8904400000000001
476.2966	0.0	+	46	verb	list	4	14	match	jean	2	1	p	0.8904400000000001
476.23709999999994	0.0	[response]	46	verb	list	4	15	match	jean	2	1	p	0.8904400000000001
485.7457999999999	0.0	+	47	verb	phrase	3	1	match	doit	3	1	p	1.0335
486.2958	0.2	nrpmvx	47	verb	phrase	3	2	match	doit	3	1	p	1.0335
486.4957999999999	0.0	+	47	verb	phrase	3	3	match	doit	3	1	p	1.0335
486.8956999999999	0.2	vzfj	47	verb	phrase	3	4	match	doit	3	1	p	1.0335
487.09569999999997	0.0	+	47	verb	phrase	3	5	match	doit	3	1	p	1.0335
487.49569999999994	0.2	doit	47	verb	phrase	3	6	match	doit	3	1	p	1.0335
487.6957	0.0	+	47	verb	phrase	3	7	match	doit	3	1	p	1.0335
488.09569999999997	0.2	parader	47	verb	phrase	3	8	match	doit	3	1	p	1.0335
488.2955999999999	0.0	+	47	verb	phrase	3	9	match	doit	3	1	p	1.0335
488.6956	0.2	loin	47	verb	phrase	3	10	match	doit	3	1	p	1.0335
488.89559999999994	0.0	+	47	verb	phrase	3	11	match	doit	3	1	p	1.0335
489.2955999999999	0.0	+	47	verb	phrase	3	12	match	doit	3	1	p	1.0335
491.2954	0.0	DOIT	47	verb	phrase	3	13	match	doit	3	1	p	1.0335
492.3953	0.0	+	47	verb	phrase	3	14	match	doit	3	1	p	1.0335
492.3289	0.0	[response]	47	verb	phrase	3	15	match	doit	3	1	p	1.0335
493.6952	0.0	+	48	noun	phrase	2	1	nomatch	tablier	-1	1	y	1.2393000000000003
494.24519999999995	0.2	tsdzvpl	48	noun	phrase	2	2	nomatch	tablier	-1	1	y	1.2393000000000003
494.4452	0.0	+	48	noun	phrase	2	3	nomatch	tablier	-1	1	y	1.2393000000000003
494.8451	0.2	bqsx	48	noun	phrase	2	4	nomatch	tablier	-1	1	y	1.2393000000000003
495.04509999999993	0.0	+	48	noun	phrase	2	5	nomatch	tablier	-1	1	y	1.2393000000000003
495.4451	0.2	nlfk	48	noun	phrase	2	6	nomatch	tablier	-1	1	y	1.2393000000000003
495.64509999999996	0.0	+	48	noun	phrase	2	7	nomatch	tablier	-1	1	y	1.2393000000000003
496.04499999999996	0.2	casier	48	noun	phrase	2	8	nomatch	tablier	-1	1	y	1.2393000000000003
496.245	0.0	+	48	noun	phrase	2	9	nomatch	tablier	-1	1	y	1.2393000000000003
496.645	0.2	rouge	48	noun	phrase	2	10	nomatch	tablier	-1	1	y	1.2393000000000003
496.845	0.0	+	48	noun	phrase	2	11	nomatch	tablier	-1	1	y	1.2393000000000003
497.24490000000003	0.0	+	48	noun	phrase	2	12	nomatch	tablier	-1	1	y	1.2393000000000003
499.24479999999994	0.0	TABLIER	48	noun	phrase	2	13	nomatch	tablier	-1	1	y	1.2393000000000003
500.5446999999999	0.0	+	48	noun	phrase	2	14	nomatch	tablier	-1	1	y	1.2393000000000003
500.4841	0.0	[response]	48	noun	phrase	2	15	nomatch	tablier	-1	1	y	1.2393000000000003
501.64459999999997	0.0	+	49	noun	list	3	1	nomatch	sablier	-1	1	y	0.86702
502.1945999999999	0.2	djl	49	noun	list	3	2	nomatch	sablier	-1	1	y	0.86702
502.3945	0.0	+	49	noun	list	3	3	nomatch	sablier	-1	1	y	0.86702
502.79449999999997	0.2	jztp	49	noun	list	3	4	nomatch	sablier	-1	1	y	0.86702
502.9945	0.0	+	49	noun	list	3	5	nomatch	sablier	-1	1	y	0.86702
503.3945	0.2	va	49	noun	list	3	6	nomatch	sablier	-1	1	y	0.86702
503.5944999999999	0.0	+	49	noun	list	3	7	nomatch	sablier	-1	1	y	0.86702
503.9943999999999	0.2	panier	49	noun	list	3	8	nomatch	sablier	-1	1	y	0.86702
504.1944	0.0	+	49	noun	list	3	9	nomatch	sablier	-1	1	y	0.86702
504.59439999999995	0.2	ainsi	49	noun	list	3	10	nomatch	sablier	-1	1	y	0.86702
504.7944	0.0	+	49	noun	list	3	11	nomatch	sablier	-1	1	y	0.86702
505.1943	0.0	+	49	noun	list	3	12	nomatch	sablier	-1	1	y	0.86702
507.1942	0.0	SABLIER	49	noun	list	3	13	nomatch	sablier	-1	1	y	0.86702
508.12739999999997	0.0	+	49	noun	list	3	14	nomatch	sablier	-1	1	y	0.86702
508.0612	0.0	[response]	49	noun	list	3	15	nomatch	sablier	-1	1	y	0.86702
509.59399999999994	0.0	+	50	noun	list	2	1	match	cendrier	5	1	p	1.353
510.144	0.2	xcf	50	noun	list	2	2	match	cendrier	5	1	p	1.353
510.34389999999996	0.0	+	50	noun	list	2	3	match	cendrier	5	1	p	1.353
510.74389999999994	0.2	swgv	50	noun	list	2	4	match	cendrier	5	1	p	1.353
510.9439	0.0	+	50	noun	list	2	5	match	cendrier	5	1	p	1.353
511.34389999999996	0.2	nlfk	50	noun	list	2	6	match	cendrier	5	1	p	1.353
511.5437999999999	0.0	+	50	noun	list	2	7	match	cendrier	5	1	p	1.353
511.9438	0.2	moins	50	noun	list	2	8	match	cendrier	5	1	p	1.353
512.1437999999999	0.0	+	50	noun	list	2	9	match	cendrier	5	1	p	1.353
512.5437999999999	0.2	cendrier	50	noun	list	2	10	match	cendrier	5	1	p	1.353
512.7438	0.0	+	50	noun	list	2	11	match	cendrier	5	1	p	1.353
513.1437	0.0	+	50	noun	list	2	12	match	cendrier	5	1	p	1.353
515.1436	0.0	CENDRIER	50	noun	list	2	13	match	cendrier	5	1	p	1.353
516.5600999999999	0.0	+	50	noun	list	2	14	match	cendrier	5	1	p	1.353
516.4965	0.0	[response]	50	noun	list	2	15	match	cendrier	5	1	p	1.353
517.5434	0.0	+	51	verb	list	2	1	nomatch	vers	-1	1	y	1.9998
518.0933	0.2	dmkw	51	verb	list	2	2	nomatch	vers	-1	1	y	1.9998
518.2932999999999	0.0	+	51	verb	list	2	3	nomatch	vers	-1	1	y	1.9998
518.6933	0.2	jztp	51	verb	list	2	4	nomatch	vers	-1	1	y	1.9998
518.8933	0.0	+	51	verb	list	2	5	nomatch	vers	-1	1	y	1.9998
519.2932999999999	0.2	tw	51	verb	list	2	6	nomatch	vers	-1	1	y	1.9998
519.4932	0.0	+	51	verb	list	2	7	nomatch	vers	-1	1	y	1.9998
519.8932	0.2	nouveau	51	verb	list	2	8	nomatch	vers	-1	1	y	1.9998
520.0932	0.0	+	51	verb	list	2	9	nomatch	vers	-1	1	y	1.9998
520.4932	0.2	galoper	51	verb	list	2	10	nomatch	vers	-1	1	y	1.9998
520.6931	0.0	+	51	verb	list	2	11	nomatch	vers	-1	1	y	1.9998
521.0930999999999	0.0	+	51	verb	list	2	12	nomatch	vers	-1	1	y	1.9998
523.093	0.0	VERS	51	verb	list	2	13	nomatch	vers	-1	1	y	1.9998
525.1595	0.0	+	51	verb	list	2	14	nomatch	vers	-1	1	y	1.9998
525.0928	0.0	[response]	51	verb	list	2	15	nomatch	vers	-1	1	y	1.9998
525.4928	0.0	+	52	verb	list	1	1	match	bleu	5	1	p	0.88466
526.0427	0.2	hnz	52	verb	list	1	2	match	bleu	5	1	p	0.88466
526.2427	0.0	+	52	verb	list	1	3	match	bleu	5	1	p	0.88466
526.6427	0.2	lnjw	52	verb	list	1	4	match	bleu	5	1	p	0.88466
526.8426999999999	0.0	+	52	verb	list	1	5	match	bleu	5	1	p	0.88466
527.2425999999999	0.2	zfj	52	verb	list	1	6	match	bleu	5	1	p	0.88466
527.4426	0.0	+	52	verb	list	1	7	match	bleu	5	1	p	0.88466
527.8426	0.2	hkgtdnr	52	verb	list	1	8	match	bleu	5	1	p	0.88466
528.0426	0.0	+	52	verb	list	1	9	match	bleu	5	1	p	0.88466
528.4425	0.2	bleu	52	verb	list	1	10	match	bleu	5	1	p	0.88466
528.6424999999999	0.0	+	52	verb	list	1	11	match	bleu	5	1	p	0.88466
529.0425	0.0	+	52	verb	list	1	12	match	bleu	5	1	p	0.88466
531.0423	0.0	BLEU	52	verb	list	1	13	match	bleu	5	1	p	0.88466
531.9923	0.0	+	52	verb	list	1	14	match	bleu	5	1	p	0.88466
531.927	0.0	[response]	52	verb	list	1	15	match	bleu	5	1	p	0.88466
541.4415	0.0	+	53	verb	phrase	4	1	nomatch	yves	-1	1	y	1.2923
541.9915	0.2	kpr	53	verb	phrase	4	2	nomatch	yves	-1	1	y	1.2923
542.1915	0.0	+	53	verb	phrase	4	3	nomatch	yves	-1	1	y	1.2923
542.5915	0.2	luc	53	verb	phrase	4	4	nomatch	yves	-1	1	y	1.2923
542.7914	0.0	+	53	verb	phrase	4	5	nomatch	yves	-1	1	y	1.2923
543.1913999999999	0.2	doit	53	verb	phrase	4	6	nomatch	yves	-1	1	y	1.2923
543.3914	0.0	+	53	verb	phrase	4	7	nomatch	yves	-1	1	y	1.2923
543.7914	0.2	plus	53	verb	phrase	4	8	nomatch	yves	-1	1	y	1.2923
543.9913	0.0	+	53	verb	phrase	4	9	nomatch	yves	-1	1	y	1.2923
544.3913	0.2	plonger	53	verb	phrase	4	10	nomatch	yves	-1	1	y	1.2923
544.5912999999999	0.0	+	53	verb	phrase	4	11	nomatch	yves	-1	1	y	1.2923
544.9913	0.0	+	53	verb	phrase	4	12	nomatch	yves	-1	1	y	1.2923
546.9911	0.0	YVES	53	verb	phrase	4	13	nomatch	yves	-1	1	y	1.2923
548.341	0.0	+	53	verb	phrase	4	14	nomatch	yves	-1	1	y	1.2923
548.2834	0.0	[response]	53	verb	phrase	4	15	nomatch	yves	-1	1	y	1.2923
549.3909	0.0	+	54	noun	list	1	1	match	panier	5	1	p	0.92116
549.9408999999999	0.2	jzwsxg	54	noun	list	1	2	match	panier	5	1	p	0.92116
550.1409	0.0	+	54	noun	list	1	3	match	panier	5	1	p	0.92116
550.5408	0.2	cfwl	54	noun	list	1	4	match	panier	5	1	p	0.92116
550.7407999999999	0.0	+	54	noun	list	1	5	match	panier	5	1	p	0.92116
551.1408	0.2	clzr	54	noun	list	1	6	match	panier	5	1	p	0.92116
551.3408	0.0	+	54	noun	list	1	7	match	panier	5	1	p	0.92116
551.7407	0.2	jdtb	54	noun	list	1	8	match	panier	5	1	p	0.92116
551.9407	0.0	+	54	noun	list	1	9	match	panier	5	1	p	0.92116
552.3407	0.2	panier	54	noun	list	1	10	match	panier	5	1	p	0.92116
552.5407	0.0	+	54	noun	list	1	11	match	panier	5	1	p	0.92116
552.9407	0.0	+	54	noun	list	1	12	match	panier	5	1	p	0.92116
554.9404999999999	0.0	PANIER	54	noun	list	1	13	match	panier	5	1	p	0.92116
555.9238	0.0	+	54	noun	list	1	14	match	panier	5	1	p	0.92116
555.8616999999999	0.0	[response]	54	noun	list	1	15	match	panier	5	1	p	0.92116
557.3403	0.0	+	55	verb	list	1	1	nomatch	vieux	-1	1	y	1.276
557.8903	0.2	vfbzwm	55	verb	list	1	2	nomatch	vieux	-1	1	y	1.276
558.0903	0.0	+	55	verb	list	1	3	nomatch	vieux	-1	1	y	1.276
558.4902	0.2	bqsx	55	verb	list	1	4	nomatch	vieux	-1	1	y	1.276
558.6902	0.0	+	55	verb	list	1	5	nomatch	vieux	-1	1	y	1.276
559.0902	0.2	tw	55	verb	list	1	6	nomatch	vieux	-1	1	y	1.276
559.2902	0.0	+	55	verb	list	1	7	nomatch	vieux	-1	1	y	1.276
559.6901	0.2	hkgtdnr	55	verb	list	1	8	nomatch	vieux	-1	1	y	1.276
559.8901	0.0	+	55	verb	list	1	9	nomatch	vieux	-1	1	y	1.276
560.2900999999999	0.2	petit	55	verb	list	1	10	nomatch	vieux	-1	1	y	1.276
560.4901	0.0	+	55	verb	list	1	11	nomatch	vieux	-1	1	y	1.276
560.89	0.0	+	55	verb	list	1	12	nomatch	vieux	-1	1	y	1.276
562.8899	0.0	VIEUX	55	verb	list	1	13	nomatch	vieux	-1	1	y	1.276
564.2230999999999	0.0	+	55	verb	list	1	14	nomatch	vieux	-1	1	y	1.276
564.1659	0.0	[response]	55	verb	list	1	15	nomatch	vieux	-1	1	y	1.276
565.2896999999999	0.0	+	56	verb	list	1	1	match	parader	5	1	p	0.66547
565.8397	0.2	rfqh	56	verb	list	1	2	match	parader	5	1	p	0.66547
566.0396	0.0	+	56	verb	list	1	3	match	parader	5	1	p	0.66547
566.4395999999999	0.2	jztp	56	verb	list	1	4	match	parader	5	1	p	0.66547
566.6396	0.0	+	56	verb	list	1	5	match	parader	5	1	p	0.66547
567.0396	0.2	kbcr	56	verb	list	1	6	match	parader	5	1	p	0.66547
567.2396	0.0	+	56	verb	list	1	7	match	parader	5	1	p	0.66547
567.6395	0.2	qgdkp	56	verb	list	1	8	match	parader	5	1	p	0.66547
567.8394999999999	0.0	+	56	verb	list	1	9	match	parader	5	1	p	0.66547
568.2395	0.2	parader	56	verb	list	1	10	match	parader	5	1	p	0.66547
568.4395	0.0	+	56	verb	list	1	11	match	parader	5	1	p	0.66547
568.8394	0.0	+	56	verb	list	1	12	match	parader	5	1	p	0.66547
570.8393	0.0	PARADER	56	verb	list	1	13	match	parader	5	1	p	0.66547
571.5725	0.0	+	56	verb	list	1	14	match	parader	5	1	p	0.66547
571.5047999999999	0.0	[response]	56	verb	list	1	15	match	parader	5	1	p	0.66547
573.2391	0.0	+	57	verb	list	4	1	nomatch	galoper	-1	1	y	1.1566
573.789	0.2	crb	57	verb	list	4	2	nomatch	galoper	-1	1	y	1.1566
573.9889999999999	0.0	+	57	verb	list	4	3	nomatch	galoper	-1	1	y	1.1566
574.389	0.2	pour	57	verb	list	4	4	nomatch	galoper	-1	1	y	1.1566
574.5889999999999	0.0	+	57	verb	list	4	5	nomatch	galoper	-1	1	y	1.1566
574.9889999999999	0.2	peut	57	verb	list	4	6	nomatch	galoper	-1	1	y	1.1566
575.1889	0.0	+	57	verb	list	4	7	nomatch	galoper	-1	1	y	1.1566
575.5889	0.2	grand	57	verb	list	4	8	nomatch	galoper	-1	1	y	1.1566
575.7889	0.0	+	57	verb	list	4	9	nomatch	galoper	-1	1	y	1.1566
576.1889	0.2	plonger	57	verb	list	4	10	nomatch	galoper	-1	1	y	1.1566
576.3888	0.0	+	57	verb	list	4	11	nomatch	galoper	-1	1	y	1.1566
576.7887999999999	0.0	+	57	verb	list	4	12	nomatch	galoper	-1	1	y	1.1566
578.7887	0.0	GALOPER	57	verb	list	4	13	nomatch	galoper	-1	1	y	1.1566
580.0052	0.0	+	57	verb	list	4	14	nomatch	galoper	-1	1	y	1.1566
579.9453	0.0	[response]	57	verb	list	4	15	nomatch	galoper	-1	1	y	1.1566
581.1885	0.0	+	58	noun	list	1	1	nomatch	cendrier	-1	0	TIMEOUT	-1.0
581.7384	0.2	wqmzrcs	58	noun	list	1	2	nomatch	cendrier	-1	0	TIMEOUT	-1.0
581.9384	0.0	+	58	noun	list	1	3	nomatch	cendrier	-1	0	TIMEOUT	-1.0
582.3384	0.2	bjlw	58	noun	list	1	4	nomatch	cendrier	-1	0	TIMEOUT	-1.0
582.5384	0.0	+	58	noun	list	1	5	nomatch	cendrier	-1	0	TIMEOUT	-1.0
582.9383	0.2	stm	58	noun	list	1	6	nomatch	cendrier	-1	0	TIMEOUT	-1.0
583.1383	0.0	+	58	noun	list	1	7	nomatch	cendrier	-1	0	TIMEOUT	-1.0
583.5382999999999	0.2	hwfnd	58	noun	list	1	8	nomatch	cendrier	-1	0	TIMEOUT	-1.0
583.7383	0.0	+	58	noun	list	1	9	nomatch	cendrier	-1	0	TIMEOUT	-1.0
584.1383	0.2	sablier	58	noun	list	1	10	nomatch	cendrier	-1	0	TIMEOUT	-1.0
584.3382	0.0	+	58	noun	list	1	11	nomatch	cendrier	-1	0	TIMEOUT	-1.0
584.7382	0.0	+	58	noun	list	1	12	nomatch	cendrier	-1	0	TIMEOUT	-1.0
586.7379999999999	0.0	CENDRIER	58	noun	list	1	13	nomatch	cendrier	-1	0	TIMEOUT	-1.0
589.1545	0.0	+	59	verb	phrase	2	1	match	loin	5	1	p	0.75211
589.7378	0.2	wrsgf	59	verb	phrase	2	2	match	loin	5	1	p	0.75211
589.9377999999999	0.0	+	59	verb	phrase	2	3	match	loin	5	1	p	0.75211
590.3378	0.2	vzfj	59	verb	phrase	2	4	match	loin	5	1	p	0.75211
590.5378	0.0	+	59	verb	phrase	2	5	match	loin	5	1	p	0.75211
590.9377	0.2	kbcr	59	verb	phrase	2	6	match	loin	5	1	p	0.75211
591.1377	0.0	+	59	verb	phrase	2	7	match	loin	5	1	p	0.75211
591.5377	0.2	plonger	59	verb	phrase	2	8	match	loin	5	1	p	0.75211
591.7377	0.0	+	59	verb	phrase	2	9	match	loin	5	1	p	0.75211
592.1376	0.2	loin	59	verb	phrase	2	10	match	loin	5	1	p	0.75211
592.3376	0.0	+	59	verb	phrase	2	11	match	loin	5	1	p	0.75211
592.7375999999999	0.0	+	59	verb	phrase	2	12	match	loin	5	1	p	0.75211
594.7374	0.0	LOIN	59	verb	phrase	2	13	match	loin	5	1	p	0.75211
595.554	0.0	+	59	verb	phrase	2	14	match	loin	5	1	p	0.75211
595.4895	0.0	[response]	59	verb	phrase	2	15	match	loin	5	1	p	0.75211
597.1372	0.0	+	60	verb	list	1	1	match	chasser	5	1	p	0.68074
597.6872	0.2	zmxb	60	verb	list	1	2	match	chasser	5	1	p	0.68074
597.8872	0.0	+	60	verb	list	1	3	match	chasser	5	1	p	0.68074
598.2872	0.2	qrgw	60	verb	list	1	4	match	chasser	5	1	p	0.68074
598.4870999999999	0.0	+	60	verb	list	1	5	match	chasser	5	1	p	0.68074
598.8870999999999	0.2	clzr	60	verb	list	1	6	match	chasser	5	1	p	0.68074
599.0871	0.0	+	60	verb	list	1	7	match	chasser	5	1	p	0.68074
599.4870999999999	0.2	qmfnh	60	verb	list	1	8	match	chasser	5	1	p	0.68074
599.687	0.0	+	60	verb	list	1	9	match	chasser	5	1	p	0.68074
600.087	0.2	chasser	60	verb	list	1	10	match	chasser	5	1	p	0.68074
600.2869999999999	0.0	+	60	verb	list	1	11	match	chasser	5	1	p	0.68074
600.687	0.0	+	60	verb	list	1	12	match	chasser	5	1	p	0.68074
602.6868	0.0	CHASSER	60	verb	list	1	13	match	chasser	5	1	p	0.68074
603.4368	0.0	+	60	verb	list	1	14	match	chasser	5	1	p	0.68074
603.3675999999999	0.0	[response]	60	verb	list	1	15	match	chasser	5	1	p	0.68074
605.0866	0.0	+	61	verb	phrase	1	1	nomatch	clavier	-1	1	y	0.9643
605.6365999999999	0.2	fzgvx	61	verb	phrase	1	2	nomatch	clavier	-1	1	y	0.9643
605.8366	0.0	+	61	verb	phrase	1	3	nomatch	clavier	-1	1	y	0.9643
606.2365	0.2	bjlw	61	verb	phrase	1	4	nomatch	clavier	-1	1	y	0.9643
606.4365	0.0	+	61	verb	phrase	1	5	nomatch	clavier	-1	1	y	0.9643
606.8365	0.2	kbcr	61	verb	phrase	1	6	nomatch	clavier	-1	1	y	0.9643
607.0364999999999	0.0	+	61	verb	phrase	1	7	nomatch	clavier	-1	1	y	0.9643
607.4365	0.2	jfskqmr	61	verb	phrase	1	8	nomatch	clavier	-1	1	y	0.9643
607.6364	0.0	+	61	verb	phrase	1	9	nomatch	clavier	-1	1	y	0.9643
608.0364	0.2	plus	61	verb	phrase	1	10	nomatch	clavier	-1	1	y	0.9643
608.2364	0.0	+	61	verb	phrase	1	11	nomatch	clavier	-1	1	y	0.9643
608.6364	0.0	+	61	verb	phrase	1	12	nomatch	clavier	-1	1	y	0.9643
610.6361999999999	0.0	CLAVIER	61	verb	phrase	1	13	nomatch	clavier	-1	1	y	0.9643
611.6695	0.0	+	61	verb	phrase	1	14	nomatch	clavier	-1	1	y	0.9643
611.6005	0.0	[response]	61	verb	phrase	1	15	nomatch	clavier	-1	1	y	0.9643
613.036	0.0	+	62	verb	phrase	2	1	match	plonger	5	0	y	1.8893
613.586	0.2	wtvlxfr	62	verb	phrase	2	2	match	plonger	5	0	y	1.8893
613.786	0.0	+	62	verb	phrase	2	3	match	plonger	5	0	y	1.8893
614.1859	0.2	vzfj	62	verb	phrase	2	4	match	plonger	5	0	y	1.8893
614.3859	0.0	+	62	verb	phrase	2	5	match	plonger	5	0	y	1.8893
614.7859	0.2	clzr	62	verb	phrase	2	6	match	plonger	5	0	y	1.8893
614.9859	0.0	+	62	verb	phrase	2	7	match	plonger	5	0	y	1.8893
615.3858	0.2	beaucoup	62	verb	phrase	2	8	match	plonger	5	0	y	1.8893
615.5858	0.0	+	62	verb	phrase	2	9	match	plonger	5	0	y	1.8893
615.9857999999999	0.2	plonger	62	verb	phrase	2	10	match	plonger	5	0	y	1.8893
616.1858	0.0	+	62	verb	phrase	2	11	match	plonger	5	0	y	1.8893
616.5858	0.0	+	62	verb	phrase	2	12	match	plonger	5	0	y	1.8893
618.5856	0.0	PLONGER	62	verb	phrase	2	13	match	plonger	5	0	y	1.8893
620.5354	0.0	+	62	verb	phrase	2	14	match	plonger	5	0	y	1.8893
620.4748999999999	0.0	[response]	62	verb	phrase	2	15	match	plonger	5	0	y	1.8893
620.9854	0.0	+	63	verb	list	2	1	nomatch	nouveau	-1	1	y	1.5505
621.5354	0.2	htsx	63	verb	list	2	2	nomatch	nouveau	-1	1	y	1.5505
621.7354	0.0	+	63	verb	list	2	3	nomatch	nouveau	-1	1	y	1.5505
622.1353	0.2	jztp	63	verb	list	2	4	nomatch	nouveau	-1	1	y	1.5505
622.3353	0.0	+	63	verb	list	2	5	nomatch	nouveau	-1	1	y	1.5505
622.7352999999999	0.2	kbcr	63	verb	list	2	6	nomatch	nouveau	-1	1	y	1.5505
622.9353	0.0	+	63	verb	list	2	7	nomatch	nouveau	-1	1	y	1.5505
623.3352	0.2	grand	63	verb	list	2	8	nomatch	nouveau	-1	1	y	1.5505
623.5351999999999	0.0	+	63	verb	list	2	9	nomatch	nouveau	-1	1	y	1.5505
623.9352	0.2	voyager	63	verb	list	2	10	nomatch	nouveau	-1	1	y	1.5505
624.1351999999999	0.0	+	63	verb	list	2	11	nomatch	nouveau	-1	1	y	1.5505
624.5350999999999	0.0	+	63	verb	list	2	12	nomatch	nouveau	-1	1	y	1.5505
626.535	0.0	NOUVEAU	63	verb	list	2	13	nomatch	nouveau	-1	1	y	1.5505
628.1514999999999	0.0	+	63	verb	list	2	14	nomatch	nouveau	-1	1	y	1.5505
628.0855	0.0	[response]	63	verb	list	2	15	nomatch	nouveau	-1	1	y	1.5505
628.9348	0.0	+	64	verb	phrase	4	1	nomatch	ainsi	-1	1	y	1.1091
629.4848	0.2	hpdqmfl	64	verb	phrase	4	2	nomatch	ainsi	-1	1	y	1.1091
629.6848	0.0	+	64	verb	phrase	4	3	nomatch	ainsi	-1	1	y	1.1091
630.1014	0.2	jade	64	verb	phrase	4	4	nomatch	ainsi	-1	1	y	1.1091
630.2848	0.0	+	64	verb	phrase	4	5	nomatch	ainsi	-1	1	y	1.1091
630.7013	0.2	doit	64	verb	phrase	4	6	nomatch	ainsi	-1	1	y	1.1091
630.9013	0.0	+	64	verb	phrase	4	7	nomatch	ainsi	-1	1	y	1.1091
631.3013	0.2	nager	64	verb	phrase	4	8	nomatch	ainsi	-1	1	y	1.1091
631.5013	0.0	+	64	verb	phrase	4	9	nomatch	ainsi	-1	1	y	1.1091
631.9012	0.2	vite	64	verb	phrase	4	10	nomatch	ainsi	-1	1	y	1.1091
632.1012	0.0	+	64	verb	phrase	4	11	nomatch	ainsi	-1	1	y	1.1091
632.5011999999999	0.0	+	64	verb	phrase	4	12	nomatch	ainsi	-1	1	y	1.1091
634.501	0.0	AINSI	64	verb	phrase	4	13	nomatch	ainsi	-1	1	y	1.1091
635.6676	0.0	+	64	verb	phrase	4	14	nomatch	ainsi	-1	1	y	1.1091
635.6101	0.0	[response]	64	verb	phrase	4	15	nomatch	ainsi	-1	1	y	1.1091
636.9008	0.0	+	65	verb	list	4	1	nomatch	plonger	-1	1	y	1.1469
637.4508	0.2	dgbflz	65	verb	list	4	2	nomatch	plonger	-1	1	y	1.1469
637.6508	0.0	+	65	verb	list	4	3	nomatch	plonger	-1	1	y	1.1469
638.0508	0.2	luc	65	verb	list	4	4	nomatch	plonger	-1	1	y	1.1469
638.2506999999999	0.0	+	65	verb	list	4	5	nomatch	plonger	-1	1	y	1.1469
638.6507	0.2	son	65	verb	list	4	6	nomatch	plonger	-1	1	y	1.1469
638.8507	0.0	+	65	verb	list	4	7	nomatch	plonger	-1	1	y	1.1469
639.2506999999999	0.2	danser	65	verb	list	4	8	nomatch	plonger	-1	1	y	1.1469
639.4507	0.0	+	65	verb	list	4	9	nomatch	plonger	-1	1	y	1.1469
639.8506	0.2	noir	65	verb	list	4	10	nomatch	plonger	-1	1	y	1.1469
640.0505999999999	0.0	+	65	verb	list	4	11	nomatch	plonger	-1	1	y	1.1469
640.4506	0.0	+	65	verb	list	4	12	nomatch	plonger	-1	1	y	1.1469
642.4504	0.0	PLONGER	65	verb	list	4	13	nomatch	plonger	-1	1	y	1.1469
643.667	0.0	+	65	verb	list	4	14	nomatch	plonger	-1	1	y	1.1469
643.5973	0.0	[response]	65	verb	list	4	15	nomatch	plonger	-1	1	y	1.1469
644.8502	0.0	+	66	noun	phrase	3	1	match	nouveau	4	0	y	1.0031
645.4001999999999	0.2	kfmtwjg	66	noun	phrase	3	2	match	nouveau	4	0	y	1.0031
645.6002	0.0	+	66	noun	phrase	3	3	match	nouveau	4	0	y	1.0031
646.0001	0.2	jztp	66	noun	phrase	3	4	match	nouveau	4	0	y	1.0031
646.2001	0.0	+	66	noun	phrase	3	5	match	nouveau	4	0	y	1.0031
646.6001	0.2	leur	66	noun	phrase	3	6	match	nouveau	4	0	y	1.0031
646.8000999999999	0.0	+	66	noun	phrase	3	7	match	nouveau	4	0	y	1.0031
647.2001	0.2	nouveau	66	noun	phrase	3	8	match	nouveau	4	0	y	1.0031
647.4	0.0	+	66	noun	phrase	3	9	match	nouveau	4	0	y	1.0031
647.8	0.2	casier	66	noun	phrase	3	10	match	nouveau	4	0	y	1.0031
648.0	0.0	+	66	noun	phrase	3	11	match	nouveau	4	0	y	1.0031
648.4	0.0	+	66	noun	phrase	3	12	match	nouveau	4	0	y	1.0031
650.3998	0.0	NOUVEAU	66	noun	phrase	3	13	match	nouveau	4	0	y	1.0031
651.4664	0.0	+	66	noun	phrase	3	14	match	nouveau	4	0	y	1.0031
651.4028999999999	0.0	[response]	66	noun	phrase	3	15	match	nouveau	4	0	y	1.0031
652.7995999999999	0.0	+	67	verb	list	1	1	match	vieux	5	1	p	0.94369
653.3496	0.2	fcsjw	67	verb	list	1	2	match	vieux	5	1	p	0.94369
653.5495999999999	0.0	+	67	verb	list	1	3	match	vieux	5	1	p	0.94369
653.9495	0.2	qrgw	67	verb	list	1	4	match	vieux	5	1	p	0.94369
654.1495	0.0	+	67	verb	list	1	5	match	vieux	5	1	p	0.94369
654.5495	0.2	kbcr	67	verb	list	1	6	match	vieux	5	1	p	0.94369
654.7495	0.0	+	67	verb	list	1	7	match	vieux	5	1	p	0.94369
655.1494	0.2	tcvmrdq	67	verb	list	1	8	match	vieux	5	1	p	0.94369
655.3494	0.0	+	67	verb	list	1	9	match	vieux	5	1	p	0.94369
655.7493999999999	0.2	vieux	67	verb	list	1	10	match	vieux	5	1	p	0.94369
655.9494	0.0	+	67	verb	list	1	11	match	vieux	5	1	p	0.94369
656.3494	0.0	+	67	verb	list	1	12	match	vieux	5	1	p	0.94369
658.3492	0.0	VIEUX	67	verb	list	1	13	match	vieux	5	1	p	0.94369
659.3491	0.0	+	67	verb	list	1	14	match	vieux	5	1	p	0.94369
659.2928999999999	0.0	[response]	67	verb	list	1	15	match	vieux	5	1	p	0.94369
660.749	0.0	+	68	verb	list	2	1	match	jongler	5	0	TIMEOUT	-1.0
661.299	0.2	sjkpdql	68	verb	list	2	2	match	jongler	5	0	TIMEOUT	-1.0
661.499	0.0	+	68	verb	list	2	3	match	jongler	5	0	TIMEOUT	-1.0
661.8989	0.2	bqsx	68	verb	list	2	4	match	jongler	5	0	TIMEOUT	-1.0
662.0989	0.0	+	68	verb	list	2	5	match	jongler	5	0	TIMEOUT	-1.0
662.4988999999999	0.2	clzr	68	verb	list	2	6	match	jongler	5	0	TIMEOUT	-1.0
662.6989	0.0	+	68	verb	list	2	7	match	jongler	5	0	TIMEOUT	-1.0
663.0988	0.2	grand	68	verb	list	2	8	match	jongler	5	0	TIMEOUT	-1.0
663.2988	0.0	+	68	verb	list	2	9	match	jongler	5	0	TIMEOUT	-1.0
663.6988	0.2	jongler	68	verb	list	2	10	match	jongler	5	0	TIMEOUT	-1.0
663.8987999999999	0.0	+	68	verb	list	2	11	match	jongler	5	0	TIMEOUT	-1.0
664.2986999999999	0.0	+	68	verb	list	2	12	match	jongler	5	0	TIMEOUT	-1.0
666.2986	0.0	JONGLER	68	verb	list	2	13	match	jongler	5	0	TIMEOUT	-1.0
668.6984	0.0	+	69	noun	phrase	2	1	match	tablier	5	1	p	1.3233
669.2984	0.2	skgpbxw	69	noun	phrase	2	2	match	tablier	5	1	p	1.3233
669.4983	0.0	+	69	noun	phrase	2	3	match	tablier	5	1	p	1.3233
669.8983	0.2	qlk	69	noun	phrase	2	4	match	tablier	5	1	p	1.3233
670.0983	0.0	+	69	noun	phrase	2	5	match	tablier	5	1	p	1.3233
670.4983	0.2	stm	69	noun	phrase	2	6	match	tablier	5	1	p	1.3233
670.6981999999999	0.0	+	69	noun	phrase	2	7	match	tablier	5	1	p	1.3233
671.0982	0.2	vieux	69	noun	phrase	2	8	match	tablier	5	1	p	1.3233
671.2982	0.0	+	69	noun	phrase	2	9	match	tablier	5	1	p	1.3233
671.6981999999999	0.2	tablier	69	noun	phrase	2	10	match	tablier	5	1	p	1.3233
671.8982	0.0	+	69	noun	phrase	2	11	match	tablier	5	1	p	1.3233
672.2981	0.0	+	69	noun	phrase	2	12	match	tablier	5	1	p	1.3233
674.298	0.0	TABLIER	69	noun	phrase	2	13	match	tablier	5	1	p	1.3233
675.6812	0.0	+	69	noun	phrase	2	14	match	tablier	5	1	p	1.3233
675.6213	0.0	[response]	69	noun	phrase	2	15	match	tablier	5	1	p	1.3233
676.6978	0.0	+	70	noun	list	1	1	match	cendrier	5	0	TIMEOUT	-1.0
677.2477	0.2	rjdmsq	70	noun	list	1	2	match	cendrier	5	0	TIMEOUT	-1.0
677.4476999999999	0.0	+	70	noun	list	1	3	match	cendrier	5	0	TIMEOUT	-1.0
677.8476999999999	0.2	mbnk	70	noun	list	1	4	match	cendrier	5	0	TIMEOUT	-1.0
678.0477	0.0	+	70	noun	list	1	5	match	cendrier	5	0	TIMEOUT	-1.0
678.4476	0.2	clzr	70	noun	list	1	6	match	cendrier	5	0	TIMEOUT	-1.0
678.6476	0.0	+	70	noun	list	1	7	match	cendrier	5	0	TIMEOUT	-1.0
679.0476	0.2	wtbhj	70	noun	list	1	8	match	cendrier	5	0	TIMEOUT	-1.0
679.2475999999999	0.0	+	70	noun	list	1	9	match	cendrier	5	0	TIMEOUT	-1.0
679.6476	0.2	cendrier	70	noun	list	1	10	match	cendrier	5	0	TIMEOUT	-1.0
679.8475	0.0	+	70	noun	list	1	11	match	cendrier	5	0	TIMEOUT	-1.0
680.2475	0.0	+	70	noun	list	1	12	match	cendrier	5	0	TIMEOUT	-1.0
682.2474	0.0	CENDRIER	70	noun	list	1	13	match	cendrier	5	0	TIMEOUT	-1.0
684.6472	0.0	+	71	verb	list	3	1	nomatch	vert	-1	1	y	1.4962
685.2470999999999	0.2	gwm	71	verb	list	3	2	nomatch	vert	-1	1	y	1.4962
685.4471	0.0	+	71	verb	list	3	3	nomatch	vert	-1	1	y	1.4962
685.8471	0.2	rpcx	71	verb	list	3	4	nomatch	vert	-1	1	y	1.4962
686.0471	0.0	+	71	verb	list	3	5	nomatch	vert	-1	1	y	1.4962
686.447	0.2	leur	71	verb	list	3	6	nomatch	vert	-1	1	y	1.4962
686.6469999999999	0.0	+	71	verb	list	3	7	nomatch	vert	-1	1	y	1.4962
687.047	0.2	chasser	71	verb	list	3	8	nomatch	vert	-1	1	y	1.4962
687.247	0.0	+	71	verb	list	3	9	nomatch	vert	-1	1	y	1.4962
687.6469	0.2	rouge	71	verb	list	3	10	nomatch	vert	-1	1	y	1.4962
687.8469	0.0	+	71	verb	list	3	11	nomatch	vert	-1	1	y	1.4962
688.2469	0.0	+	71	verb	list	3	12	nomatch	vert	-1	1	y	1.4962
690.2466999999999	0.0	VERT	71	verb	list	3	13	nomatch	vert	-1	1	y	1.4962
691.8133	0.0	+	71	verb	list	3	14	nomatch	vert	-1	1	y	1.4962
691.7429	0.0	[response]	71	verb	list	3	15	nomatch	vert	-1	1	y	1.4962
692.6465	0.0	+	72	verb	list	1	1	match	grand	5	0	TIMEOUT	-1.0
693.1965	0.2	pbtg	72	verb	list	1	2	match	grand	5	0	TIMEOUT	-1.0
693.3965	0.0	+	72	verb	list	1	3	match	grand	5	0	TIMEOUT	-1.0
693.7964999999999	0.2	qrgw	72	verb	list	1	4	match	grand	5	0	TIMEOUT	-1.0
693.9964	0.0	+	72	verb	list	1	5	match	grand	5	0	TIMEOUT	-1.0
694.3964	0.2	clzr	72	verb	list	1	6	match	grand	5	0	TIMEOUT	-1.0
694.5964	0.0	+	72	verb	list	1	7	match	grand	5	0	TIMEOUT	-1.0
694.9964	0.2	dqlmcfg	72	verb	list	1	8	match	grand	5	0	TIMEOUT	-1.0
695.1963999999999	0.0	+	72	verb	list	1	9	match	grand	5	0	TIMEOUT	-1.0
695.5962999999999	0.2	grand	72	verb	list	1	10	match	grand	5	0	TIMEOUT	-1.0
695.7963	0.0	+	72	verb	list	1	11	match	grand	5	0	TIMEOUT	-1.0
696.1963	0.0	+	72	verb	list	1	12	match	grand	5	0	TIMEOUT	-1.0
698.1961	0.0	GRAND	72	verb	list	1	13	match	grand	5	0	TIMEOUT	-1.0
700.5959	0.0	+	73	noun	phrase	1	1	match	tablier	5	1	p	1.2429
701.1958999999999	0.2	pnc	73	noun	phrase	1	2	match	tablier	5	1	p	1.2429
701.3959	0.0	+	73	noun	phrase	1	3	match	tablier	5	1	p	1.2429
701.7958	0.2	bqsx	73	noun	phrase	1	4	match	tablier	5	1	p	1.2429
701.9957999999999	0.0	+	73	noun	phrase	1	5	match	tablier	5	1	p	1.2429
702.3958	0.2	stm	73	noun	phrase	1	6	match	tablier	5	1	p	1.2429
702.5957999999999	0.0	+	73	noun	phrase	1	7	match	tablier	5	1	p	1.2429
702.9957999999999	0.2	prtk	73	noun	phrase	1	8	match	tablier	5	1	p	1.2429
703.1957	0.0	+	73	noun	phrase	1	9	match	tablier	5	1	p	1.2429
703.5957	0.2	tablier	73	noun	phrase	1	10	match	tablier	5	1	p	1.2429
703.7957	0.0	+	73	noun	phrase	1	11	match	tablier	5	1	p	1.2429
704.1957	0.0	+	73	noun	phrase	1	12	match	tablier	5	1	p	1.2429
706.1954999999999	0.0	TABLIER	73	noun	phrase	1	13	match	tablier	5	1	p	1.2429
707.4954	0.0	+	73	noun	phrase	1	14	match	tablier	5	1	p	1.2429
707.4384	0.0	[response]	73	noun	phrase	1	15	match	tablier	5	1	p	1.2429
708.5953	0.0	+	74	verb	list	4	1	nomatch	rocher	-1	1	y	1.2467
709.1453	0.2	rlxjk	74	verb	list	4	2	nomatch	rocher	-1	1	y	1.2467
709.3453	0.0	+	74	verb	list	4	3	nomatch	rocher	-1	1	y	1.2467
709.7452	0.2	avec	74	verb	list	4	4	nomatch	rocher	-1	1	y	1.2467
709.9452	0.0	+	74	verb	list	4	5	nomatch	rocher	-1	1	y	1.2467
710.3452	0.2	va	74	verb	list	4	6	nomatch	rocher	-1	1	y	1.2467
710.5452	0.0	+	74	verb	list	4	7	nomatch	rocher	-1	1	y	1.2467
710.9451	0.2	vieux	74	verb	list	4	8	nomatch	rocher	-1	1	y	1.2467
711.1451	0.0	+	74	verb	list	4	9	nomatch	rocher	-1	1	y	1.2467
711.5450999999999	0.2	danser	74	verb	list	4	10	nomatch	rocher	-1	1	y	1.2467
711.7451	0.0	+	74	verb	list	4	11	nomatch	rocher	-1	1	y	1.2467
712.1451	0.0	+	74	verb	list	4	12	nomatch	rocher	-1	1	y	1.2467
714.1449	0.0	ROCHER	74	verb	list	4	13	nomatch	rocher	-1	1	y	1.2467
715.4615	0.0	+	74	verb	list	4	14	nomatch	rocher	-1	1	y	1.2467
715.3915999999999	0.0	[response]	74	verb	list	4	15	nomatch	rocher	-1	1	y	1.2467
716.5446999999999	0.0	+	75	verb	list	2	1	match	voyager	4	0	y	1.7602
717.0947	0.2	dgqx	75	verb	list	2	2	match	voyager	4	0	y	1.7602
717.2946999999999	0.0	+	75	verb	list	2	3	match	voyager	4	0	y	1.7602
717.6945999999999	0.2	rpcx	75	verb	list	2	4	match	voyager	4	0	y	1.7602
717.8946	0.0	+	75	verb	list	2	5	match	voyager	4	0	y	1.7602
718.2946	0.2	zfj	75	verb	list	2	6	match	voyager	4	0	y	1.7602
718.4946	0.0	+	75	verb	list	2	7	match	voyager	4	0	y	1.7602
718.8945	0.2	voyager	75	verb	list	2	8	match	voyager	4	0	y	1.7602
719.0944999999999	0.0	+	75	verb	list	2	9	match	voyager	4	0	y	1.7602
719.4945	0.2	vert	75	verb	list	2	10	match	voyager	4	0	y	1.7602
719.6945	0.0	+	75	verb	list	2	11	match	voyager	4	0	y	1.7602
720.0944	0.0	+	75	verb	list	2	12	match	voyager	4	0	y	1.7602
722.0943	0.0	VOYAGER	75	verb	list	2	13	match	voyager	4	0	y	1.7602
723.9108	0.0	+	75	verb	list	2	14	match	voyager	4	0	y	1.7602
723.8545	0.0	[response]	75	verb	list	2	15	match	voyager	4	0	y	1.7602
724.4941	0.0	+	76	verb	list	3	1	nomatch	plonger	-1	1	y	0.87242
725.0441	0.2	kdpqlgv	76	verb	list	3	2	nomatch	plonger	-1	1	y	0.87242
725.244	0.0	+	76	verb	list	3	3	nomatch	plonger	-1	1	y	0.87242
725.644	0.2	mpnw	76	verb	list	3	4	nomatch	plonger	-1	1	y	0.87242
725.8439999999999	0.0	+	76	verb	list	3	5	nomatch	plonger	-1	1	y	0.87242
726.244	0.2	son	76	verb	list	3	6	nomatch	plonger	-1	1	y	0.87242
726.4439	0.0	+	76	verb	list	3	7	nomatch	plonger	-1	1	y	0.87242
726.8439	0.2	galoper	76	verb	list	3	8	nomatch	plonger	-1	1	y	0.87242
727.0439	0.0	+	76	verb	list	3	9	nomatch	plonger	-1	1	y	0.87242
727.4439	0.2	bleu	76	verb	list	3	10	nomatch	plonger	-1	1	y	0.87242
727.6439	0.0	+	76	verb	list	3	11	nomatch	plonger	-1	1	y	0.87242
728.0437999999999	0.0	+	76	verb	list	3	12	nomatch	plonger	-1	1	y	0.87242
730.0437	0.0	PLONGER	76	verb	list	3	13	nomatch	plonger	-1	1	y	0.87242
730.9769	0.0	+	76	verb	list	3	14	nomatch	plonger	-1	1	y	0.87242
730.9161	0.0	[response]	76	verb	list	3	15	nomatch	plonger	-1	1	y	0.87242
732.4435	0.0	+	77	verb	phrase	4	1	nomatch	doit	-1	1	y	1.4142
732.9934	0.2	flsxt	77	verb	phrase	4	2	nomatch	doit	-1	1	y	1.4142
733.1934	0.0	+	77	verb	phrase	4	3	nomatch	doit	-1	1	y	1.4142
733.5934	0.2	adam	77	verb	phrase	4	4	nomatch	doit	-1	1	y	1.4142
733.7934	0.0	+	77	verb	phrase	4	5	nomatch	doit	-1	1	y	1.4142
734.1934	0.2	peut	77	verb	phrase	4	6	nomatch	doit	-1	1	y	1.4142
734.3933	0.0	+	77	verb	phrase	4	7	nomatch	doit	-1	1	y	1.4142
734.7932999999999	0.2	trop	77	verb	phrase	4	8	nomatch	doit	-1	1	y	1.4142
734.9933	0.0	+	77	verb	phrase	4	9	nomatch	doit	-1	1	y	1.4142
735.3933	0.2	jongler	77	verb	phrase	4	10	nomatch	doit	-1	1	y	1.4142
735.5932	0.0	+	77	verb	phrase	4	11	nomatch	doit	-1	1	y	1.4142
735.9932	0.0	+	77	verb	phrase	4	12	nomatch	doit	-1	1	y	1.4142
737.9931	0.0	DOIT	77	verb	phrase	4	13	nomatch	doit	-1	1	y	1.4142
739.4764	0.0	+	77	verb	phrase	4	14	nomatch	doit	-1	1	y	1.4142
739.4072	0.0	[response]	77	verb	phrase	4	15	nomatch	doit	-1	1	y	1.4142
740.3928999999999	0.0	+	78	verb	phrase	1	1	match	plus	5	1	p	1.1741
740.9427999999999	0.2	jqzp	78	verb	phrase	1	2	match	plus	5	1	p	1.1741
741.1428	0.0	+	78	verb	phrase	1	3	match	plus	5	1	p	1.1741
741.5427999999999	0.2	ftb	78	verb	phrase	1	4	match	plus	5	1	p	1.1741
741.7428	0.0	+	78	verb	phrase	1	5	match	plus	5	1	p	1.1741
742.1427	0.2	tw	78	verb	phrase	1	6	match	plus	5	1	p	1.1741
742.3426999999999	0.0	+	78	verb	phrase	1	7	match	plus	5	1	p	1.1741
742.7427	0.2	dqlmcfg	78	verb	phrase	1	8	match	plus	5	1	p	1.1741
742.9427	0.0	+	78	verb	phrase	1	9	match	plus	5	1	p	1.1741
743.3426	0.2	plus	78	verb	phrase	1	10	match	plus	5	1	p	1.1741
743.5426	0.0	+	78	verb	phrase	1	11	match	plus	5	1	p	1.1741
743.9426	0.0	+	78	verb	phrase	1	12	match	plus	5	1	p	1.1741
745.9424	0.0	PLUS	78	verb	phrase	1	13	match	plus	5	1	p	1.1741
747.1757	0.0	+	78	verb	phrase	1	14	match	plus	5	1	p	1.1741
747.1166	0.0	[response]	78	verb	phrase	1	15	match	plus	5	1	p	1.1741
748.3423	0.0	+	79	verb	phrase	4	1	nomatch	moins	-1	1	y	0.786
748.8922	0.2	vpmd	79	verb	phrase	4	2	nomatch	moins	-1	1	y	0.786
749.0921999999999	0.0	+	79	verb	phrase	4	3	nomatch	moins	-1	1	y	0.786
749.4922	0.2	paul	79	verb	phrase	4	4	nomatch	moins	-1	1	y	0.786
749.6922	0.0	+	79	verb	phrase	4	5	nomatch	moins	-1	1	y	0.786
750.0921	0.2	va	79	verb	phrase	4	6	nomatch	moins	-1	1	y	0.786
750.2921	0.0	+	79	verb	phrase	4	7	nomatch	moins	-1	1	y	0.786
750.6921	0.2	beaucoup	79	verb	phrase	4	8	nomatch	moins	-1	1	y	0.786
750.8921	0.0	+	79	verb	phrase	4	9	nomatch	moins	-1	1	y	0.786
751.292	0.2	voyager	79	verb	phrase	4	10	nomatch	moins	-1	1	y	0.786
751.492	0.0	+	79	verb	phrase	4	11	nomatch	moins	-1	1	y	0.786
751.8919999999999	0.0	+	79	verb	phrase	4	12	nomatch	moins	-1	1	y	0.786
753.8918	0.0	MOINS	79	verb	phrase	4	13	nomatch	moins	-1	1	y	0.786
754.7418	0.0	+	79	verb	phrase	4	14	nomatch	moins	-1	1	y	0.786
754.6778	0.0	[response]	79	verb	phrase	4	15	nomatch	moins	-1	1	y	0.786
756.2916	0.0	+	80	verb	phrase	2	1	nomatch	ainsi	-1	1	y	0.86849
756.8416	0.2	swb	80	verb	phrase	2	2	nomatch	ainsi	-1	1	y	0.86849
757.0416	0.0	+	80	verb	phrase	2	3	nomatch	ainsi	-1	1	y	0.86849
757.4416	0.2	swgv	80	verb	phrase	2	4	nomatch	ainsi	-1	1	y	0.86849
757.6415	0.0	+	80	verb	phrase	2	5	nomatch	ainsi	-1	1	y	0.86849
758.0414999999999	0.2	clzr	80	verb	phrase	2	6	nomatch	ainsi	-1	1	y	0.86849
758.2415	0.0	+	80	verb	phrase	2	7	nomatch	ainsi	-1	1	y	0.86849
758.6415	0.2	galoper	80	verb	phrase	2	8	nomatch	ainsi	-1	1	y	0.86849
758.8415	0.0	+	80	verb	phrase	2	9	nomatch	ainsi	-1	1	y	0.86849
759.2414	0.2	tôt	80	verb	phrase	2	10	nomatch	ainsi	-1	1	y	0.86849
759.4413999999999	0.0	+	80	verb	phrase	2	11	nomatch	ainsi	-1	1	y	0.86849
759.8414	0.0	+	80	verb	phrase	2	12	nomatch	ainsi	-1	1	y	0.86849
761.8412	0.0	AINSI	80	verb	phrase	2	13	nomatch	ainsi	-1	1	y	0.86849
762.7745	0.0	+	80	verb	phrase	2	14	nomatch	ainsi	-1	1	y	0.86849
764.241	0.0	+	80	verb	phrase	2	15	nomatch	ainsi	-1	1	y	0.86849
765.0076	0.0	+	80	verb	phrase	2	16	nomatch	ainsi	-1	1	y	0.86849
765.1075999999999	0.0	+	80	verb	phrase	2	17	nomatch	ainsi	-1	1	y	0.86849
766.5074999999999	0.0	+	80	verb	phrase	2	18	nomatch	ainsi	-1	1	y	0.86849
766.6075	0.0	+	80	verb	phrase	2	19	nomatch	ainsi	-1	1	y	0.86849
768.0074	0.0	+	80	verb	phrase	2	20	nomatch	ainsi	-1	1	y	0.86849
768.1074	0.0	+	80	verb	phrase	2	21	nomatch	ainsi	-1	1	y	0.86849
769.5073	0.0	+	80	verb	phrase	2	22	nomatch	ainsi	-1	1	y	0.86849
769.6073	0.0	+	80	verb	phrase	2	23	nomatch	ainsi	-1	1	y	0.86849
771.0072	0.0	+	80	verb	phrase	2	24	nomatch	ainsi	-1	1	y	0.86849
771.1071999999999	0.0	+	80	verb	phrase	2	25	nomatch	ainsi	-1	1	y	0.86849
772.5070999999999	0.0	+	80	verb	phrase	2	26	nomatch	ainsi	-1	1	y	0.86849
772.6071	0.0	+	80	verb	phrase	2	27	nomatch	ainsi	-1	1	y	0.86849
774.0069	0.0	+	80	verb	phrase	2	28	nomatch	ainsi	-1	1	y	0.86849
774.1069	0.0	+	80	verb	phrase	2	29	nomatch	ainsi	-1	1	y	0.86849
775.5068	0.0	+	80	verb	phrase	2	30	nomatch	ainsi	-1	1	y	0.86849
775.6068	0.0	+	80	verb	phrase	2	31	nomatch	ainsi	-1	1	y	0.86849
777.0067	0.0	+	80	verb	phrase	2	32	nomatch	ainsi	-1	1	y	0.86849
777.1066999999999	0.0	+	80	verb	phrase	2	33	nomatch	ainsi	-1	1	y	0.86849
778.5065999999999	0.0	+	80	verb	phrase	2	34	nomatch	ainsi	-1	1	y	0.86849
778.6066	0.0	+	80	verb	phrase	2	35	nomatch	ainsi	-1	1	y	0.86849
781.6064	0.0	+	80	verb	phrase	2	36	nomatch	ainsi	-1	1	y	0.86849
762.7097	0.0	[response]	80	verb	phrase	2	37	nomatch	ainsi	-1	1	y	0.86849
