onset	duration	stim	trial_number	trial_type	trial_structure	trial_length	sequential_position	probe_type	probe	probe_position	response_correct	response_key	response_time
0.0566999999999922	0.0	+	1	noun	list	1	1	nomatch	grand	-1	1	y	0.8007
0.539999999999992	0.2	plk	1	noun	list	1	2	nomatch	grand	-1	1	y	0.8007
0.7399999999999949	0.0	+	1	noun	list	1	3	nomatch	grand	-1	1	y	0.8007
1.1400000000000006	0.2	ftb	1	noun	list	1	4	nomatch	grand	-1	1	y	0.8007
1.3399999999999892	0.0	+	1	noun	list	1	5	nomatch	grand	-1	1	y	0.8007
1.7398999999999916	0.2	stm	1	noun	list	1	6	nomatch	grand	-1	1	y	0.8007
1.9398999999999944	0.0	+	1	noun	list	1	7	nomatch	grand	-1	1	y	0.8007
2.3399	0.2	tsrndmj	1	noun	list	1	8	nomatch	grand	-1	1	y	0.8007
2.5398999999999887	0.0	+	1	noun	list	1	9	nomatch	grand	-1	1	y	0.8007
2.939799999999991	0.2	plus	1	noun	list	1	10	nomatch	grand	-1	1	y	0.8007
3.139799999999994	0.0	+	1	noun	list	1	11	nomatch	grand	-1	1	y	0.8007
3.5397999999999996	0.0	+	1	noun	list	1	12	nomatch	grand	-1	1	y	0.8007
5.539599999999993	0.0	GRAND	1	noun	list	1	13	nomatch	grand	-1	1	y	0.8007
6.406199999999998	0.0	+	1	noun	list	1	14	nomatch	grand	-1	1	y	0.8007
6.340299999999999	0.0	[response]	1	noun	list	1	15	nomatch	grand	-1	1	y	0.8007
7.939499999999995	0.0	+	2	noun	phrase	1	1	nomatch	jade	-1	1	y	0.66714
8.48939999999999	0.2	sxktbr	2	noun	phrase	1	2	nomatch	jade	-1	1	y	0.66714
8.689399999999992	0.0	+	2	noun	phrase	1	3	nomatch	jade	-1	1	y	0.66714
9.089399999999998	0.2	cfwl	2	noun	phrase	1	4	nomatch	jade	-1	1	y	0.66714
9.2894	0.0	+	2	noun	phrase	1	5	nomatch	jade	-1	1	y	0.66714
9.689299999999989	0.2	zfj	2	noun	phrase	1	6	nomatch	jade	-1	1	y	0.66714
9.889299999999992	0.0	+	2	noun	phrase	1	7	nomatch	jade	-1	1	y	0.66714
10.289299999999997	0.2	srxqgvjf	2	noun	phrase	1	8	nomatch	jade	-1	1	y	0.66714
10.4893	0.0	+	2	noun	phrase	1	9	nomatch	jade	-1	1	y	0.66714
10.889199999999988	0.2	nouveau	2	noun	phrase	1	10	nomatch	jade	-1	1	y	0.66714
11.089199999999991	0.0	+	2	noun	phrase	1	11	nomatch	jade	-1	1	y	0.66714
11.489199999999997	0.0	+	2	noun	phrase	1	12	nomatch	jade	-1	1	y	0.66714
13.48899999999999	0.0	JADE	2	noun	phrase	1	13	nomatch	jade	-1	1	y	0.66714
14.22229999999999	0.0	+	2	noun	phrase	1	14	nomatch	jade	-1	1	y	0.66714
14.156199999999998	0.0	[response]	2	noun	phrase	1	15	nomatch	jade	-1	1	y	0.66714
15.88879999999999	0.0	+	3	noun	list	2	1	match	tablier	4	1	p	0.67398
16.4388	0.2	sjmx	3	noun	list	2	2	match	tablier	4	1	p	0.67398
16.63879999999999	0.0	+	3	noun	list	2	3	match	tablier	4	1	p	0.67398
17.038799999999995	0.2	bqsx	3	noun	list	2	4	match	tablier	4	1	p	0.67398
17.238699999999994	0.0	+	3	noun	list	2	5	match	tablier	4	1	p	0.67398
17.6387	0.2	clzr	3	noun	list	2	6	match	tablier	4	1	p	0.67398
17.83869999999999	0.0	+	3	noun	list	2	7	match	tablier	4	1	p	0.67398
18.238699999999994	0.2	tablier	3	noun	list	2	8	match	tablier	4	1	p	0.67398
18.438599999999994	0.0	+	3	noun	list	2	9	match	tablier	4	1	p	0.67398
18.8386	0.2	ainsi	3	noun	list	2	10	match	tablier	4	1	p	0.67398
19.038599999999988	0.0	+	3	noun	list	2	11	match	tablier	4	1	p	0.67398
19.438599999999994	0.0	+	3	noun	list	2	12	match	tablier	4	1	p	0.67398
21.438399999999987	0.0	TABLIER	3	noun	list	2	13	match	tablier	4	1	p	0.67398
22.171699999999987	0.0	+	3	noun	list	2	14	match	tablier	4	1	p	0.67398
22.112399999999994	0.0	[response]	3	noun	list	2	15	match	tablier	4	1	p	0.67398
23.8382	0.0	+	4	noun	list	1	1	match	moins	5	1	p	0.7351300000000001
24.388199999999998	0.2	mvsjnph	4	noun	list	1	2	match	moins	5	1	p	0.7351300000000001
24.5882	0.0	+	4	noun	list	1	3	match	moins	5	1	p	0.7351300000000001
24.98809999999999	0.2	vzfj	4	noun	list	1	4	match	moins	5	1	p	0.7351300000000001
25.18809999999999	0.0	+	4	noun	list	1	5	match	moins	5	1	p	0.7351300000000001
25.588099999999997	0.2	zfj	4	noun	list	1	6	match	moins	5	1	p	0.7351300000000001
25.7881	0.0	+	4	noun	list	1	7	match	moins	5	1	p	0.7351300000000001
26.187999999999988	0.2	zvhkjp	4	noun	list	1	8	match	moins	5	1	p	0.7351300000000001
26.38799999999999	0.0	+	4	noun	list	1	9	match	moins	5	1	p	0.7351300000000001
26.787999999999997	0.2	moins	4	noun	list	1	10	match	moins	5	1	p	0.7351300000000001
26.988	0.0	+	4	noun	list	1	11	match	moins	5	1	p	0.7351300000000001
27.38799999999999	0.0	+	4	noun	list	1	12	match	moins	5	1	p	0.7351300000000001
29.3878	0.0	MOINS	4	noun	list	1	13	match	moins	5	1	p	0.7351300000000001
30.187799999999996	0.0	+	4	noun	list	1	14	match	moins	5	1	p	0.7351300000000001
30.1229	0.0	[response]	4	noun	list	1	15	match	moins	5	1	p	0.7351300000000001
31.787599999999998	0.0	+	5	noun	list	1	1	nomatch	jongler	-1	1	y	0.9529700000000001
32.337599999999995	0.2	lhgzct	5	noun	list	1	2	nomatch	jongler	-1	1	y	0.9529700000000001
32.5376	0.0	+	5	noun	list	1	3	nomatch	jongler	-1	1	y	0.9529700000000001
32.9375	0.2	cfwl	5	noun	list	1	4	nomatch	jongler	-1	1	y	0.9529700000000001
33.13749999999999	0.0	+	5	noun	list	1	5	nomatch	jongler	-1	1	y	0.9529700000000001
33.537499999999994	0.2	clzr	5	noun	list	1	6	nomatch	jongler	-1	1	y	0.9529700000000001
33.7375	0.0	+	5	noun	list	1	7	nomatch	jongler	-1	1	y	0.9529700000000001
34.1374	0.2	jmrgfh	5	noun	list	1	8	nomatch	jongler	-1	1	y	0.9529700000000001
34.33739999999999	0.0	+	5	noun	list	1	9	nomatch	jongler	-1	1	y	0.9529700000000001
34.737399999999994	0.2	ainsi	5	noun	list	1	10	nomatch	jongler	-1	1	y	0.9529700000000001
34.9374	0.0	+	5	noun	list	1	11	nomatch	jongler	-1	1	y	0.9529700000000001
35.3373	0.0	+	5	noun	list	1	12	nomatch	jongler	-1	1	y	0.9529700000000001
37.337199999999996	0.0	JONGLER	5	noun	list	1	13	nomatch	jongler	-1	1	y	0.9529700000000001
38.35379999999999	0.0	+	5	noun	list	1	14	nomatch	jongler	-1	1	y	0.9529700000000001
38.2902	0.0	[response]	5	noun	list	1	15	nomatch	jongler	-1	1	y	0.9529700000000001
39.736999999999995	0.0	+	6	noun	phrase	3	1	match	grenier	5	1	p	0.84375
40.28699999999999	0.2	btk	6	noun	phrase	3	2	match	grenier	5	1	p	0.84375
40.48689999999999	0.0	+	6	noun	phrase	3	3	match	grenier	5	1	p	0.84375
40.8869	0.2	jcvb	6	noun	phrase	3	4	match	grenier	5	1	p	0.84375
41.0869	0.0	+	6	noun	phrase	3	5	match	grenier	5	1	p	0.84375
41.48689999999999	0.2	leur	6	noun	phrase	3	6	match	grenier	5	1	p	0.84375
41.686899999999994	0.0	+	6	noun	phrase	3	7	match	grenier	5	1	p	0.84375
42.0868	0.2	vieux	6	noun	phrase	3	8	match	grenier	5	1	p	0.84375
42.2868	0.0	+	6	noun	phrase	3	9	match	grenier	5	1	p	0.84375
42.6874	0.2	grenier	6	noun	phrase	3	10	match	grenier	5	1	p	0.84375
42.886799999999994	0.0	+	6	noun	phrase	3	11	match	grenier	5	1	p	0.84375
43.286699999999996	0.0	+	6	noun	phrase	3	12	match	grenier	5	1	p	0.84375
45.28659999999999	0.0	GRENIER	6	noun	phrase	3	13	match	grenier	5	1	p	0.84375
46.186499999999995	0.0	+	6	noun	phrase	3	14	match	grenier	5	1	p	0.84375
46.13029999999999	0.0	[response]	6	noun	phrase	3	15	match	grenier	5	1	p	0.84375
47.68639999999999	0.0	+	7	verb	phrase	3	1	match	peut	3	1	p	0.75498
48.23639999999999	0.2	qpbcwt	7	verb	phrase	3	2	match	peut	3	1	p	0.75498
48.43629999999999	0.0	+	7	verb	phrase	3	3	match	peut	3	1	p	0.75498
48.836299999999994	0.2	mpnw	7	verb	phrase	3	4	match	peut	3	1	p	0.75498
49.0363	0.0	+	7	verb	phrase	3	5	match	peut	3	1	p	0.75498
49.4363	0.2	peut	7	verb	phrase	3	6	match	peut	3	1	p	0.75498
49.63619999999999	0.0	+	7	verb	phrase	3	7	match	peut	3	1	p	0.75498
50.036199999999994	0.2	voyager	7	verb	phrase	3	8	match	peut	3	1	p	0.75498
50.23619999999998	0.0	+	7	verb	phrase	3	9	match	peut	3	1	p	0.75498
50.63619999999999	0.2	ainsi	7	verb	phrase	3	10	match	peut	3	1	p	0.75498
50.836200000000005	0.0	+	7	verb	phrase	3	11	match	peut	3	1	p	0.75498
51.23610000000001	0.0	+	7	verb	phrase	3	12	match	peut	3	1	p	0.75498
53.236000000000004	0.0	PEUT	7	verb	phrase	3	13	match	peut	3	1	p	0.75498
54.0526	0.0	+	7	verb	phrase	3	14	match	peut	3	1	p	0.75498
53.991	0.0	[response]	7	verb	phrase	3	15	match	peut	3	1	p	0.75498
63.63519999999998	0.0	+	8	noun	phrase	3	1	match	bleu	5	1	p	0.96601
64.18509999999999	0.2	mtbxrqd	8	noun	phrase	3	2	match	bleu	5	1	p	0.96601
64.38509999999998	0.0	+	8	noun	phrase	3	3	match	bleu	5	1	p	0.96601
64.78509999999999	0.2	bqsx	8	noun	phrase	3	4	match	bleu	5	1	p	0.96601
64.9851	0.0	+	8	noun	phrase	3	5	match	bleu	5	1	p	0.96601
65.385	0.2	leur	8	noun	phrase	3	6	match	bleu	5	1	p	0.96601
65.585	0.0	+	8	noun	phrase	3	7	match	bleu	5	1	p	0.96601
65.985	0.2	casier	8	noun	phrase	3	8	match	bleu	5	1	p	0.96601
66.18499999999999	0.0	+	8	noun	phrase	3	9	match	bleu	5	1	p	0.96601
66.58489999999999	0.2	bleu	8	noun	phrase	3	10	match	bleu	5	1	p	0.96601
66.78490000000001	0.0	+	8	noun	phrase	3	11	match	bleu	5	1	p	0.96601
67.18489999999998	0.0	+	8	noun	phrase	3	12	match	bleu	5	1	p	0.96601
69.20139999999999	0.0	BLEU	8	noun	phrase	3	13	match	bleu	5	1	p	0.96601
70.23469999999999	0.0	+	8	noun	phrase	3	14	match	bleu	5	1	p	0.96601
70.1674	0.0	[response]	8	noun	phrase	3	15	match	bleu	5	1	p	0.96601
71.60119999999999	0.0	+	9	noun	list	4	1	nomatch	luc	-1	1	y	1.2095
72.1512	0.2	zpb	9	noun	list	4	2	nomatch	luc	-1	1	y	1.2095
72.35119999999999	0.0	+	9	noun	list	4	3	nomatch	luc	-1	1	y	1.2095
72.7511	0.2	sans	9	noun	list	4	4	nomatch	luc	-1	1	y	1.2095
72.95109999999998	0.0	+	9	noun	list	4	5	nomatch	luc	-1	1	y	1.2095
73.35109999999999	0.2	doit	9	noun	list	4	6	nomatch	luc	-1	1	y	1.2095
73.5511	0.0	+	9	noun	list	4	7	nomatch	luc	-1	1	y	1.2095
73.95100000000001	0.2	panier	9	noun	list	4	8	nomatch	luc	-1	1	y	1.2095
74.151	0.0	+	9	noun	list	4	9	nomatch	luc	-1	1	y	1.2095
74.551	0.2	loin	9	noun	list	4	10	nomatch	luc	-1	1	y	1.2095
74.75099999999999	0.0	+	9	noun	list	4	11	nomatch	luc	-1	1	y	1.2095
75.151	0.0	+	9	noun	list	4	12	nomatch	luc	-1	1	y	1.2095
77.15079999999999	0.0	LUC	9	noun	list	4	13	nomatch	luc	-1	1	y	1.2095
78.4174	0.0	+	9	noun	list	4	14	nomatch	luc	-1	1	y	1.2095
78.36029999999998	0.0	[response]	9	noun	list	4	15	nomatch	luc	-1	1	y	1.2095
79.55059999999999	0.0	+	10	verb	list	1	1	nomatch	leur	-1	1	y	1.1022
80.1006	0.2	vslhnf	10	verb	list	1	2	nomatch	leur	-1	1	y	1.1022
80.30059999999999	0.0	+	10	verb	list	1	3	nomatch	leur	-1	1	y	1.1022
80.70049999999999	0.2	rpcx	10	verb	list	1	4	nomatch	leur	-1	1	y	1.1022
80.90049999999998	0.0	+	10	verb	list	1	5	nomatch	leur	-1	1	y	1.1022
81.30049999999999	0.2	zfj	10	verb	list	1	6	nomatch	leur	-1	1	y	1.1022
81.5005	0.0	+	10	verb	list	1	7	nomatch	leur	-1	1	y	1.1022
81.9004	0.2	zghfw	10	verb	list	1	8	nomatch	leur	-1	1	y	1.1022
82.1004	0.0	+	10	verb	list	1	9	nomatch	leur	-1	1	y	1.1022
82.5004	0.2	jongler	10	verb	list	1	10	nomatch	leur	-1	1	y	1.1022
82.70039999999999	0.0	+	10	verb	list	1	11	nomatch	leur	-1	1	y	1.1022
83.10029999999999	0.0	+	10	verb	list	1	12	nomatch	leur	-1	1	y	1.1022
85.10019999999999	0.0	LEUR	10	verb	list	1	13	nomatch	leur	-1	1	y	1.1022
86.2668	0.0	+	10	verb	list	1	14	nomatch	leur	-1	1	y	1.1022
86.2023	0.0	[response]	10	verb	list	1	15	nomatch	leur	-1	1	y	1.1022
87.49999999999999	0.0	+	11	noun	list	2	1	nomatch	blanc	-1	1	y	1.8566000000000003
88.05	0.2	wnhgcr	11	noun	list	2	2	nomatch	blanc	-1	1	y	1.8566000000000003
88.24989999999998	0.0	+	11	noun	list	2	3	nomatch	blanc	-1	1	y	1.8566000000000003
88.64989999999999	0.2	cfwl	11	noun	list	2	4	nomatch	blanc	-1	1	y	1.8566000000000003
88.8499	0.0	+	11	noun	list	2	5	nomatch	blanc	-1	1	y	1.8566000000000003
89.24989999999998	0.2	clzr	11	noun	list	2	6	nomatch	blanc	-1	1	y	1.8566000000000003
89.4498	0.0	+	11	noun	list	2	7	nomatch	blanc	-1	1	y	1.8566000000000003
89.8498	0.2	panier	11	noun	list	2	8	nomatch	blanc	-1	1	y	1.8566000000000003
90.04979999999999	0.0	+	11	noun	list	2	9	nomatch	blanc	-1	1	y	1.8566000000000003
90.4498	0.2	tard	11	noun	list	2	10	nomatch	blanc	-1	1	y	1.8566000000000003
90.64979999999998	0.0	+	11	noun	list	2	11	nomatch	blanc	-1	1	y	1.8566000000000003
91.04969999999999	0.0	+	11	noun	list	2	12	nomatch	blanc	-1	1	y	1.8566000000000003
93.04959999999998	0.0	BLANC	11	noun	list	2	13	nomatch	blanc	-1	1	y	1.8566000000000003
94.9661	0.0	+	11	noun	list	2	14	nomatch	blanc	-1	1	y	1.8566000000000003
94.90620000000003	0.0	[response]	11	noun	list	2	15	nomatch	blanc	-1	1	y	1.8566000000000003
95.44939999999998	0.0	+	12	noun	phrase	3	1	nomatch	parader	-1	1	y	0.79603
95.99929999999999	0.2	rvp	12	noun	phrase	3	2	nomatch	parader	-1	1	y	0.79603
96.19929999999998	0.0	+	12	noun	phrase	3	3	nomatch	parader	-1	1	y	0.79603
96.59929999999999	0.2	jztp	12	noun	phrase	3	4	nomatch	parader	-1	1	y	0.79603
96.7993	0.0	+	12	noun	phrase	3	5	nomatch	parader	-1	1	y	0.79603
97.19929999999998	0.2	son	12	noun	phrase	3	6	nomatch	parader	-1	1	y	0.79603
97.3992	0.0	+	12	noun	phrase	3	7	nomatch	parader	-1	1	y	0.79603
97.7992	0.2	tablier	12	noun	phrase	3	8	nomatch	parader	-1	1	y	0.79603
97.99919999999999	0.0	+	12	noun	phrase	3	9	nomatch	parader	-1	1	y	0.79603
98.3992	0.2	noir	12	noun	phrase	3	10	nomatch	parader	-1	1	y	0.79603
98.5991	0.0	+	12	noun	phrase	3	11	nomatch	parader	-1	1	y	0.79603
98.99909999999998	0.0	+	12	noun	phrase	3	12	nomatch	parader	-1	1	y	0.79603
100.99899999999998	0.0	PARADER	12	noun	phrase	3	13	nomatch	parader	-1	1	y	0.79603
101.86559999999999	0.0	+	12	noun	phrase	3	14	nomatch	parader	-1	1	y	0.79603
101.795	0.0	[response]	12	noun	phrase	3	15	nomatch	parader	-1	1	y	0.79603
103.39879999999998	0.0	+	13	noun	phrase	4	1	match	sablier	4	1	p	0.6726000000000001
103.94869999999999	0.2	zfqkcl	13	noun	phrase	4	2	match	sablier	4	1	p	0.6726000000000001
104.1487	0.0	+	13	noun	phrase	4	3	match	sablier	4	1	p	0.6726000000000001
104.54869999999998	0.2	avec	13	noun	phrase	4	4	match	sablier	4	1	p	0.6726000000000001
104.7487	0.0	+	13	noun	phrase	4	5	match	sablier	4	1	p	0.6726000000000001
105.1486	0.2	leur	13	noun	phrase	4	6	match	sablier	4	1	p	0.6726000000000001
105.34859999999999	0.0	+	13	noun	phrase	4	7	match	sablier	4	1	p	0.6726000000000001
105.7486	0.2	sablier	13	noun	phrase	4	8	match	sablier	4	1	p	0.6726000000000001
105.94859999999998	0.0	+	13	noun	phrase	4	9	match	sablier	4	1	p	0.6726000000000001
106.34849999999999	0.2	bleu	13	noun	phrase	4	10	match	sablier	4	1	p	0.6726000000000001
106.5485	0.0	+	13	noun	phrase	4	11	match	sablier	4	1	p	0.6726000000000001
106.94849999999998	0.0	+	13	noun	phrase	4	12	match	sablier	4	1	p	0.6726000000000001
108.9483	0.0	SABLIER	13	noun	phrase	4	13	match	sablier	4	1	p	0.6726000000000001
109.68159999999999	0.0	+	13	noun	phrase	4	14	match	sablier	4	1	p	0.6726000000000001
109.62089999999999	0.0	[response]	13	noun	phrase	4	15	match	sablier	4	1	p	0.6726000000000001
119.34749999999998	0.0	+	14	noun	phrase	1	1	match	clavier	5	1	p	0.86563
119.8975	0.2	kqp	14	noun	phrase	1	2	match	clavier	5	1	p	0.86563
120.09749999999998	0.0	+	14	noun	phrase	1	3	match	clavier	5	1	p	0.86563
120.49749999999999	0.2	jztp	14	noun	phrase	1	4	match	clavier	5	1	p	0.86563
120.6974	0.0	+	14	noun	phrase	1	5	match	clavier	5	1	p	0.86563
121.09740000000001	0.2	nlfk	14	noun	phrase	1	6	match	clavier	5	1	p	0.86563
121.2974	0.0	+	14	noun	phrase	1	7	match	clavier	5	1	p	0.86563
121.6974	0.2	zghfw	14	noun	phrase	1	8	match	clavier	5	1	p	0.86563
121.89729999999999	0.0	+	14	noun	phrase	1	9	match	clavier	5	1	p	0.86563
122.29729999999999	0.2	clavier	14	noun	phrase	1	10	match	clavier	5	1	p	0.86563
122.49729999999998	0.0	+	14	noun	phrase	1	11	match	clavier	5	1	p	0.86563
122.89729999999999	0.0	+	14	noun	phrase	1	12	match	clavier	5	1	p	0.86563
124.89709999999998	0.0	CLAVIER	14	noun	phrase	1	13	match	clavier	5	1	p	0.86563
125.83039999999998	0.0	+	14	noun	phrase	1	14	match	clavier	5	1	p	0.86563
125.76279999999998	0.0	[response]	14	noun	phrase	1	15	match	clavier	5	1	p	0.86563
127.29689999999998	0.0	+	15	noun	list	1	1	match	cendrier	5	1	p	1.1274
127.84689999999999	0.2	btgmx	15	noun	list	1	2	match	cendrier	5	1	p	1.1274
128.0469	0.0	+	15	noun	list	1	3	match	cendrier	5	1	p	1.1274
128.4468	0.2	vzfj	15	noun	list	1	4	match	cendrier	5	1	p	1.1274
128.64679999999998	0.0	+	15	noun	list	1	5	match	cendrier	5	1	p	1.1274
129.04680000000002	0.2	zfj	15	noun	list	1	6	match	cendrier	5	1	p	1.1274
129.2468	0.0	+	15	noun	list	1	7	match	cendrier	5	1	p	1.1274
129.64679999999998	0.2	txmjk	15	noun	list	1	8	match	cendrier	5	1	p	1.1274
129.8467	0.0	+	15	noun	list	1	9	match	cendrier	5	1	p	1.1274
130.24669999999998	0.2	cendrier	15	noun	list	1	10	match	cendrier	5	1	p	1.1274
130.44670000000002	0.0	+	15	noun	list	1	11	match	cendrier	5	1	p	1.1274
130.8467	0.0	+	15	noun	list	1	12	match	cendrier	5	1	p	1.1274
132.8465	0.0	CENDRIER	15	noun	list	1	13	match	cendrier	5	1	p	1.1274
134.0297	0.0	+	15	noun	list	1	14	match	cendrier	5	1	p	1.1274
133.97390000000001	0.0	[response]	15	noun	list	1	15	match	cendrier	5	1	p	1.1274
135.24630000000002	0.0	+	16	noun	list	1	1	match	loin	5	1	p	0.9412400000000001
135.79629999999997	0.2	lksfvnr	16	noun	list	1	2	match	loin	5	1	p	0.9412400000000001
135.99630000000002	0.0	+	16	noun	list	1	3	match	loin	5	1	p	0.9412400000000001
136.39620000000002	0.2	cfwl	16	noun	list	1	4	match	loin	5	1	p	0.9412400000000001
136.5962	0.0	+	16	noun	list	1	5	match	loin	5	1	p	0.9412400000000001
136.9962	0.2	tw	16	noun	list	1	6	match	loin	5	1	p	0.9412400000000001
137.19619999999998	0.0	+	16	noun	list	1	7	match	loin	5	1	p	0.9412400000000001
137.59609999999998	0.2	zcmdkht	16	noun	list	1	8	match	loin	5	1	p	0.9412400000000001
137.79609999999997	0.0	+	16	noun	list	1	9	match	loin	5	1	p	0.9412400000000001
138.1961	0.2	loin	16	noun	list	1	10	match	loin	5	1	p	0.9412400000000001
138.3961	0.0	+	16	noun	list	1	11	match	loin	5	1	p	0.9412400000000001
138.79609999999997	0.0	+	16	noun	list	1	12	match	loin	5	1	p	0.9412400000000001
140.79590000000002	0.0	LOIN	16	noun	list	1	13	match	loin	5	1	p	0.9412400000000001
141.79579999999999	0.0	+	16	noun	list	1	14	match	loin	5	1	p	0.9412400000000001
141.7371	0.0	[response]	16	noun	list	1	15	match	loin	5	1	p	0.9412400000000001
143.1957	0.0	+	17	noun	phrase	2	1	nomatch	mon	-1	1	y	1.8677
143.7457	0.2	pznr	17	noun	phrase	2	2	nomatch	mon	-1	1	y	1.8677
143.9457	0.0	+	17	noun	phrase	2	3	nomatch	mon	-1	1	y	1.8677
144.3456	0.2	qrgw	17	noun	phrase	2	4	nomatch	mon	-1	1	y	1.8677
144.54559999999998	0.0	+	17	noun	phrase	2	5	nomatch	mon	-1	1	y	1.8677
144.9456	0.2	stm	17	noun	phrase	2	6	nomatch	mon	-1	1	y	1.8677
145.1456	0.0	+	17	noun	phrase	2	7	nomatch	mon	-1	1	y	1.8677
145.5455	0.2	rocher	17	noun	phrase	2	8	nomatch	mon	-1	1	y	1.8677
145.7455	0.0	+	17	noun	phrase	2	9	nomatch	mon	-1	1	y	1.8677
146.14549999999997	0.2	vert	17	noun	phrase	2	10	nomatch	mon	-1	1	y	1.8677
146.34550000000002	0.0	+	17	noun	phrase	2	11	nomatch	mon	-1	1	y	1.8677
146.74540000000002	0.0	+	17	noun	phrase	2	12	nomatch	mon	-1	1	y	1.8677
148.7453	0.0	MON	17	noun	phrase	2	13	nomatch	mon	-1	1	y	1.8677
150.67849999999999	0.0	+	17	noun	phrase	2	14	nomatch	mon	-1	1	y	1.8677
150.613	0.0	[response]	17	noun	phrase	2	15	nomatch	mon	-1	1	y	1.8677
151.1451	0.0	+	18	verb	list	4	1	nomatch	peut	-1	1	y	2.1670000000000003
151.69509999999997	0.2	clbdg	18	verb	list	4	2	nomatch	peut	-1	1	y	2.1670000000000003
151.89499999999998	0.0	+	18	verb	list	4	3	nomatch	peut	-1	1	y	2.1670000000000003
152.29500000000002	0.2	sans	18	verb	list	4	4	nomatch	peut	-1	1	y	2.1670000000000003
152.495	0.0	+	18	verb	list	4	5	nomatch	peut	-1	1	y	2.1670000000000003
152.89499999999998	0.2	doit	18	verb	list	4	6	nomatch	peut	-1	1	y	2.1670000000000003
153.0949	0.0	+	18	verb	list	4	7	nomatch	peut	-1	1	y	2.1670000000000003
153.49489999999997	0.2	petit	18	verb	list	4	8	nomatch	peut	-1	1	y	2.1670000000000003
153.69490000000002	0.0	+	18	verb	list	4	9	nomatch	peut	-1	1	y	2.1670000000000003
154.0949	0.2	parader	18	verb	list	4	10	nomatch	peut	-1	1	y	2.1670000000000003
154.29489999999998	0.0	+	18	verb	list	4	11	nomatch	peut	-1	1	y	2.1670000000000003
154.6948	0.0	+	18	verb	list	4	12	nomatch	peut	-1	1	y	2.1670000000000003
156.6947	0.0	PEUT	18	verb	list	4	13	nomatch	peut	-1	1	y	2.1670000000000003
158.9278	0.0	+	18	verb	list	4	14	nomatch	peut	-1	1	y	2.1670000000000003
158.86170000000004	0.0	[response]	18	verb	list	4	15	nomatch	peut	-1	1	y	2.1670000000000003
159.09449999999998	0.0	+	19	noun	list	2	1	nomatch	clavier	-1	1	y	1.4127
159.64440000000002	0.2	vpz	19	noun	list	2	2	nomatch	clavier	-1	1	y	1.4127
159.8444	0.0	+	19	noun	list	2	3	nomatch	clavier	-1	1	y	1.4127
160.24439999999998	0.2	bjlw	19	noun	list	2	4	nomatch	clavier	-1	1	y	1.4127
160.44439999999997	0.0	+	19	noun	list	2	5	nomatch	clavier	-1	1	y	1.4127
160.8444	0.2	stm	19	noun	list	2	6	nomatch	clavier	-1	1	y	1.4127
161.04430000000002	0.0	+	19	noun	list	2	7	nomatch	clavier	-1	1	y	1.4127
161.4443	0.2	plus	19	noun	list	2	8	nomatch	clavier	-1	1	y	1.4127
161.6443	0.0	+	19	noun	list	2	9	nomatch	clavier	-1	1	y	1.4127
162.04430000000002	0.2	panier	19	noun	list	2	10	nomatch	clavier	-1	1	y	1.4127
162.2443	0.0	+	19	noun	list	2	11	nomatch	clavier	-1	1	y	1.4127
162.6442	0.0	+	19	noun	list	2	12	nomatch	clavier	-1	1	y	1.4127
164.64409999999998	0.0	CLAVIER	19	noun	list	2	13	nomatch	clavier	-1	1	y	1.4127
166.1273	0.0	+	19	noun	list	2	14	nomatch	clavier	-1	1	y	1.4127
166.0568	0.0	[response]	19	noun	list	2	15	nomatch	clavier	-1	1	y	1.4127
167.0439	0.0	+	20	noun	phrase	4	1	match	noir	5	1	p	1.125
167.5938	0.2	gbd	20	noun	phrase	4	2	match	noir	5	1	p	1.125
167.79379999999998	0.0	+	20	noun	phrase	4	3	match	noir	5	1	p	1.125
168.1938	0.2	sur	20	noun	phrase	4	4	match	noir	5	1	p	1.125
168.3938	0.0	+	20	noun	phrase	4	5	match	noir	5	1	p	1.125
168.7937	0.2	son	20	noun	phrase	4	6	match	noir	5	1	p	1.125
168.9937	0.0	+	20	noun	phrase	4	7	match	noir	5	1	p	1.125
169.39369999999997	0.2	grenier	20	noun	phrase	4	8	match	noir	5	1	p	1.125
169.5937	0.0	+	20	noun	phrase	4	9	match	noir	5	1	p	1.125
169.99360000000001	0.2	noir	20	noun	phrase	4	10	match	noir	5	1	p	1.125
170.1936	0.0	+	20	noun	phrase	4	11	match	noir	5	1	p	1.125
170.59359999999998	0.0	+	20	noun	phrase	4	12	match	noir	5	1	p	1.125
172.59339999999997	0.0	NOIR	20	noun	phrase	4	13	match	noir	5	1	p	1.125
173.7767	0.0	+	20	noun	phrase	4	14	match	noir	5	1	p	1.125
173.71839999999997	0.0	[response]	20	noun	phrase	4	15	match	noir	5	1	p	1.125
174.99329999999998	0.0	+	21	noun	phrase	4	1	match	rocher	4	0	y	1.0148
175.5432	0.2	gwqnr	21	noun	phrase	4	2	match	rocher	4	0	y	1.0148
175.7432	0.0	+	21	noun	phrase	4	3	match	rocher	4	0	y	1.0148
176.14319999999998	0.2	sous	21	noun	phrase	4	4	match	rocher	4	0	y	1.0148
176.34319999999997	0.0	+	21	noun	phrase	4	5	match	rocher	4	0	y	1.0148
176.74309999999997	0.2	mon	21	noun	phrase	4	6	match	rocher	4	0	y	1.0148
176.94310000000002	0.0	+	21	noun	phrase	4	7	match	rocher	4	0	y	1.0148
177.3431	0.2	rocher	21	noun	phrase	4	8	match	rocher	4	0	y	1.0148
177.54309999999998	0.0	+	21	noun	phrase	4	9	match	rocher	4	0	y	1.0148
177.94299999999998	0.2	vert	21	noun	phrase	4	10	match	rocher	4	0	y	1.0148
178.14300000000003	0.0	+	21	noun	phrase	4	11	match	rocher	4	0	y	1.0148
178.543	0.0	+	21	noun	phrase	4	12	match	rocher	4	0	y	1.0148
180.5428	0.0	ROCHER	21	noun	phrase	4	13	match	rocher	4	0	y	1.0148
181.6261	0.0	+	21	noun	phrase	4	14	match	rocher	4	0	y	1.0148
181.55759999999998	0.0	[response]	21	noun	phrase	4	15	match	rocher	4	0	y	1.0148
182.94260000000003	0.0	+	22	noun	list	3	1	match	sablier	5	0	y	0.8905900000000001
183.49259999999998	0.2	qnvxfsp	22	noun	list	3	2	match	sablier	5	0	y	0.8905900000000001
183.69260000000003	0.0	+	22	noun	list	3	3	match	sablier	5	0	y	0.8905900000000001
184.0926	0.2	lnjw	22	noun	list	3	4	match	sablier	5	0	y	0.8905900000000001
184.29250000000002	0.0	+	22	noun	list	3	5	match	sablier	5	0	y	0.8905900000000001
184.6925	0.2	son	22	noun	list	3	6	match	sablier	5	0	y	0.8905900000000001
184.89249999999998	0.0	+	22	noun	list	3	7	match	sablier	5	0	y	0.8905900000000001
185.29250000000002	0.2	trop	22	noun	list	3	8	match	sablier	5	0	y	0.8905900000000001
185.4925	0.0	+	22	noun	list	3	9	match	sablier	5	0	y	0.8905900000000001
185.8924	0.2	sablier	22	noun	list	3	10	match	sablier	5	0	y	0.8905900000000001
186.0924	0.0	+	22	noun	list	3	11	match	sablier	5	0	y	0.8905900000000001
186.49240000000003	0.0	+	22	noun	list	3	12	match	sablier	5	0	y	0.8905900000000001
188.49220000000003	0.0	SABLIER	22	noun	list	3	13	match	sablier	5	0	y	0.8905900000000001
189.44209999999998	0.0	+	22	noun	list	3	14	match	sablier	5	0	y	0.8905900000000001
189.38280000000003	0.0	[response]	22	noun	list	3	15	match	sablier	5	0	y	0.8905900000000001
198.89140000000003	0.0	+	23	noun	list	1	1	match	rocher	5	1	p	2.1725
199.4414	0.2	hwqf	23	noun	list	1	2	match	rocher	5	1	p	2.1725
199.64140000000003	0.0	+	23	noun	list	1	3	match	rocher	5	1	p	2.1725
200.04130000000004	0.2	vzfj	23	noun	list	1	4	match	rocher	5	1	p	2.1725
200.24130000000002	0.0	+	23	noun	list	1	5	match	rocher	5	1	p	2.1725
200.6413	0.2	nlfk	23	noun	list	1	6	match	rocher	5	1	p	2.1725
200.8413	0.0	+	23	noun	list	1	7	match	rocher	5	1	p	2.1725
201.2412	0.2	xnkl	23	noun	list	1	8	match	rocher	5	1	p	2.1725
201.44119999999998	0.0	+	23	noun	list	1	9	match	rocher	5	1	p	2.1725
201.84120000000001	0.2	rocher	23	noun	list	1	10	match	rocher	5	1	p	2.1725
202.0412	0.0	+	23	noun	list	1	11	match	rocher	5	1	p	2.1725
202.4411	0.0	+	23	noun	list	1	12	match	rocher	5	1	p	2.1725
204.44100000000003	0.0	ROCHER	23	noun	list	1	13	match	rocher	5	1	p	2.1725
206.6741	0.0	+	23	noun	list	1	14	match	rocher	5	1	p	2.1725
206.6135	0.0	[response]	23	noun	list	1	15	match	rocher	5	1	p	2.1725
206.8408	0.0	+	24	verb	list	3	1	match	mon	3	1	p	0.77289
207.3908	0.2	gvxh	24	verb	list	3	2	match	mon	3	1	p	0.77289
207.5908	0.0	+	24	verb	list	3	3	match	mon	3	1	p	0.77289
207.9907	0.2	mpnw	24	verb	list	3	4	match	mon	3	1	p	0.77289
208.1907	0.0	+	24	verb	list	3	5	match	mon	3	1	p	0.77289
208.59070000000003	0.2	mon	24	verb	list	3	6	match	mon	3	1	p	0.77289
208.79070000000002	0.0	+	24	verb	list	3	7	match	mon	3	1	p	0.77289
209.19060000000002	0.2	danser	24	verb	list	3	8	match	mon	3	1	p	0.77289
209.3906	0.0	+	24	verb	list	3	9	match	mon	3	1	p	0.77289
209.79059999999998	0.2	vert	24	verb	list	3	10	match	mon	3	1	p	0.77289
209.99060000000003	0.0	+	24	verb	list	3	11	match	mon	3	1	p	0.77289
210.39050000000003	0.0	+	24	verb	list	3	12	match	mon	3	1	p	0.77289
212.3904	0.0	MON	24	verb	list	3	13	match	mon	3	1	p	0.77289
213.22360000000003	0.0	+	24	verb	list	3	14	match	mon	3	1	p	0.77289
213.1633	0.0	[response]	24	verb	list	3	15	match	mon	3	1	p	0.77289
214.79020000000003	0.0	+	25	noun	list	1	1	match	sablier	5	1	p	0.6294400000000001
215.34019999999998	0.2	thzrmsf	25	noun	list	1	2	match	sablier	5	1	p	0.6294400000000001
215.5401	0.0	+	25	noun	list	1	3	match	sablier	5	1	p	0.6294400000000001
215.94010000000003	0.2	cfwl	25	noun	list	1	4	match	sablier	5	1	p	0.6294400000000001
216.14010000000002	0.0	+	25	noun	list	1	5	match	sablier	5	1	p	0.6294400000000001
216.5401	0.2	tw	25	noun	list	1	6	match	sablier	5	1	p	0.6294400000000001
216.74	0.0	+	25	noun	list	1	7	match	sablier	5	1	p	0.6294400000000001
217.14	0.2	wtbhj	25	noun	list	1	8	match	sablier	5	1	p	0.6294400000000001
217.34000000000003	0.0	+	25	noun	list	1	9	match	sablier	5	1	p	0.6294400000000001
217.74	0.2	sablier	25	noun	list	1	10	match	sablier	5	1	p	0.6294400000000001
217.94	0.0	+	25	noun	list	1	11	match	sablier	5	1	p	0.6294400000000001
218.3399	0.0	+	25	noun	list	1	12	match	sablier	5	1	p	0.6294400000000001
220.33980000000003	0.0	SABLIER	25	noun	list	1	13	match	sablier	5	1	p	0.6294400000000001
221.03969999999998	0.0	+	25	noun	list	1	14	match	sablier	5	1	p	0.6294400000000001
220.9692	0.0	[response]	25	noun	list	1	15	match	sablier	5	1	p	0.6294400000000001
230.73900000000003	0.0	+	26	verb	list	1	1	nomatch	tablier	-1	1	y	0.72002
231.2889	0.2	xwkr	26	verb	list	1	2	nomatch	tablier	-1	1	y	0.72002
231.4889	0.0	+	26	verb	list	1	3	nomatch	tablier	-1	1	y	0.72002
231.88890000000004	0.2	bjlw	26	verb	list	1	4	nomatch	tablier	-1	1	y	0.72002
232.08890000000002	0.0	+	26	verb	list	1	5	nomatch	tablier	-1	1	y	0.72002
232.48880000000003	0.2	nlfk	26	verb	list	1	6	nomatch	tablier	-1	1	y	0.72002
232.68880000000001	0.0	+	26	verb	list	1	7	nomatch	tablier	-1	1	y	0.72002
233.0888	0.2	dqlmcfg	26	verb	list	1	8	nomatch	tablier	-1	1	y	0.72002
233.28879999999998	0.0	+	26	verb	list	1	9	nomatch	tablier	-1	1	y	0.72002
233.68869999999998	0.2	vert	26	verb	list	1	10	nomatch	tablier	-1	1	y	0.72002
233.88870000000003	0.0	+	26	verb	list	1	11	nomatch	tablier	-1	1	y	0.72002
234.2887	0.0	+	26	verb	list	1	12	nomatch	tablier	-1	1	y	0.72002
236.2885	0.0	TABLIER	26	verb	list	1	13	nomatch	tablier	-1	1	y	0.72002
237.0718	0.0	+	26	verb	list	1	14	nomatch	tablier	-1	1	y	0.72002
237.0086	0.0	[response]	26	verb	list	1	15	nomatch	tablier	-1	1	y	0.72002
238.6884	0.0	+	27	noun	list	4	1	match	jade	2	1	p	1.0393
239.23829999999998	0.2	vdqlb	27	noun	list	4	2	match	jade	2	1	p	1.0393
239.43830000000003	0.0	+	27	noun	list	4	3	match	jade	2	1	p	1.0393
239.8383	0.2	jade	27	noun	list	4	4	match	jade	2	1	p	1.0393
240.0383	0.0	+	27	noun	list	4	5	match	jade	2	1	p	1.0393
240.4382	0.2	leur	27	noun	list	4	6	match	jade	2	1	p	1.0393
240.63819999999998	0.0	+	27	noun	list	4	7	match	jade	2	1	p	1.0393
241.03820000000002	0.2	moins	27	noun	list	4	8	match	jade	2	1	p	1.0393
241.2382	0.0	+	27	noun	list	4	9	match	jade	2	1	p	1.0393
241.6381	0.2	sablier	27	noun	list	4	10	match	jade	2	1	p	1.0393
241.8381	0.0	+	27	noun	list	4	11	match	jade	2	1	p	1.0393
242.23810000000003	0.0	+	27	noun	list	4	12	match	jade	2	1	p	1.0393
244.23790000000002	0.0	JADE	27	noun	list	4	13	match	jade	2	1	p	1.0393
245.33780000000002	0.0	+	27	noun	list	4	14	match	jade	2	1	p	1.0393
245.2772	0.0	[response]	27	noun	list	4	15	match	jade	2	1	p	1.0393
246.6377	0.0	+	28	noun	phrase	1	1	match	vert	5	1	p	1.3253
247.1877	0.2	fkj	28	noun	phrase	1	2	match	vert	5	1	p	1.3253
247.3877	0.0	+	28	noun	phrase	1	3	match	vert	5	1	p	1.3253
247.78770000000003	0.2	cfwl	28	noun	phrase	1	4	match	vert	5	1	p	1.3253
247.9876	0.0	+	28	noun	phrase	1	5	match	vert	5	1	p	1.3253
248.38760000000002	0.2	nlfk	28	noun	phrase	1	6	match	vert	5	1	p	1.3253
248.5876	0.0	+	28	noun	phrase	1	7	match	vert	5	1	p	1.3253
248.9876	0.2	tsrndmj	28	noun	phrase	1	8	match	vert	5	1	p	1.3253
249.1875	0.0	+	28	noun	phrase	1	9	match	vert	5	1	p	1.3253
249.58750000000003	0.2	vert	28	noun	phrase	1	10	match	vert	5	1	p	1.3253
249.78750000000002	0.0	+	28	noun	phrase	1	11	match	vert	5	1	p	1.3253
250.1875	0.0	+	28	noun	phrase	1	12	match	vert	5	1	p	1.3253
252.1873	0.0	VERT	28	noun	phrase	1	13	match	vert	5	1	p	1.3253
253.57049999999998	0.0	+	28	noun	phrase	1	14	match	vert	5	1	p	1.3253
253.5127	0.0	[response]	28	noun	phrase	1	15	match	vert	5	1	p	1.3253
254.58710000000002	0.0	+	29	noun	list	3	1	nomatch	clavier	-1	1	y	1.09
255.13710000000003	0.2	wvnq	29	noun	list	3	2	nomatch	clavier	-1	1	y	1.09
255.33710000000002	0.0	+	29	noun	list	3	3	nomatch	clavier	-1	1	y	1.09
255.73700000000002	0.2	lnjw	29	noun	list	3	4	nomatch	clavier	-1	1	y	1.09
255.937	0.0	+	29	noun	list	3	5	nomatch	clavier	-1	1	y	1.09
256.337	0.2	son	29	noun	list	3	6	nomatch	clavier	-1	1	y	1.09
256.53700000000003	0.0	+	29	noun	list	3	7	nomatch	clavier	-1	1	y	1.09
256.937	0.2	plus	29	noun	list	3	8	nomatch	clavier	-1	1	y	1.09
257.1369	0.0	+	29	noun	list	3	9	nomatch	clavier	-1	1	y	1.09
257.5369	0.2	rocher	29	noun	list	3	10	nomatch	clavier	-1	1	y	1.09
257.7369	0.0	+	29	noun	list	3	11	nomatch	clavier	-1	1	y	1.09
258.1369	0.0	+	29	noun	list	3	12	nomatch	clavier	-1	1	y	1.09
260.1367	0.0	CLAVIER	29	noun	list	3	13	nomatch	clavier	-1	1	y	1.09
261.2866	0.0	+	29	noun	list	3	14	nomatch	clavier	-1	1	y	1.09
261.2267	0.0	[response]	29	noun	list	3	15	nomatch	clavier	-1	1	y	1.09
262.5365	0.0	+	30	noun	phrase	2	1	nomatch	blanc	-1	1	y	0.93067
263.0865	0.2	mnrdhb	30	noun	phrase	2	2	nomatch	blanc	-1	1	y	0.93067
263.2865	0.0	+	30	noun	phrase	2	3	nomatch	blanc	-1	1	y	0.93067
263.6864	0.2	cfwl	30	noun	phrase	2	4	nomatch	blanc	-1	1	y	0.93067
263.8864	0.0	+	30	noun	phrase	2	5	nomatch	blanc	-1	1	y	0.93067
264.2864	0.2	nlfk	30	noun	phrase	2	6	nomatch	blanc	-1	1	y	0.93067
264.4864	0.0	+	30	noun	phrase	2	7	nomatch	blanc	-1	1	y	0.93067
264.8863	0.2	panier	30	noun	phrase	2	8	nomatch	blanc	-1	1	y	0.93067
265.0863	0.0	+	30	noun	phrase	2	9	nomatch	blanc	-1	1	y	0.93067
265.4863	0.2	bleu	30	noun	phrase	2	10	nomatch	blanc	-1	1	y	0.93067
265.6863	0.0	+	30	noun	phrase	2	11	nomatch	blanc	-1	1	y	0.93067
266.0862	0.0	+	30	noun	phrase	2	12	nomatch	blanc	-1	1	y	0.93067
268.0861	0.0	BLANC	30	noun	phrase	2	13	nomatch	blanc	-1	1	y	0.93067
269.086	0.0	+	30	noun	phrase	2	14	nomatch	blanc	-1	1	y	0.93067
269.0168	0.0	[response]	30	noun	phrase	2	15	nomatch	blanc	-1	1	y	0.93067
278.4853	0.0	+	31	noun	list	3	1	nomatch	va	-1	1	y	0.9819500000000001
279.03520000000003	0.2	lkrbjx	31	noun	list	3	2	nomatch	va	-1	1	y	0.9819500000000001
279.2352	0.0	+	31	noun	list	3	3	nomatch	va	-1	1	y	0.9819500000000001
279.6352	0.2	qlk	31	noun	list	3	4	nomatch	va	-1	1	y	0.9819500000000001
279.8352	0.0	+	31	noun	list	3	5	nomatch	va	-1	1	y	0.9819500000000001
280.2352	0.2	doit	31	noun	list	3	6	nomatch	va	-1	1	y	0.9819500000000001
280.43510000000003	0.0	+	31	noun	list	3	7	nomatch	va	-1	1	y	0.9819500000000001
280.8351	0.2	tablier	31	noun	list	3	8	nomatch	va	-1	1	y	0.9819500000000001
281.0351	0.0	+	31	noun	list	3	9	nomatch	va	-1	1	y	0.9819500000000001
281.43510000000003	0.2	ainsi	31	noun	list	3	10	nomatch	va	-1	1	y	0.9819500000000001
281.635	0.0	+	31	noun	list	3	11	nomatch	va	-1	1	y	0.9819500000000001
282.035	0.0	+	31	noun	list	3	12	nomatch	va	-1	1	y	0.9819500000000001
284.0349	0.0	VA	31	noun	list	3	13	nomatch	va	-1	1	y	0.9819500000000001
285.08480000000003	0.0	+	31	noun	list	3	14	nomatch	va	-1	1	y	0.9819500000000001
285.0168	0.0	[response]	31	noun	list	3	15	nomatch	va	-1	1	y	0.9819500000000001
286.4513	0.0	+	32	verb	list	1	1	nomatch	leur	-1	1	y	1.1033
287.0013	0.2	rbvxk	32	verb	list	1	2	nomatch	leur	-1	1	y	1.1033
287.2013	0.0	+	32	verb	list	1	3	nomatch	leur	-1	1	y	1.1033
287.6013	0.2	mpnw	32	verb	list	1	4	nomatch	leur	-1	1	y	1.1033
287.8012	0.0	+	32	verb	list	1	5	nomatch	leur	-1	1	y	1.1033
288.20120000000003	0.2	stm	32	verb	list	1	6	nomatch	leur	-1	1	y	1.1033
288.4012	0.0	+	32	verb	list	1	7	nomatch	leur	-1	1	y	1.1033
288.8012	0.2	wbrkncv	32	verb	list	1	8	nomatch	leur	-1	1	y	1.1033
289.0011	0.0	+	32	verb	list	1	9	nomatch	leur	-1	1	y	1.1033
289.4011	0.2	rouge	32	verb	list	1	10	nomatch	leur	-1	1	y	1.1033
289.60110000000003	0.0	+	32	verb	list	1	11	nomatch	leur	-1	1	y	1.1033
290.0011	0.0	+	32	verb	list	1	12	nomatch	leur	-1	1	y	1.1033
292.0009	0.0	LEUR	32	verb	list	1	13	nomatch	leur	-1	1	y	1.1033
293.1675	0.0	+	32	verb	list	1	14	nomatch	leur	-1	1	y	1.1033
293.1042	0.0	[response]	32	verb	list	1	15	nomatch	leur	-1	1	y	1.1033
294.40070000000003	0.0	+	33	noun	list	1	1	nomatch	nouveau	-1	1	y	1.2576000000000003
294.9507	0.2	shvwrd	33	noun	list	1	2	nomatch	nouveau	-1	1	y	1.2576000000000003
295.15070000000003	0.0	+	33	noun	list	1	3	nomatch	nouveau	-1	1	y	1.2576000000000003
295.5507	0.2	jztp	33	noun	list	1	4	nomatch	nouveau	-1	1	y	1.2576000000000003
295.7506	0.0	+	33	noun	list	1	5	nomatch	nouveau	-1	1	y	1.2576000000000003
296.1506	0.2	kbcr	33	noun	list	1	6	nomatch	nouveau	-1	1	y	1.2576000000000003
296.3506	0.0	+	33	noun	list	1	7	nomatch	nouveau	-1	1	y	1.2576000000000003
296.7505	0.2	cbsr	33	noun	list	1	8	nomatch	nouveau	-1	1	y	1.2576000000000003
296.95050000000003	0.0	+	33	noun	list	1	9	nomatch	nouveau	-1	1	y	1.2576000000000003
297.3505	0.2	grenier	33	noun	list	1	10	nomatch	nouveau	-1	1	y	1.2576000000000003
297.5505	0.0	+	33	noun	list	1	11	nomatch	nouveau	-1	1	y	1.2576000000000003
297.95050000000003	0.0	+	33	noun	list	1	12	nomatch	nouveau	-1	1	y	1.2576000000000003
299.9503	0.0	NOUVEAU	33	noun	list	1	13	nomatch	nouveau	-1	1	y	1.2576000000000003
301.2669	0.0	+	33	noun	list	1	14	nomatch	nouveau	-1	1	y	1.2576000000000003
301.2079	0.0	[response]	33	noun	list	1	15	nomatch	nouveau	-1	1	y	1.2576000000000003
302.3501	0.0	+	34	noun	list	4	1	nomatch	pour	-1	1	y	1.2947
302.9001	0.2	kwnfc	34	noun	list	4	2	nomatch	pour	-1	1	y	1.2947
303.1001	0.0	+	34	noun	list	4	3	nomatch	pour	-1	1	y	1.2947
303.5	0.2	paul	34	noun	list	4	4	nomatch	pour	-1	1	y	1.2947
303.7	0.0	+	34	noun	list	4	5	nomatch	pour	-1	1	y	1.2947
304.1	0.2	son	34	noun	list	4	6	nomatch	pour	-1	1	y	1.2947
304.3	0.0	+	34	noun	list	4	7	nomatch	pour	-1	1	y	1.2947
304.6999	0.2	moins	34	noun	list	4	8	nomatch	pour	-1	1	y	1.2947
304.8999	0.0	+	34	noun	list	4	9	nomatch	pour	-1	1	y	1.2947
305.2999	0.2	tablier	34	noun	list	4	10	nomatch	pour	-1	1	y	1.2947
305.4999	0.0	+	34	noun	list	4	11	nomatch	pour	-1	1	y	1.2947
305.8998	0.0	+	34	noun	list	4	12	nomatch	pour	-1	1	y	1.2947
307.8997	0.0	POUR	34	noun	list	4	13	nomatch	pour	-1	1	y	1.2947
309.2496	0.0	+	34	noun	list	4	14	nomatch	pour	-1	1	y	1.2947
309.19440000000003	0.0	[response]	34	noun	list	4	15	nomatch	pour	-1	1	y	1.2947
318.2989	0.0	+	35	verb	list	4	1	match	mon	3	0	y	1.07
318.8488	0.2	shk	35	verb	list	4	2	match	mon	3	0	y	1.07
319.0488	0.0	+	35	verb	list	4	3	match	mon	3	0	y	1.07
319.4488	0.2	marc	35	verb	list	4	4	match	mon	3	0	y	1.07
319.6488	0.0	+	35	verb	list	4	5	match	mon	3	0	y	1.07
320.0488	0.2	mon	35	verb	list	4	6	match	mon	3	0	y	1.07
320.2487	0.0	+	35	verb	list	4	7	match	mon	3	0	y	1.07
320.6487	0.2	plonger	35	verb	list	4	8	match	mon	3	0	y	1.07
320.8487	0.0	+	35	verb	list	4	9	match	mon	3	0	y	1.07
321.2503	0.2	blanc	35	verb	list	4	10	match	mon	3	0	y	1.07
321.44870000000003	0.0	+	35	verb	list	4	11	match	mon	3	0	y	1.07
321.84860000000003	0.0	+	35	verb	list	4	12	match	mon	3	0	y	1.07
323.8485	0.0	MON	35	verb	list	4	13	match	mon	3	0	y	1.07
324.9817	0.0	+	35	verb	list	4	14	match	mon	3	0	y	1.07
324.9184	0.0	[response]	35	verb	list	4	15	match	mon	3	0	y	1.07
326.24830000000003	0.0	+	36	verb	list	1	1	match	jongler	5	0	y	3.2383
326.7982	0.2	sjhnrp	36	verb	list	1	2	match	jongler	5	0	y	3.2383
326.9982	0.0	+	36	verb	list	1	3	match	jongler	5	0	y	3.2383
327.39820000000003	0.2	mbnk	36	verb	list	1	4	match	jongler	5	0	y	3.2383
327.5982	0.0	+	36	verb	list	1	5	match	jongler	5	0	y	3.2383
327.9981	0.2	kbcr	36	verb	list	1	6	match	jongler	5	0	y	3.2383
328.1981	0.0	+	36	verb	list	1	7	match	jongler	5	0	y	3.2383
328.5981	0.2	qmfnh	36	verb	list	1	8	match	jongler	5	0	y	3.2383
328.79810000000003	0.0	+	36	verb	list	1	9	match	jongler	5	0	y	3.2383
329.1981	0.2	jongler	36	verb	list	1	10	match	jongler	5	0	y	3.2383
329.398	0.0	+	36	verb	list	1	11	match	jongler	5	0	y	3.2383
329.798	0.0	+	36	verb	list	1	12	match	jongler	5	0	y	3.2383
331.7979	0.0	JONGLER	36	verb	list	1	13	match	jongler	5	0	y	3.2383
335.0976	0.0	+	36	verb	list	1	14	match	jongler	5	0	y	3.2383
335.03610000000003	0.0	[response]	36	verb	list	1	15	match	jongler	5	0	y	3.2383
342.197	0.0	+	37	noun	phrase	1	1	match	bleu	5	1	p	0.4874
342.747	0.2	xtqjr	37	noun	phrase	1	2	match	bleu	5	1	p	0.4874
342.947	0.0	+	37	noun	phrase	1	3	match	bleu	5	1	p	0.4874
343.347	0.2	bqsx	37	noun	phrase	1	4	match	bleu	5	1	p	0.4874
343.5469	0.0	+	37	noun	phrase	1	5	match	bleu	5	1	p	0.4874
343.9469	0.2	zfj	37	noun	phrase	1	6	match	bleu	5	1	p	0.4874
344.1469	0.0	+	37	noun	phrase	1	7	match	bleu	5	1	p	0.4874
344.5469	0.2	xqtrdhs	37	noun	phrase	1	8	match	bleu	5	1	p	0.4874
344.7469	0.0	+	37	noun	phrase	1	9	match	bleu	5	1	p	0.4874
345.1468	0.2	bleu	37	noun	phrase	1	10	match	bleu	5	1	p	0.4874
345.34680000000003	0.0	+	37	noun	phrase	1	11	match	bleu	5	1	p	0.4874
345.7468	0.0	+	37	noun	phrase	1	12	match	bleu	5	1	p	0.4874
347.7466	0.0	BLEU	37	noun	phrase	1	13	match	bleu	5	1	p	0.4874
348.2966	0.0	+	37	noun	phrase	1	14	match	bleu	5	1	p	0.4874
348.234	0.0	[response]	37	noun	phrase	1	15	match	bleu	5	1	p	0.4874
350.1464	0.0	+	38	noun	phrase	1	1	match	sablier	5	1	p	0.88687
350.6964	0.2	mkgt	38	noun	phrase	1	2	match	sablier	5	1	p	0.88687
350.8964	0.0	+	38	noun	phrase	1	3	match	sablier	5	1	p	0.88687
351.29630000000003	0.2	qlk	38	noun	phrase	1	4	match	sablier	5	1	p	0.88687
351.4963	0.0	+	38	noun	phrase	1	5	match	sablier	5	1	p	0.88687
351.8963	0.2	stm	38	noun	phrase	1	6	match	sablier	5	1	p	0.88687
352.0963	0.0	+	38	noun	phrase	1	7	match	sablier	5	1	p	0.88687
352.4963	0.2	xstng	38	noun	phrase	1	8	match	sablier	5	1	p	0.88687
352.69620000000003	0.0	+	38	noun	phrase	1	9	match	sablier	5	1	p	0.88687
353.0962	0.2	sablier	38	noun	phrase	1	10	match	sablier	5	1	p	0.88687
353.2962	0.0	+	38	noun	phrase	1	11	match	sablier	5	1	p	0.88687
353.69620000000003	0.0	+	38	noun	phrase	1	12	match	sablier	5	1	p	0.88687
355.696	0.0	SABLIER	38	noun	phrase	1	13	match	sablier	5	1	p	0.88687
356.6459	0.0	+	38	noun	phrase	1	14	match	sablier	5	1	p	0.88687
356.5829	0.0	[response]	38	noun	phrase	1	15	match	sablier	5	1	p	0.88687
358.0958	0.0	+	39	verb	phrase	1	1	match	danser	5	1	p	0.85758
358.6458	0.2	xlfh	39	verb	phrase	1	2	match	danser	5	1	p	0.85758
358.8458	0.0	+	39	verb	phrase	1	3	match	danser	5	1	p	0.85758
359.2457	0.2	ftb	39	verb	phrase	1	4	match	danser	5	1	p	0.85758
359.4457	0.0	+	39	verb	phrase	1	5	match	danser	5	1	p	0.85758
359.8457	0.2	tw	39	verb	phrase	1	6	match	danser	5	1	p	0.85758
360.0458	0.0	+	39	verb	phrase	1	7	match	danser	5	1	p	0.85758
360.4456	0.2	hwfnd	39	verb	phrase	1	8	match	danser	5	1	p	0.85758
360.6456	0.0	+	39	verb	phrase	1	9	match	danser	5	1	p	0.85758
361.04560000000004	0.2	danser	39	verb	phrase	1	10	match	danser	5	1	p	0.85758
361.2456	0.0	+	39	verb	phrase	1	11	match	danser	5	1	p	0.85758
361.6455	0.0	+	39	verb	phrase	1	12	match	danser	5	1	p	0.85758
363.6454	0.0	DANSER	39	verb	phrase	1	13	match	danser	5	1	p	0.85758
364.562	0.0	+	39	verb	phrase	1	14	match	danser	5	1	p	0.85758
364.503	0.0	[response]	39	verb	phrase	1	15	match	danser	5	1	p	0.85758
382.044	0.0	+	40	verb	phrase	2	1	match	parader	4	1	p	2.3024
382.5939	0.2	qlvfmk	40	verb	phrase	2	2	match	parader	4	1	p	2.3024
382.7939	0.0	+	40	verb	phrase	2	3	match	parader	4	1	p	2.3024
383.1939	0.2	lnjw	40	verb	phrase	2	4	match	parader	4	1	p	2.3024
383.39390000000003	0.0	+	40	verb	phrase	2	5	match	parader	4	1	p	2.3024
383.79380000000003	0.2	kbcr	40	verb	phrase	2	6	match	parader	4	1	p	2.3024
383.9938	0.0	+	40	verb	phrase	2	7	match	parader	4	1	p	2.3024
384.3938	0.2	parader	40	verb	phrase	2	8	match	parader	4	1	p	2.3024
384.5938	0.0	+	40	verb	phrase	2	9	match	parader	4	1	p	2.3024
384.9938	0.2	loin	40	verb	phrase	2	10	match	parader	4	1	p	2.3024
385.19370000000004	0.0	+	40	verb	phrase	2	11	match	parader	4	1	p	2.3024
385.5937	0.0	+	40	verb	phrase	2	12	match	parader	4	1	p	2.3024
387.5936	0.0	PARADER	40	verb	phrase	2	13	match	parader	4	1	p	2.3024
389.96	0.0	+	40	verb	phrase	2	14	match	parader	4	1	p	2.3024
389.8960000000001	0.0	[response]	40	verb	phrase	2	15	match	parader	4	1	p	2.3024
390.0267	0.0	+	41	verb	list	1	1	match	nager	5	0	TIMEOUT	-1.0
390.5433	0.2	tqwprd	41	verb	list	1	2	match	nager	5	0	TIMEOUT	-1.0
390.74330000000003	0.0	+	41	verb	list	1	3	match	nager	5	0	TIMEOUT	-1.0
391.1433	0.2	qrgw	41	verb	list	1	4	match	nager	5	0	TIMEOUT	-1.0
391.3433	0.0	+	41	verb	list	1	5	match	nager	5	0	TIMEOUT	-1.0
391.7432	0.2	tw	41	verb	list	1	6	match	nager	5	0	TIMEOUT	-1.0
391.9432	0.0	+	41	verb	list	1	7	match	nager	5	0	TIMEOUT	-1.0
392.3432	0.2	rbcf	41	verb	list	1	8	match	nager	5	0	TIMEOUT	-1.0
392.5432	0.0	+	41	verb	list	1	9	match	nager	5	0	TIMEOUT	-1.0
392.9431	0.2	nager	41	verb	list	1	10	match	nager	5	0	TIMEOUT	-1.0
393.1431	0.0	+	41	verb	list	1	11	match	nager	5	0	TIMEOUT	-1.0
393.5431	0.0	+	41	verb	list	1	12	match	nager	5	0	TIMEOUT	-1.0
395.54290000000003	0.0	NAGER	41	verb	list	1	13	match	nager	5	0	TIMEOUT	-1.0
397.9427	0.0	+	42	noun	phrase	4	1	match	son	3	0	TIMEOUT	-1.0
398.5427	0.2	mghjnvx	42	noun	phrase	4	2	match	son	3	0	TIMEOUT	-1.0
398.7427	0.0	+	42	noun	phrase	4	3	match	son	3	0	TIMEOUT	-1.0
399.1427	0.2	avec	42	noun	phrase	4	4	match	son	3	0	TIMEOUT	-1.0
399.3426	0.0	+	42	noun	phrase	4	5	match	son	3	0	TIMEOUT	-1.0
399.7426	0.2	son	42	noun	phrase	4	6	match	son	3	0	TIMEOUT	-1.0
399.9426	0.0	+	42	noun	phrase	4	7	match	son	3	0	TIMEOUT	-1.0
400.3426	0.2	clavier	42	noun	phrase	4	8	match	son	3	0	TIMEOUT	-1.0
400.5426	0.0	+	42	noun	phrase	4	9	match	son	3	0	TIMEOUT	-1.0
400.9425	0.2	blanc	42	noun	phrase	4	10	match	son	3	0	TIMEOUT	-1.0
401.1425	0.0	+	42	noun	phrase	4	11	match	son	3	0	TIMEOUT	-1.0
401.5425	0.0	+	42	noun	phrase	4	12	match	son	3	0	TIMEOUT	-1.0
403.5423	0.0	SON	42	noun	phrase	4	13	match	son	3	0	TIMEOUT	-1.0
405.9421	0.0	+	43	noun	list	2	1	match	sablier	4	1	p	0.85888
406.5421	0.2	mxdp	43	noun	list	2	2	match	sablier	4	1	p	0.85888
406.7421	0.0	+	43	noun	list	2	3	match	sablier	4	1	p	0.85888
407.142	0.2	mbnk	43	noun	list	2	4	match	sablier	4	1	p	0.85888
407.342	0.0	+	43	noun	list	2	5	match	sablier	4	1	p	0.85888
407.742	0.2	tw	43	noun	list	2	6	match	sablier	4	1	p	0.85888
407.942	0.0	+	43	noun	list	2	7	match	sablier	4	1	p	0.85888
408.3419	0.2	sablier	43	noun	list	2	8	match	sablier	4	1	p	0.85888
408.5419	0.0	+	43	noun	list	2	9	match	sablier	4	1	p	0.85888
408.94190000000003	0.2	ainsi	43	noun	list	2	10	match	sablier	4	1	p	0.85888
409.1419	0.0	+	43	noun	list	2	11	match	sablier	4	1	p	0.85888
409.5419	0.0	+	43	noun	list	2	12	match	sablier	4	1	p	0.85888
411.5417	0.0	SABLIER	43	noun	list	2	13	match	sablier	4	1	p	0.85888
412.4583	0.0	+	43	noun	list	2	14	match	sablier	4	1	p	0.85888
412.40060000000005	0.0	[response]	43	noun	list	2	15	match	sablier	4	1	p	0.85888
429.94030000000004	0.0	+	44	noun	phrase	2	1	nomatch	tablier	-1	0	TIMEOUT	-1.0
430.4902	0.2	sgt	44	noun	phrase	2	2	nomatch	tablier	-1	0	TIMEOUT	-1.0
430.6902	0.0	+	44	noun	phrase	2	3	nomatch	tablier	-1	0	TIMEOUT	-1.0
431.0902	0.2	qrgw	44	noun	phrase	2	4	nomatch	tablier	-1	0	TIMEOUT	-1.0
431.2902	0.0	+	44	noun	phrase	2	5	nomatch	tablier	-1	0	TIMEOUT	-1.0
431.6902	0.2	stm	44	noun	phrase	2	6	nomatch	tablier	-1	0	TIMEOUT	-1.0
431.8901	0.0	+	44	noun	phrase	2	7	nomatch	tablier	-1	0	TIMEOUT	-1.0
432.2901	0.2	nouveau	44	noun	phrase	2	8	nomatch	tablier	-1	0	TIMEOUT	-1.0
432.4901	0.0	+	44	noun	phrase	2	9	nomatch	tablier	-1	0	TIMEOUT	-1.0
432.8901	0.2	grenier	44	noun	phrase	2	10	nomatch	tablier	-1	0	TIMEOUT	-1.0
433.09000000000003	0.0	+	44	noun	phrase	2	11	nomatch	tablier	-1	0	TIMEOUT	-1.0
433.49	0.0	+	44	noun	phrase	2	12	nomatch	tablier	-1	0	TIMEOUT	-1.0
435.48990000000003	0.0	TABLIER	44	noun	phrase	2	13	nomatch	tablier	-1	0	TIMEOUT	-1.0
437.88970000000006	0.0	+	45	verb	phrase	2	1	nomatch	moins	-1	1	y	0.9773400000000001
438.4896	0.2	cqvr	45	verb	phrase	2	2	nomatch	moins	-1	1	y	0.9773400000000001
438.68960000000004	0.0	+	45	verb	phrase	2	3	nomatch	moins	-1	1	y	0.9773400000000001
439.0896	0.2	rpcx	45	verb	phrase	2	4	nomatch	moins	-1	1	y	0.9773400000000001
439.28960000000006	0.0	+	45	verb	phrase	2	5	nomatch	moins	-1	1	y	0.9773400000000001
439.68949999999995	0.2	kbcr	45	verb	phrase	2	6	nomatch	moins	-1	1	y	0.9773400000000001
439.8895	0.0	+	45	verb	phrase	2	7	nomatch	moins	-1	1	y	0.9773400000000001
440.2895	0.2	plus	45	verb	phrase	2	8	nomatch	moins	-1	1	y	0.9773400000000001
440.4895	0.0	+	45	verb	phrase	2	9	nomatch	moins	-1	1	y	0.9773400000000001
440.8894	0.2	parader	45	verb	phrase	2	10	nomatch	moins	-1	1	y	0.9773400000000001
441.08939999999996	0.0	+	45	verb	phrase	2	11	nomatch	moins	-1	1	y	0.9773400000000001
441.48940000000005	0.0	+	45	verb	phrase	2	12	nomatch	moins	-1	1	y	0.9773400000000001
443.4892	0.0	MOINS	45	verb	phrase	2	13	nomatch	moins	-1	1	y	0.9773400000000001
444.52250000000004	0.0	+	45	verb	phrase	2	14	nomatch	moins	-1	1	y	0.9773400000000001
444.46659999999997	0.0	[response]	45	verb	phrase	2	15	nomatch	moins	-1	1	y	0.9773400000000001
445.889	0.0	+	46	verb	list	1	1	match	galoper	5	1	p	1.0583
446.43899999999996	0.2	xgzf	46	verb	list	1	2	match	galoper	5	1	p	1.0583
446.639	0.0	+	46	verb	list	1	3	match	galoper	5	1	p	1.0583
447.039	0.2	lnjw	46	verb	list	1	4	match	galoper	5	1	p	1.0583
447.23900000000003	0.0	+	46	verb	list	1	5	match	galoper	5	1	p	1.0583
447.63890000000004	0.2	nlfk	46	verb	list	1	6	match	galoper	5	1	p	1.0583
447.83889999999997	0.0	+	46	verb	list	1	7	match	galoper	5	1	p	1.0583
448.23890000000006	0.2	prtk	46	verb	list	1	8	match	galoper	5	1	p	1.0583
448.4389	0.0	+	46	verb	list	1	9	match	galoper	5	1	p	1.0583
448.8388	0.2	galoper	46	verb	list	1	10	match	galoper	5	1	p	1.0583
449.03880000000004	0.0	+	46	verb	list	1	11	match	galoper	5	1	p	1.0583
449.4388	0.0	+	46	verb	list	1	12	match	galoper	5	1	p	1.0583
451.43859999999995	0.0	GALOPER	46	verb	list	1	13	match	galoper	5	1	p	1.0583
452.5552	0.0	+	46	verb	list	1	14	match	galoper	5	1	p	1.0583
452.49699999999996	0.0	[response]	46	verb	list	1	15	match	galoper	5	1	p	1.0583
453.8384	0.0	+	47	verb	phrase	4	1	match	adam	2	0	y	0.92606
454.38840000000005	0.2	ngzsqp	47	verb	phrase	4	2	match	adam	2	0	y	0.92606
454.5884	0.0	+	47	verb	phrase	4	3	match	adam	2	0	y	0.92606
454.98839999999996	0.2	adam	47	verb	phrase	4	4	match	adam	2	0	y	0.92606
455.1883	0.0	+	47	verb	phrase	4	5	match	adam	2	0	y	0.92606
455.5883	0.2	doit	47	verb	phrase	4	6	match	adam	2	0	y	0.92606
455.78830000000005	0.0	+	47	verb	phrase	4	7	match	adam	2	0	y	0.92606
456.1883	0.2	plus	47	verb	phrase	4	8	match	adam	2	0	y	0.92606
456.3882	0.0	+	47	verb	phrase	4	9	match	adam	2	0	y	0.92606
456.78819999999996	0.2	danser	47	verb	phrase	4	10	match	adam	2	0	y	0.92606
456.9882	0.0	+	47	verb	phrase	4	11	match	adam	2	0	y	0.92606
457.3882	0.0	+	47	verb	phrase	4	12	match	adam	2	0	y	0.92606
459.38800000000003	0.0	ADAM	47	verb	phrase	4	13	match	adam	2	0	y	0.92606
460.3713	0.0	+	47	verb	phrase	4	14	match	adam	2	0	y	0.92606
460.31410000000005	0.0	[response]	47	verb	phrase	4	15	match	adam	2	0	y	0.92606
461.78780000000006	0.0	+	48	noun	phrase	1	1	nomatch	peut	-1	0	TIMEOUT	-1.0
462.3378	0.2	qfx	48	noun	phrase	1	2	nomatch	peut	-1	0	TIMEOUT	-1.0
462.53780000000006	0.0	+	48	noun	phrase	1	3	nomatch	peut	-1	0	TIMEOUT	-1.0
462.93770000000006	0.2	jcvb	48	noun	phrase	1	4	nomatch	peut	-1	0	TIMEOUT	-1.0
463.1377	0.0	+	48	noun	phrase	1	5	nomatch	peut	-1	0	TIMEOUT	-1.0
463.5377	0.2	zfj	48	noun	phrase	1	6	nomatch	peut	-1	0	TIMEOUT	-1.0
463.7377	0.0	+	48	noun	phrase	1	7	nomatch	peut	-1	0	TIMEOUT	-1.0
464.1377	0.2	zvhkjp	48	noun	phrase	1	8	nomatch	peut	-1	0	TIMEOUT	-1.0
464.33759999999995	0.0	+	48	noun	phrase	1	9	nomatch	peut	-1	0	TIMEOUT	-1.0
464.73760000000004	0.2	vert	48	noun	phrase	1	10	nomatch	peut	-1	0	TIMEOUT	-1.0
464.9376	0.0	+	48	noun	phrase	1	11	nomatch	peut	-1	0	TIMEOUT	-1.0
465.33759999999995	0.0	+	48	noun	phrase	1	12	nomatch	peut	-1	0	TIMEOUT	-1.0
467.3374	0.0	PEUT	48	noun	phrase	1	13	nomatch	peut	-1	0	TIMEOUT	-1.0
469.75390000000004	0.0	+	49	noun	list	4	1	match	luc	2	1	p	1.4878
470.33720000000005	0.2	xszwlp	49	noun	list	4	2	match	luc	2	1	p	1.4878
470.5372	0.0	+	49	noun	list	4	3	match	luc	2	1	p	1.4878
470.9371	0.2	luc	49	noun	list	4	4	match	luc	2	1	p	1.4878
471.13710000000003	0.0	+	49	noun	list	4	5	match	luc	2	1	p	1.4878
471.5371	0.2	mon	49	noun	list	4	6	match	luc	2	1	p	1.4878
471.73710000000005	0.0	+	49	noun	list	4	7	match	luc	2	1	p	1.4878
472.13700000000006	0.2	plus	49	noun	list	4	8	match	luc	2	1	p	1.4878
472.337	0.0	+	49	noun	list	4	9	match	luc	2	1	p	1.4878
472.73699999999997	0.2	clavier	49	noun	list	4	10	match	luc	2	1	p	1.4878
472.937	0.0	+	49	noun	list	4	11	match	luc	2	1	p	1.4878
473.3369	0.0	+	49	noun	list	4	12	match	luc	2	1	p	1.4878
475.33680000000004	0.0	LUC	49	noun	list	4	13	match	luc	2	1	p	1.4878
476.8867	0.0	+	49	noun	list	4	14	match	luc	2	1	p	1.4878
476.82460000000015	0.0	[response]	49	noun	list	4	15	match	luc	2	1	p	1.4878
477.73659999999995	0.0	+	50	verb	phrase	4	1	match	yves	2	1	p	1.5468
478.2866	0.2	bkrdz	50	verb	phrase	4	2	match	yves	2	1	p	1.5468
478.4865	0.0	+	50	verb	phrase	4	3	match	yves	2	1	p	1.5468
478.88649999999996	0.2	yves	50	verb	phrase	4	4	match	yves	2	1	p	1.5468
479.0865	0.0	+	50	verb	phrase	4	5	match	yves	2	1	p	1.5468
479.4865	0.2	va	50	verb	phrase	4	6	match	yves	2	1	p	1.5468
479.6865	0.0	+	50	verb	phrase	4	7	match	yves	2	1	p	1.5468
480.0864	0.2	voyager	50	verb	phrase	4	8	match	yves	2	1	p	1.5468
480.28639999999996	0.0	+	50	verb	phrase	4	9	match	yves	2	1	p	1.5468
480.68640000000005	0.2	ainsi	50	verb	phrase	4	10	match	yves	2	1	p	1.5468
480.8864	0.0	+	50	verb	phrase	4	11	match	yves	2	1	p	1.5468
481.2863	0.0	+	50	verb	phrase	4	12	match	yves	2	1	p	1.5468
483.2862	0.0	YVES	50	verb	phrase	4	13	match	yves	2	1	p	1.5468
484.9027	0.0	+	50	verb	phrase	4	14	match	yves	2	1	p	1.5468
484.83299999999997	0.0	[response]	50	verb	phrase	4	15	match	yves	2	1	p	1.5468
485.68600000000004	0.0	+	51	noun	phrase	1	1	match	grand	5	1	p	1.6375
486.2359	0.2	csndjmk	51	noun	phrase	1	2	match	grand	5	1	p	1.6375
486.43590000000006	0.0	+	51	noun	phrase	1	3	match	grand	5	1	p	1.6375
486.83590000000004	0.2	jztp	51	noun	phrase	1	4	match	grand	5	1	p	1.6375
487.03589999999997	0.0	+	51	noun	phrase	1	5	match	grand	5	1	p	1.6375
487.43590000000006	0.2	stm	51	noun	phrase	1	6	match	grand	5	1	p	1.6375
487.6358	0.0	+	51	noun	phrase	1	7	match	grand	5	1	p	1.6375
488.0358	0.2	gnlzmd	51	noun	phrase	1	8	match	grand	5	1	p	1.6375
488.23580000000004	0.0	+	51	noun	phrase	1	9	match	grand	5	1	p	1.6375
488.6358	0.2	grand	51	noun	phrase	1	10	match	grand	5	1	p	1.6375
488.8357	0.0	+	51	noun	phrase	1	11	match	grand	5	1	p	1.6375
489.23569999999995	0.0	+	51	noun	phrase	1	12	match	grand	5	1	p	1.6375
491.2356	0.0	GRAND	51	noun	phrase	1	13	match	grand	5	1	p	1.6375
492.93539999999996	0.0	+	51	noun	phrase	1	14	match	grand	5	1	p	1.6375
492.87310000000014	0.0	[response]	51	noun	phrase	1	15	match	grand	5	1	p	1.6375
493.6354	0.0	+	52	verb	list	3	1	nomatch	noir	-1	1	y	0.7238
494.1853	0.2	rkqn	52	verb	list	3	2	nomatch	noir	-1	1	y	0.7238
494.38530000000003	0.0	+	52	verb	list	3	3	nomatch	noir	-1	1	y	0.7238
494.7853	0.2	jcvb	52	verb	list	3	4	nomatch	noir	-1	1	y	0.7238
494.98530000000005	0.0	+	52	verb	list	3	5	nomatch	noir	-1	1	y	0.7238
495.38520000000005	0.2	peut	52	verb	list	3	6	nomatch	noir	-1	1	y	0.7238
495.5852	0.0	+	52	verb	list	3	7	nomatch	noir	-1	1	y	0.7238
495.98519999999996	0.2	vieux	52	verb	list	3	8	nomatch	noir	-1	1	y	0.7238
496.1852	0.0	+	52	verb	list	3	9	nomatch	noir	-1	1	y	0.7238
496.5851	0.2	plonger	52	verb	list	3	10	nomatch	noir	-1	1	y	0.7238
496.78510000000006	0.0	+	52	verb	list	3	11	nomatch	noir	-1	1	y	0.7238
497.18510000000003	0.0	+	52	verb	list	3	12	nomatch	noir	-1	1	y	0.7238
499.18489999999997	0.0	NOIR	52	verb	list	3	13	nomatch	noir	-1	1	y	0.7238
499.9682	0.0	+	52	verb	list	3	14	nomatch	noir	-1	1	y	0.7238
499.90880000000004	0.0	[response]	52	verb	list	3	15	nomatch	noir	-1	1	y	0.7238
501.6014	0.0	+	53	verb	phrase	1	1	nomatch	moins	-1	0	p	2.622
502.15139999999997	0.2	drjflcm	53	verb	phrase	1	2	nomatch	moins	-1	0	p	2.622
502.3514	0.0	+	53	verb	phrase	1	3	nomatch	moins	-1	0	p	2.622
502.7513	0.2	swgv	53	verb	phrase	1	4	nomatch	moins	-1	0	p	2.622
502.95130000000006	0.0	+	53	verb	phrase	1	5	nomatch	moins	-1	0	p	2.622
503.35130000000004	0.2	kbcr	53	verb	phrase	1	6	nomatch	moins	-1	0	p	2.622
503.55129999999997	0.0	+	53	verb	phrase	1	7	nomatch	moins	-1	0	p	2.622
503.9512	0.2	cbsr	53	verb	phrase	1	8	nomatch	moins	-1	0	p	2.622
504.1512	0.0	+	53	verb	phrase	1	9	nomatch	moins	-1	0	p	2.622
504.5512	0.2	nager	53	verb	phrase	1	10	nomatch	moins	-1	0	p	2.622
504.75120000000004	0.0	+	53	verb	phrase	1	11	nomatch	moins	-1	0	p	2.622
505.1512	0.0	+	53	verb	phrase	1	12	nomatch	moins	-1	0	p	2.622
507.15099999999995	0.0	MOINS	53	verb	phrase	1	13	nomatch	moins	-1	0	p	2.622
509.83410000000003	0.0	+	53	verb	phrase	1	14	nomatch	moins	-1	0	p	2.622
509.773	0.0	[response]	53	verb	phrase	1	15	nomatch	moins	-1	0	p	2.622
517.5502	0.0	+	54	verb	phrase	3	1	nomatch	panier	-1	1	y	1.4347
518.1002	0.2	jslp	54	verb	phrase	3	2	nomatch	panier	-1	1	y	1.4347
518.3001	0.0	+	54	verb	phrase	3	3	nomatch	panier	-1	1	y	1.4347
518.7001	0.2	rpcx	54	verb	phrase	3	4	nomatch	panier	-1	1	y	1.4347
518.9001	0.0	+	54	verb	phrase	3	5	nomatch	panier	-1	1	y	1.4347
519.3001	0.2	doit	54	verb	phrase	3	6	nomatch	panier	-1	1	y	1.4347
519.5001	0.0	+	54	verb	phrase	3	7	nomatch	panier	-1	1	y	1.4347
519.9	0.2	beaucoup	54	verb	phrase	3	8	nomatch	panier	-1	1	y	1.4347
520.1	0.0	+	54	verb	phrase	3	9	nomatch	panier	-1	1	y	1.4347
520.5	0.2	voyager	54	verb	phrase	3	10	nomatch	panier	-1	1	y	1.4347
520.7	0.0	+	54	verb	phrase	3	11	nomatch	panier	-1	1	y	1.4347
521.0999	0.0	+	54	verb	phrase	3	12	nomatch	panier	-1	1	y	1.4347
523.0998	0.0	PANIER	54	verb	phrase	3	13	nomatch	panier	-1	1	y	1.4347
524.5997	0.0	+	54	verb	phrase	3	14	nomatch	panier	-1	1	y	1.4347
524.5345	0.0	[response]	54	verb	phrase	3	15	nomatch	panier	-1	1	y	1.4347
525.4996	0.0	+	55	verb	list	2	1	nomatch	vert	-1	1	y	1.3481
526.0495	0.2	spn	55	verb	list	2	2	nomatch	vert	-1	1	y	1.3481
526.2495	0.0	+	55	verb	list	2	3	nomatch	vert	-1	1	y	1.3481
526.6495	0.2	mpnw	55	verb	list	2	4	nomatch	vert	-1	1	y	1.3481
526.8495	0.0	+	55	verb	list	2	5	nomatch	vert	-1	1	y	1.3481
527.2495	0.2	zfj	55	verb	list	2	6	nomatch	vert	-1	1	y	1.3481
527.4494	0.0	+	55	verb	list	2	7	nomatch	vert	-1	1	y	1.3481
527.8494000000001	0.2	nager	55	verb	list	2	8	nomatch	vert	-1	1	y	1.3481
528.0494	0.0	+	55	verb	list	2	9	nomatch	vert	-1	1	y	1.3481
528.4494	0.2	rouge	55	verb	list	2	10	nomatch	vert	-1	1	y	1.3481
528.6493	0.0	+	55	verb	list	2	11	nomatch	vert	-1	1	y	1.3481
529.0493	0.0	+	55	verb	list	2	12	nomatch	vert	-1	1	y	1.3481
531.0492	0.0	VERT	55	verb	list	2	13	nomatch	vert	-1	1	y	1.3481
532.4657	0.0	+	55	verb	list	2	14	nomatch	vert	-1	1	y	1.3481
532.3972000000001	0.0	[response]	55	verb	list	2	15	nomatch	vert	-1	1	y	1.3481
533.449	0.0	+	56	verb	list	3	1	nomatch	va	-1	0	TIMEOUT	-1.0
533.9989	0.2	hvmn	56	verb	list	3	2	nomatch	va	-1	0	TIMEOUT	-1.0
534.1989	0.0	+	56	verb	list	3	3	nomatch	va	-1	0	TIMEOUT	-1.0
534.5989	0.2	bqsx	56	verb	list	3	4	nomatch	va	-1	0	TIMEOUT	-1.0
534.7989	0.0	+	56	verb	list	3	5	nomatch	va	-1	0	TIMEOUT	-1.0
535.1988	0.2	peut	56	verb	list	3	6	nomatch	va	-1	0	TIMEOUT	-1.0
535.3988	0.0	+	56	verb	list	3	7	nomatch	va	-1	0	TIMEOUT	-1.0
535.7988	0.2	petit	56	verb	list	3	8	nomatch	va	-1	0	TIMEOUT	-1.0
535.9988	0.0	+	56	verb	list	3	9	nomatch	va	-1	0	TIMEOUT	-1.0
536.3988	0.2	danser	56	verb	list	3	10	nomatch	va	-1	0	TIMEOUT	-1.0
536.5987	0.0	+	56	verb	list	3	11	nomatch	va	-1	0	TIMEOUT	-1.0
536.9987	0.0	+	56	verb	list	3	12	nomatch	va	-1	0	TIMEOUT	-1.0
538.9986	0.0	VA	56	verb	list	3	13	nomatch	va	-1	0	TIMEOUT	-1.0
541.3984	0.0	+	57	verb	phrase	3	1	nomatch	ainsi	-1	1	y	0.86235
541.9983	0.2	tjn	57	verb	phrase	3	2	nomatch	ainsi	-1	1	y	0.86235
542.1983	0.0	+	57	verb	phrase	3	3	nomatch	ainsi	-1	1	y	0.86235
542.5983	0.2	lnjw	57	verb	phrase	3	4	nomatch	ainsi	-1	1	y	0.86235
542.7983	0.0	+	57	verb	phrase	3	5	nomatch	ainsi	-1	1	y	0.86235
543.1982	0.2	doit	57	verb	phrase	3	6	nomatch	ainsi	-1	1	y	0.86235
543.3982	0.0	+	57	verb	phrase	3	7	nomatch	ainsi	-1	1	y	0.86235
543.7982	0.2	trop	57	verb	phrase	3	8	nomatch	ainsi	-1	1	y	0.86235
543.9982	0.0	+	57	verb	phrase	3	9	nomatch	ainsi	-1	1	y	0.86235
544.3981	0.2	chasser	57	verb	phrase	3	10	nomatch	ainsi	-1	1	y	0.86235
544.5981	0.0	+	57	verb	phrase	3	11	nomatch	ainsi	-1	1	y	0.86235
544.9981	0.0	+	57	verb	phrase	3	12	nomatch	ainsi	-1	1	y	0.86235
546.9979	0.0	AINSI	57	verb	phrase	3	13	nomatch	ainsi	-1	1	y	0.86235
547.9145	0.0	+	57	verb	phrase	3	14	nomatch	ainsi	-1	1	y	0.86235
547.8603	0.0	[response]	57	verb	phrase	3	15	nomatch	ainsi	-1	1	y	0.86235
549.3977	0.0	+	58	verb	phrase	1	1	nomatch	tt	-1	1	y	1.5597
549.9477	0.2	vkzsfp	58	verb	phrase	1	2	nomatch	tt	-1	1	y	1.5597
550.1477	0.0	+	58	verb	phrase	1	3	nomatch	tt	-1	1	y	1.5597
550.5477	0.2	mpnw	58	verb	phrase	1	4	nomatch	tt	-1	1	y	1.5597
550.7476	0.0	+	58	verb	phrase	1	5	nomatch	tt	-1	1	y	1.5597
551.1476	0.2	clzr	58	verb	phrase	1	6	nomatch	tt	-1	1	y	1.5597
551.3476	0.0	+	58	verb	phrase	1	7	nomatch	tt	-1	1	y	1.5597
551.7476	0.2	pbnvrm	58	verb	phrase	1	8	nomatch	tt	-1	1	y	1.5597
551.9475	0.0	+	58	verb	phrase	1	9	nomatch	tt	-1	1	y	1.5597
552.3475	0.2	tard	58	verb	phrase	1	10	nomatch	tt	-1	1	y	1.5597
552.5475	0.0	+	58	verb	phrase	1	11	nomatch	tt	-1	1	y	1.5597
552.9475	0.0	+	58	verb	phrase	1	12	nomatch	tt	-1	1	y	1.5597
554.9473	0.0	TT	58	verb	phrase	1	13	nomatch	tt	-1	1	y	1.5597
556.5639	0.0	+	58	verb	phrase	1	14	nomatch	tt	-1	1	y	1.5597
556.5070000000001	0.0	[response]	58	verb	phrase	1	15	nomatch	tt	-1	1	y	1.5597
557.3471	0.0	+	59	verb	phrase	4	1	match	va	3	1	p	1.1454
557.8971	0.2	knbqw	59	verb	phrase	4	2	match	va	3	1	p	1.1454
558.0971	0.0	+	59	verb	phrase	4	3	match	va	3	1	p	1.1454
558.497	0.2	yves	59	verb	phrase	4	4	match	va	3	1	p	1.1454
558.697	0.0	+	59	verb	phrase	4	5	match	va	3	1	p	1.1454
559.097	0.2	va	59	verb	phrase	4	6	match	va	3	1	p	1.1454
559.297	0.0	+	59	verb	phrase	4	7	match	va	3	1	p	1.1454
559.697	0.2	parader	59	verb	phrase	4	8	match	va	3	1	p	1.1454
559.8969	0.0	+	59	verb	phrase	4	9	match	va	3	1	p	1.1454
560.2969	0.2	loin	59	verb	phrase	4	10	match	va	3	1	p	1.1454
560.4969	0.0	+	59	verb	phrase	4	11	match	va	3	1	p	1.1454
560.8969	0.0	+	59	verb	phrase	4	12	match	va	3	1	p	1.1454
562.8967	0.0	VA	59	verb	phrase	4	13	match	va	3	1	p	1.1454
564.0966	0.0	+	59	verb	phrase	4	14	match	va	3	1	p	1.1454
564.0421	0.0	[response]	59	verb	phrase	4	15	match	va	3	1	p	1.1454
573.2959	0.0	+	60	verb	list	1	1	nomatch	moins	-1	0	p	2.2529000000000003
573.8459	0.2	qvbnj	60	verb	list	1	2	nomatch	moins	-1	0	p	2.2529000000000003
574.0458	0.0	+	60	verb	list	1	3	nomatch	moins	-1	0	p	2.2529000000000003
574.4458	0.2	bjlw	60	verb	list	1	4	nomatch	moins	-1	0	p	2.2529000000000003
574.6458	0.0	+	60	verb	list	1	5	nomatch	moins	-1	0	p	2.2529000000000003
575.0458	0.2	nlfk	60	verb	list	1	6	nomatch	moins	-1	0	p	2.2529000000000003
575.2458	0.0	+	60	verb	list	1	7	nomatch	moins	-1	0	p	2.2529000000000003
575.6457	0.2	qrdt	60	verb	list	1	8	nomatch	moins	-1	0	p	2.2529000000000003
575.8457	0.0	+	60	verb	list	1	9	nomatch	moins	-1	0	p	2.2529000000000003
576.2457	0.2	danser	60	verb	list	1	10	nomatch	moins	-1	0	p	2.2529000000000003
576.4457	0.0	+	60	verb	list	1	11	nomatch	moins	-1	0	p	2.2529000000000003
576.8456	0.0	+	60	verb	list	1	12	nomatch	moins	-1	0	p	2.2529000000000003
578.8455	0.0	MOINS	60	verb	list	1	13	nomatch	moins	-1	0	p	2.2529000000000003
581.162	0.0	+	60	verb	list	1	14	nomatch	moins	-1	0	p	2.2529000000000003
581.0984	0.0	[response]	60	verb	list	1	15	nomatch	moins	-1	0	p	2.2529000000000003
589.2447	0.0	+	61	noun	phrase	1	1	nomatch	rocher	-1	1	y	1.0917
589.7946000000001	0.2	mkzc	61	noun	phrase	1	2	nomatch	rocher	-1	1	y	1.0917
589.9946	0.0	+	61	noun	phrase	1	3	nomatch	rocher	-1	1	y	1.0917
590.3946	0.2	qrgw	61	noun	phrase	1	4	nomatch	rocher	-1	1	y	1.0917
590.5946	0.0	+	61	noun	phrase	1	5	nomatch	rocher	-1	1	y	1.0917
590.9945	0.2	zfj	61	noun	phrase	1	6	nomatch	rocher	-1	1	y	1.0917
591.1945000000001	0.0	+	61	noun	phrase	1	7	nomatch	rocher	-1	1	y	1.0917
591.5945	0.2	qmfnh	61	noun	phrase	1	8	nomatch	rocher	-1	1	y	1.0917
591.7945	0.0	+	61	noun	phrase	1	9	nomatch	rocher	-1	1	y	1.0917
592.1945000000001	0.2	panier	61	noun	phrase	1	10	nomatch	rocher	-1	1	y	1.0917
592.3944	0.0	+	61	noun	phrase	1	11	nomatch	rocher	-1	1	y	1.0917
592.7944	0.0	+	61	noun	phrase	1	12	nomatch	rocher	-1	1	y	1.0917
594.7943	0.0	ROCHER	61	noun	phrase	1	13	nomatch	rocher	-1	1	y	1.0917
595.9442	0.0	+	61	noun	phrase	1	14	nomatch	rocher	-1	1	y	1.0917
595.8859	0.0	[response]	61	noun	phrase	1	15	nomatch	rocher	-1	1	y	1.0917
597.1941	0.0	+	62	verb	list	2	1	match	chasser	4	1	p	0.60987
597.744	0.2	vwpzg	62	verb	list	2	2	match	chasser	4	1	p	0.60987
597.944	0.0	+	62	verb	list	2	3	match	chasser	4	1	p	0.60987
598.344	0.2	bjlw	62	verb	list	2	4	match	chasser	4	1	p	0.60987
598.544	0.0	+	62	verb	list	2	5	match	chasser	4	1	p	0.60987
598.9439	0.2	nlfk	62	verb	list	2	6	match	chasser	4	1	p	0.60987
599.1439	0.0	+	62	verb	list	2	7	match	chasser	4	1	p	0.60987
599.5439	0.2	chasser	62	verb	list	2	8	match	chasser	4	1	p	0.60987
599.7439	0.0	+	62	verb	list	2	9	match	chasser	4	1	p	0.60987
600.1438	0.2	bleu	62	verb	list	2	10	match	chasser	4	1	p	0.60987
600.3438	0.0	+	62	verb	list	2	11	match	chasser	4	1	p	0.60987
600.7438	0.0	+	62	verb	list	2	12	match	chasser	4	1	p	0.60987
602.7436	0.0	CHASSER	62	verb	list	2	13	match	chasser	4	1	p	0.60987
603.4102	0.0	+	62	verb	list	2	14	match	chasser	4	1	p	0.60987
603.3535000000002	0.0	[response]	62	verb	list	2	15	match	chasser	4	1	p	0.60987
605.1434	0.0	+	63	verb	list	4	1	nomatch	plus	-1	0	TIMEOUT	-1.0
605.6934	0.2	rshdfcj	63	verb	list	4	2	nomatch	plus	-1	0	TIMEOUT	-1.0
605.8934	0.0	+	63	verb	list	4	3	nomatch	plus	-1	0	TIMEOUT	-1.0
606.2934	0.2	paul	63	verb	list	4	4	nomatch	plus	-1	0	TIMEOUT	-1.0
606.4933	0.0	+	63	verb	list	4	5	nomatch	plus	-1	0	TIMEOUT	-1.0
606.8933	0.2	mon	63	verb	list	4	6	nomatch	plus	-1	0	TIMEOUT	-1.0
607.0933	0.0	+	63	verb	list	4	7	nomatch	plus	-1	0	TIMEOUT	-1.0
607.4933	0.2	parader	63	verb	list	4	8	nomatch	plus	-1	0	TIMEOUT	-1.0
607.6933	0.0	+	63	verb	list	4	9	nomatch	plus	-1	0	TIMEOUT	-1.0
608.0932	0.2	vert	63	verb	list	4	10	nomatch	plus	-1	0	TIMEOUT	-1.0
608.2932	0.0	+	63	verb	list	4	11	nomatch	plus	-1	0	TIMEOUT	-1.0
608.6932	0.0	+	63	verb	list	4	12	nomatch	plus	-1	0	TIMEOUT	-1.0
610.693	0.0	PLUS	63	verb	list	4	13	nomatch	plus	-1	0	TIMEOUT	-1.0
613.0928	0.0	+	64	noun	phrase	2	1	match	grand	4	1	p	0.82549
613.6928	0.2	zvlbtnd	64	noun	phrase	2	2	match	grand	4	1	p	0.82549
613.8928	0.0	+	64	noun	phrase	2	3	match	grand	4	1	p	0.82549
614.2927	0.2	jztp	64	noun	phrase	2	4	match	grand	4	1	p	0.82549
614.4927	0.0	+	64	noun	phrase	2	5	match	grand	4	1	p	0.82549
614.8927	0.2	nlfk	64	noun	phrase	2	6	match	grand	4	1	p	0.82549
615.0927	0.0	+	64	noun	phrase	2	7	match	grand	4	1	p	0.82549
615.4927	0.2	grand	64	noun	phrase	2	8	match	grand	4	1	p	0.82549
615.6926	0.0	+	64	noun	phrase	2	9	match	grand	4	1	p	0.82549
616.0926000000001	0.2	sablier	64	noun	phrase	2	10	match	grand	4	1	p	0.82549
616.2926	0.0	+	64	noun	phrase	2	11	match	grand	4	1	p	0.82549
616.6926	0.0	+	64	noun	phrase	2	12	match	grand	4	1	p	0.82549
618.6924	0.0	GRAND	64	noun	phrase	2	13	match	grand	4	1	p	0.82549
619.5757	0.0	+	64	noun	phrase	2	14	match	grand	4	1	p	0.82549
619.5179	0.0	[response]	64	noun	phrase	2	15	match	grand	4	1	p	0.82549
621.0922	0.0	+	65	verb	phrase	3	1	match	chasser	4	0	TIMEOUT	-1.0
621.6422	0.2	mvhqg	65	verb	phrase	3	2	match	chasser	4	0	TIMEOUT	-1.0
621.8422	0.0	+	65	verb	phrase	3	3	match	chasser	4	0	TIMEOUT	-1.0
622.2421	0.2	rpcx	65	verb	phrase	3	4	match	chasser	4	0	TIMEOUT	-1.0
622.4421	0.0	+	65	verb	phrase	3	5	match	chasser	4	0	TIMEOUT	-1.0
622.8421	0.2	va	65	verb	phrase	3	6	match	chasser	4	0	TIMEOUT	-1.0
623.0421	0.0	+	65	verb	phrase	3	7	match	chasser	4	0	TIMEOUT	-1.0
623.442	0.2	chasser	65	verb	phrase	3	8	match	chasser	4	0	TIMEOUT	-1.0
623.642	0.0	+	65	verb	phrase	3	9	match	chasser	4	0	TIMEOUT	-1.0
624.042	0.2	vite	65	verb	phrase	3	10	match	chasser	4	0	TIMEOUT	-1.0
624.242	0.0	+	65	verb	phrase	3	11	match	chasser	4	0	TIMEOUT	-1.0
624.642	0.0	+	65	verb	phrase	3	12	match	chasser	4	0	TIMEOUT	-1.0
626.6418	0.0	CHASSER	65	verb	phrase	3	13	match	chasser	4	0	TIMEOUT	-1.0
629.0416	0.0	+	66	verb	list	1	1	nomatch	grand	-1	0	TIMEOUT	-1.0
629.6416	0.2	pdbl	66	verb	list	1	2	nomatch	grand	-1	0	TIMEOUT	-1.0
629.8416	0.0	+	66	verb	list	1	3	nomatch	grand	-1	0	TIMEOUT	-1.0
630.2415	0.2	jcvb	66	verb	list	1	4	nomatch	grand	-1	0	TIMEOUT	-1.0
630.4415	0.0	+	66	verb	list	1	5	nomatch	grand	-1	0	TIMEOUT	-1.0
630.8415	0.2	clzr	66	verb	list	1	6	nomatch	grand	-1	0	TIMEOUT	-1.0
631.0415	0.0	+	66	verb	list	1	7	nomatch	grand	-1	0	TIMEOUT	-1.0
631.4414	0.2	jfskqmr	66	verb	list	1	8	nomatch	grand	-1	0	TIMEOUT	-1.0
631.6414	0.0	+	66	verb	list	1	9	nomatch	grand	-1	0	TIMEOUT	-1.0
632.0414	0.2	beau	66	verb	list	1	10	nomatch	grand	-1	0	TIMEOUT	-1.0
632.2414	0.0	+	66	verb	list	1	11	nomatch	grand	-1	0	TIMEOUT	-1.0
632.6413	0.0	+	66	verb	list	1	12	nomatch	grand	-1	0	TIMEOUT	-1.0
634.6412	0.0	GRAND	66	verb	list	1	13	nomatch	grand	-1	0	TIMEOUT	-1.0
637.041	0.0	+	67	verb	phrase	1	1	nomatch	son	-1	1	y	0.5945200000000002
637.6409	0.2	lmcx	67	verb	phrase	1	2	nomatch	son	-1	1	y	0.5945200000000002
637.8409	0.0	+	67	verb	phrase	1	3	nomatch	son	-1	1	y	0.5945200000000002
638.2409	0.2	mpnw	67	verb	phrase	1	4	nomatch	son	-1	1	y	0.5945200000000002
638.4409	0.0	+	67	verb	phrase	1	5	nomatch	son	-1	1	y	0.5945200000000002
638.8409	0.2	kbcr	67	verb	phrase	1	6	nomatch	son	-1	1	y	0.5945200000000002
639.0408	0.0	+	67	verb	phrase	1	7	nomatch	son	-1	1	y	0.5945200000000002
639.4408	0.2	trcz	67	verb	phrase	1	8	nomatch	son	-1	1	y	0.5945200000000002
639.6408	0.0	+	67	verb	phrase	1	9	nomatch	son	-1	1	y	0.5945200000000002
640.0408	0.2	galoper	67	verb	phrase	1	10	nomatch	son	-1	1	y	0.5945200000000002
640.2407000000001	0.0	+	67	verb	phrase	1	11	nomatch	son	-1	1	y	0.5945200000000002
640.6407	0.0	+	67	verb	phrase	1	12	nomatch	son	-1	1	y	0.5945200000000002
642.6406000000001	0.0	SON	67	verb	phrase	1	13	nomatch	son	-1	1	y	0.5945200000000002
643.2905	0.0	+	67	verb	phrase	1	14	nomatch	son	-1	1	y	0.5945200000000002
643.2351	0.0	[response]	67	verb	phrase	1	15	nomatch	son	-1	1	y	0.5945200000000002
653.0398	0.0	+	68	noun	list	3	1	nomatch	plus	-1	0	TIMEOUT	-1.0
653.5897	0.2	qpj	68	noun	list	3	2	nomatch	plus	-1	0	TIMEOUT	-1.0
653.7897	0.0	+	68	noun	list	3	3	nomatch	plus	-1	0	TIMEOUT	-1.0
654.1897	0.2	jcvb	68	noun	list	3	4	nomatch	plus	-1	0	TIMEOUT	-1.0
654.3897000000001	0.0	+	68	noun	list	3	5	nomatch	plus	-1	0	TIMEOUT	-1.0
654.7896000000001	0.2	peut	68	noun	list	3	6	nomatch	plus	-1	0	TIMEOUT	-1.0
654.9896	0.0	+	68	noun	list	3	7	nomatch	plus	-1	0	TIMEOUT	-1.0
655.3896	0.2	grenier	68	noun	list	3	8	nomatch	plus	-1	0	TIMEOUT	-1.0
655.5896	0.0	+	68	noun	list	3	9	nomatch	plus	-1	0	TIMEOUT	-1.0
655.9895	0.2	tt	68	noun	list	3	10	nomatch	plus	-1	0	TIMEOUT	-1.0
656.1895	0.0	+	68	noun	list	3	11	nomatch	plus	-1	0	TIMEOUT	-1.0
656.5895	0.0	+	68	noun	list	3	12	nomatch	plus	-1	0	TIMEOUT	-1.0
658.5893	0.0	PLUS	68	noun	list	3	13	nomatch	plus	-1	0	TIMEOUT	-1.0
660.9891	0.0	+	69	verb	phrase	1	1	match	ainsi	5	1	p	0.68232
661.5891	0.2	xmwrs	69	verb	phrase	1	2	match	ainsi	5	1	p	0.68232
661.7891	0.0	+	69	verb	phrase	1	3	match	ainsi	5	1	p	0.68232
662.1891	0.2	swgv	69	verb	phrase	1	4	match	ainsi	5	1	p	0.68232
662.389	0.0	+	69	verb	phrase	1	5	match	ainsi	5	1	p	0.68232
662.789	0.2	tw	69	verb	phrase	1	6	match	ainsi	5	1	p	0.68232
662.989	0.0	+	69	verb	phrase	1	7	match	ainsi	5	1	p	0.68232
663.389	0.2	dqlmcfg	69	verb	phrase	1	8	match	ainsi	5	1	p	0.68232
663.5889	0.0	+	69	verb	phrase	1	9	match	ainsi	5	1	p	0.68232
663.9889000000001	0.2	ainsi	69	verb	phrase	1	10	match	ainsi	5	1	p	0.68232
664.1889	0.0	+	69	verb	phrase	1	11	match	ainsi	5	1	p	0.68232
664.5889	0.0	+	69	verb	phrase	1	12	match	ainsi	5	1	p	0.68232
666.5887	0.0	AINSI	69	verb	phrase	1	13	match	ainsi	5	1	p	0.68232
667.3387	0.0	+	69	verb	phrase	1	14	match	ainsi	5	1	p	0.68232
667.271	0.0	[response]	69	verb	phrase	1	15	match	ainsi	5	1	p	0.68232
668.9885	0.0	+	70	noun	phrase	3	1	nomatch	doit	-1	0	TIMEOUT	-1.0
669.5385	0.2	slgpkc	70	noun	phrase	3	2	nomatch	doit	-1	0	TIMEOUT	-1.0
669.7385	0.0	+	70	noun	phrase	3	3	nomatch	doit	-1	0	TIMEOUT	-1.0
670.1384	0.2	cfwl	70	noun	phrase	3	4	nomatch	doit	-1	0	TIMEOUT	-1.0
670.3384	0.0	+	70	noun	phrase	3	5	nomatch	doit	-1	0	TIMEOUT	-1.0
670.7384	0.2	son	70	noun	phrase	3	6	nomatch	doit	-1	0	TIMEOUT	-1.0
670.9384	0.0	+	70	noun	phrase	3	7	nomatch	doit	-1	0	TIMEOUT	-1.0
671.3384	0.2	rocher	70	noun	phrase	3	8	nomatch	doit	-1	0	TIMEOUT	-1.0
671.5383	0.0	+	70	noun	phrase	3	9	nomatch	doit	-1	0	TIMEOUT	-1.0
671.9383	0.2	vert	70	noun	phrase	3	10	nomatch	doit	-1	0	TIMEOUT	-1.0
672.1383	0.0	+	70	noun	phrase	3	11	nomatch	doit	-1	0	TIMEOUT	-1.0
672.5383	0.0	+	70	noun	phrase	3	12	nomatch	doit	-1	0	TIMEOUT	-1.0
674.5381	0.0	DOIT	70	noun	phrase	3	13	nomatch	doit	-1	0	TIMEOUT	-1.0
676.9546	0.0	+	71	verb	phrase	1	1	match	parader	5	1	p	0.6276500000000002
677.5379	0.2	mfcskrv	71	verb	phrase	1	2	match	parader	5	1	p	0.6276500000000002
677.7379	0.0	+	71	verb	phrase	1	3	match	parader	5	1	p	0.6276500000000002
678.1378	0.2	vzfj	71	verb	phrase	1	4	match	parader	5	1	p	0.6276500000000002
678.3378	0.0	+	71	verb	phrase	1	5	match	parader	5	1	p	0.6276500000000002
678.7378	0.2	kbcr	71	verb	phrase	1	6	match	parader	5	1	p	0.6276500000000002
678.9378	0.0	+	71	verb	phrase	1	7	match	parader	5	1	p	0.6276500000000002
679.3377	0.2	jdtb	71	verb	phrase	1	8	match	parader	5	1	p	0.6276500000000002
679.5377	0.0	+	71	verb	phrase	1	9	match	parader	5	1	p	0.6276500000000002
679.9377000000001	0.2	parader	71	verb	phrase	1	10	match	parader	5	1	p	0.6276500000000002
680.1377	0.0	+	71	verb	phrase	1	11	match	parader	5	1	p	0.6276500000000002
680.5376	0.0	+	71	verb	phrase	1	12	match	parader	5	1	p	0.6276500000000002
682.5375	0.0	PARADER	71	verb	phrase	1	13	match	parader	5	1	p	0.6276500000000002
683.2208	0.0	+	71	verb	phrase	1	14	match	parader	5	1	p	0.6276500000000002
683.1651	0.0	[response]	71	verb	phrase	1	15	match	parader	5	1	p	0.6276500000000002
684.9373	0.0	+	72	verb	phrase	4	1	nomatch	avec	-1	1	y	0.80498
685.4873	0.2	lhmn	72	verb	phrase	4	2	nomatch	avec	-1	1	y	0.80498
685.6872	0.0	+	72	verb	phrase	4	3	nomatch	avec	-1	1	y	0.80498
686.0872	0.2	paul	72	verb	phrase	4	4	nomatch	avec	-1	1	y	0.80498
686.2872	0.0	+	72	verb	phrase	4	5	nomatch	avec	-1	1	y	0.80498
686.6872	0.2	peut	72	verb	phrase	4	6	nomatch	avec	-1	1	y	0.80498
686.8872	0.0	+	72	verb	phrase	4	7	nomatch	avec	-1	1	y	0.80498
687.2871	0.2	danser	72	verb	phrase	4	8	nomatch	avec	-1	1	y	0.80498
687.4871	0.0	+	72	verb	phrase	4	9	nomatch	avec	-1	1	y	0.80498
687.8871	0.2	tt	72	verb	phrase	4	10	nomatch	avec	-1	1	y	0.80498
688.0871	0.0	+	72	verb	phrase	4	11	nomatch	avec	-1	1	y	0.80498
688.487	0.0	+	72	verb	phrase	4	12	nomatch	avec	-1	1	y	0.80498
690.4869	0.0	AVEC	72	verb	phrase	4	13	nomatch	avec	-1	1	y	0.80498
691.3535	0.0	+	72	verb	phrase	4	14	nomatch	avec	-1	1	y	0.80498
691.2919	0.0	[response]	72	verb	phrase	4	15	nomatch	avec	-1	1	y	0.80498
692.8867	0.0	+	73	verb	phrase	2	1	nomatch	plus	-1	1	y	1.0686
693.4366	0.2	szjnw	73	verb	phrase	2	2	nomatch	plus	-1	1	y	1.0686
693.6366	0.0	+	73	verb	phrase	2	3	nomatch	plus	-1	1	y	1.0686
694.0366	0.2	mpnw	73	verb	phrase	2	4	nomatch	plus	-1	1	y	1.0686
694.2366	0.0	+	73	verb	phrase	2	5	nomatch	plus	-1	1	y	1.0686
694.6366	0.2	tw	73	verb	phrase	2	6	nomatch	plus	-1	1	y	1.0686
694.8365	0.0	+	73	verb	phrase	2	7	nomatch	plus	-1	1	y	1.0686
695.2365	0.2	nager	73	verb	phrase	2	8	nomatch	plus	-1	1	y	1.0686
695.4365	0.0	+	73	verb	phrase	2	9	nomatch	plus	-1	1	y	1.0686
695.8365	0.2	tard	73	verb	phrase	2	10	nomatch	plus	-1	1	y	1.0686
696.0364	0.0	+	73	verb	phrase	2	11	nomatch	plus	-1	1	y	1.0686
696.4364	0.0	+	73	verb	phrase	2	12	nomatch	plus	-1	1	y	1.0686
698.4363	0.0	PLUS	73	verb	phrase	2	13	nomatch	plus	-1	1	y	1.0686
699.5695000000001	0.0	+	73	verb	phrase	2	14	nomatch	plus	-1	1	y	1.0686
699.5048	0.0	[response]	73	verb	phrase	2	15	nomatch	plus	-1	1	y	1.0686
708.8355	0.0	+	74	verb	list	2	1	nomatch	ainsi	-1	1	y	0.65128
709.3854	0.2	pmcs	74	verb	list	2	2	nomatch	ainsi	-1	1	y	0.65128
709.5854	0.0	+	74	verb	list	2	3	nomatch	ainsi	-1	1	y	0.65128
709.9854	0.2	ftb	74	verb	list	2	4	nomatch	ainsi	-1	1	y	0.65128
710.1854	0.0	+	74	verb	list	2	5	nomatch	ainsi	-1	1	y	0.65128
710.5853	0.2	stm	74	verb	list	2	6	nomatch	ainsi	-1	1	y	0.65128
710.7853	0.0	+	74	verb	list	2	7	nomatch	ainsi	-1	1	y	0.65128
711.1853	0.2	galoper	74	verb	list	2	8	nomatch	ainsi	-1	1	y	0.65128
711.3853	0.0	+	74	verb	list	2	9	nomatch	ainsi	-1	1	y	0.65128
711.7852	0.2	vert	74	verb	list	2	10	nomatch	ainsi	-1	1	y	0.65128
711.9852	0.0	+	74	verb	list	2	11	nomatch	ainsi	-1	1	y	0.65128
712.3852	0.0	+	74	verb	list	2	12	nomatch	ainsi	-1	1	y	0.65128
714.385	0.0	AINSI	74	verb	list	2	13	nomatch	ainsi	-1	1	y	0.65128
715.1016	0.0	+	74	verb	list	2	14	nomatch	ainsi	-1	1	y	0.65128
715.0363000000001	0.0	[response]	74	verb	list	2	15	nomatch	ainsi	-1	1	y	0.65128
716.7848	0.0	+	75	verb	phrase	2	1	nomatch	dans	-1	1	y	0.6432300000000001
717.3349000000001	0.2	cnmgx	75	verb	phrase	2	2	nomatch	dans	-1	1	y	0.6432300000000001
717.5348	0.0	+	75	verb	phrase	2	3	nomatch	dans	-1	1	y	0.6432300000000001
717.9348	0.2	lnjw	75	verb	phrase	2	4	nomatch	dans	-1	1	y	0.6432300000000001
718.1348	0.0	+	75	verb	phrase	2	5	nomatch	dans	-1	1	y	0.6432300000000001
718.5514000000001	0.2	tw	75	verb	phrase	2	6	nomatch	dans	-1	1	y	0.6432300000000001
718.7514	0.0	+	75	verb	phrase	2	7	nomatch	dans	-1	1	y	0.6432300000000001
719.1513	0.2	jongler	75	verb	phrase	2	8	nomatch	dans	-1	1	y	0.6432300000000001
719.3513	0.0	+	75	verb	phrase	2	9	nomatch	dans	-1	1	y	0.6432300000000001
719.7533	0.2	tt	75	verb	phrase	2	10	nomatch	dans	-1	1	y	0.6432300000000001
719.9513000000001	0.0	+	75	verb	phrase	2	11	nomatch	dans	-1	1	y	0.6432300000000001
720.3512000000001	0.0	+	75	verb	phrase	2	12	nomatch	dans	-1	1	y	0.6432300000000001
722.3511	0.0	DANS	75	verb	phrase	2	13	nomatch	dans	-1	1	y	0.6432300000000001
723.051	0.0	+	75	verb	phrase	2	14	nomatch	dans	-1	1	y	0.6432300000000001
722.9943	0.0	[response]	75	verb	phrase	2	15	nomatch	dans	-1	1	y	0.6432300000000001
724.7509	0.0	+	76	verb	list	3	1	match	doit	3	1	p	0.7446200000000001
725.3009	0.2	scph	76	verb	list	3	2	match	doit	3	1	p	0.7446200000000001
725.5008	0.0	+	76	verb	list	3	3	match	doit	3	1	p	0.7446200000000001
725.9008	0.2	qrgw	76	verb	list	3	4	match	doit	3	1	p	0.7446200000000001
726.1008	0.0	+	76	verb	list	3	5	match	doit	3	1	p	0.7446200000000001
726.5008	0.2	doit	76	verb	list	3	6	match	doit	3	1	p	0.7446200000000001
726.7008	0.0	+	76	verb	list	3	7	match	doit	3	1	p	0.7446200000000001
727.1007	0.2	vieux	76	verb	list	3	8	match	doit	3	1	p	0.7446200000000001
727.3007	0.0	+	76	verb	list	3	9	match	doit	3	1	p	0.7446200000000001
727.7007	0.2	voyager	76	verb	list	3	10	match	doit	3	1	p	0.7446200000000001
727.9007	0.0	+	76	verb	list	3	11	match	doit	3	1	p	0.7446200000000001
728.3006	0.0	+	76	verb	list	3	12	match	doit	3	1	p	0.7446200000000001
730.3005	0.0	DOIT	76	verb	list	3	13	match	doit	3	1	p	0.7446200000000001
731.1004	0.0	+	76	verb	list	3	14	match	doit	3	1	p	0.7446200000000001
731.0451	0.0	[response]	76	verb	list	3	15	match	doit	3	1	p	0.7446200000000001
732.7003	0.0	+	77	verb	list	2	1	nomatch	bleu	-1	1	y	0.7203
733.2512	0.2	trdgsz	77	verb	list	2	2	nomatch	bleu	-1	1	y	0.7203
733.4502	0.0	+	77	verb	list	2	3	nomatch	bleu	-1	1	y	0.7203
733.8502	0.2	rpcx	77	verb	list	2	4	nomatch	bleu	-1	1	y	0.7203
734.0502	0.0	+	77	verb	list	2	5	nomatch	bleu	-1	1	y	0.7203
734.4502	0.2	stm	77	verb	list	2	6	nomatch	bleu	-1	1	y	0.7203
734.6501	0.0	+	77	verb	list	2	7	nomatch	bleu	-1	1	y	0.7203
735.0501	0.2	jongler	77	verb	list	2	8	nomatch	bleu	-1	1	y	0.7203
735.2501	0.0	+	77	verb	list	2	9	nomatch	bleu	-1	1	y	0.7203
735.6501	0.2	noir	77	verb	list	2	10	nomatch	bleu	-1	1	y	0.7203
735.85	0.0	+	77	verb	list	2	11	nomatch	bleu	-1	1	y	0.7203
736.25	0.0	+	77	verb	list	2	12	nomatch	bleu	-1	1	y	0.7203
738.2499	0.0	BLEU	77	verb	list	2	13	nomatch	bleu	-1	1	y	0.7203
739.0331	0.0	+	77	verb	list	2	14	nomatch	bleu	-1	1	y	0.7203
738.9702	0.0	[response]	77	verb	list	2	15	nomatch	bleu	-1	1	y	0.7203
740.6497	0.0	+	78	verb	phrase	1	1	match	moins	5	1	p	0.71421
741.1996	0.2	lws	78	verb	phrase	1	2	match	moins	5	1	p	0.71421
741.3996	0.0	+	78	verb	phrase	1	3	match	moins	5	1	p	0.71421
741.7996	0.2	mpnw	78	verb	phrase	1	4	match	moins	5	1	p	0.71421
741.9996	0.0	+	78	verb	phrase	1	5	match	moins	5	1	p	0.71421
742.3995	0.2	tw	78	verb	phrase	1	6	match	moins	5	1	p	0.71421
742.5995	0.0	+	78	verb	phrase	1	7	match	moins	5	1	p	0.71421
742.9995	0.2	dvktf	78	verb	phrase	1	8	match	moins	5	1	p	0.71421
743.1995000000001	0.0	+	78	verb	phrase	1	9	match	moins	5	1	p	0.71421
743.5995	0.2	moins	78	verb	phrase	1	10	match	moins	5	1	p	0.71421
743.7994	0.0	+	78	verb	phrase	1	11	match	moins	5	1	p	0.71421
744.1994	0.0	+	78	verb	phrase	1	12	match	moins	5	1	p	0.71421
746.1992	0.0	MOINS	78	verb	phrase	1	13	match	moins	5	1	p	0.71421
746.9825	0.0	+	78	verb	phrase	1	14	match	moins	5	1	p	0.71421
746.9135	0.0	[response]	78	verb	phrase	1	15	match	moins	5	1	p	0.71421
748.5991	0.0	+	79	verb	phrase	1	1	match	voyager	5	1	p	0.62416
749.149	0.2	tmvk	79	verb	phrase	1	2	match	voyager	5	1	p	0.62416
749.349	0.0	+	79	verb	phrase	1	3	match	voyager	5	1	p	0.62416
749.749	0.2	ftb	79	verb	phrase	1	4	match	voyager	5	1	p	0.62416
749.949	0.0	+	79	verb	phrase	1	5	match	voyager	5	1	p	0.62416
750.3489	0.2	kbcr	79	verb	phrase	1	6	match	voyager	5	1	p	0.62416
750.5489	0.0	+	79	verb	phrase	1	7	match	voyager	5	1	p	0.62416
750.9489	0.2	lgwk	79	verb	phrase	1	8	match	voyager	5	1	p	0.62416
751.1489	0.0	+	79	verb	phrase	1	9	match	voyager	5	1	p	0.62416
751.5488	0.2	voyager	79	verb	phrase	1	10	match	voyager	5	1	p	0.62416
751.7488	0.0	+	79	verb	phrase	1	11	match	voyager	5	1	p	0.62416
752.1488	0.0	+	79	verb	phrase	1	12	match	voyager	5	1	p	0.62416
754.1486	0.0	VOYAGER	79	verb	phrase	1	13	match	voyager	5	1	p	0.62416
754.8319	0.0	+	79	verb	phrase	1	14	match	voyager	5	1	p	0.62416
754.7728	0.0	[response]	79	verb	phrase	1	15	match	voyager	5	1	p	0.62416
756.5484	0.0	+	80	verb	list	4	1	nomatch	jean	-1	1	y	0.89539
757.0984	0.2	jtkxbp	80	verb	list	4	2	nomatch	jean	-1	1	y	0.89539
757.2984	0.0	+	80	verb	list	4	3	nomatch	jean	-1	1	y	0.89539
757.6984	0.2	yves	80	verb	list	4	4	nomatch	jean	-1	1	y	0.89539
757.8983000000001	0.0	+	80	verb	list	4	5	nomatch	jean	-1	1	y	0.89539
758.2983	0.2	son	80	verb	list	4	6	nomatch	jean	-1	1	y	0.89539
758.4983	0.0	+	80	verb	list	4	7	nomatch	jean	-1	1	y	0.89539
758.8983000000001	0.2	galoper	80	verb	list	4	8	nomatch	jean	-1	1	y	0.89539
759.0983	0.0	+	80	verb	list	4	9	nomatch	jean	-1	1	y	0.89539
759.4982	0.2	bleu	80	verb	list	4	10	nomatch	jean	-1	1	y	0.89539
759.6982	0.0	+	80	verb	list	4	11	nomatch	jean	-1	1	y	0.89539
760.0982	0.0	+	80	verb	list	4	12	nomatch	jean	-1	1	y	0.89539
762.098	0.0	JEAN	80	verb	list	4	13	nomatch	jean	-1	1	y	0.89539
763.0479	0.0	+	80	verb	list	4	14	nomatch	jean	-1	1	y	0.89539
764.4978	0.0	+	80	verb	list	4	15	nomatch	jean	-1	1	y	0.89539
764.9983	0.0	+	80	verb	list	4	16	nomatch	jean	-1	1	y	0.89539
765.0978	0.0	+	80	verb	list	4	17	nomatch	jean	-1	1	y	0.89539
766.5143	0.0	+	80	verb	list	4	18	nomatch	jean	-1	1	y	0.89539
766.6143	0.0	+	80	verb	list	4	19	nomatch	jean	-1	1	y	0.89539
768.0142	0.0	+	80	verb	list	4	20	nomatch	jean	-1	1	y	0.89539
768.1142	0.0	+	80	verb	list	4	21	nomatch	jean	-1	1	y	0.89539
769.5141	0.0	+	80	verb	list	4	22	nomatch	jean	-1	1	y	0.89539
769.6141	0.0	+	80	verb	list	4	23	nomatch	jean	-1	1	y	0.89539
771.014	0.0	+	80	verb	list	4	24	nomatch	jean	-1	1	y	0.89539
771.114	0.0	+	80	verb	list	4	25	nomatch	jean	-1	1	y	0.89539
772.5139	0.0	+	80	verb	list	4	26	nomatch	jean	-1	1	y	0.89539
772.6139000000001	0.0	+	80	verb	list	4	27	nomatch	jean	-1	1	y	0.89539
773.9971	0.0	+	80	verb	list	4	28	nomatch	jean	-1	1	y	0.89539
774.0971	0.0	+	80	verb	list	4	29	nomatch	jean	-1	1	y	0.89539
775.5136	0.0	+	80	verb	list	4	30	nomatch	jean	-1	1	y	0.89539
775.6136	0.0	+	80	verb	list	4	31	nomatch	jean	-1	1	y	0.89539
777.0135	0.0	+	80	verb	list	4	32	nomatch	jean	-1	1	y	0.89539
777.1135	0.0	+	80	verb	list	4	33	nomatch	jean	-1	1	y	0.89539
778.5134	0.0	+	80	verb	list	4	34	nomatch	jean	-1	1	y	0.89539
778.6134	0.0	+	80	verb	list	4	35	nomatch	jean	-1	1	y	0.89539
783.3297	0.0	+	80	verb	list	4	36	nomatch	jean	-1	1	y	0.89539
762.9934000000001	0.0	[response]	80	verb	list	4	37	nomatch	jean	-1	1	y	0.89539
